Time(sec),Gyr1_X(deg/sec),Gyr1_Y(deg/sec),Gyr1_Z(deg/sec),Acc1_X(m/s^2),Acc1_Y(m/s^2),Acc1_Z(m/s^2),Gyr2_X(deg/sec),Gyr2_Y(deg/sec),Gyr2_Z(deg/sec),Acc2_X(m/s^2),Acc2_Y(m/s^2),Acc2_Z(m/s^2),Gyr_X(deg/sec),Gyr_Y(deg/sec),Gyr_Z(deg/sec),Acc_X(m/s^2),Acc_Y(m/s^2),Acc_Z(m/s^2),Gyr_X(deg/sec),Gyr_Y(deg/sec),Gyr_Z(deg/sec),Acc_X(m/s^2),Acc_Y(m/s^2),Acc_Z(m/s^2),
335.193,-3.2892563343,1.3925769329,39.0130767822,0.0599471927,0.0446645953,-0.0009858608,-112.5278015137,73.5151596069,79.6000137329,0.0282307863,0.0637665093,0.0036147833,10.1875171661,83.6116485596,-82.1681137085,0.0245522857,0.0229482353,0.0243353248,49.0885009766,35.3942298889,-96.0214767456,0.0650389194,-0.0131318569,-0.0056281686,
335.203,-3.2857146263,1.3951331377,39.0135993958,0.0555972606,0.0504622124,0.0161014795,-112.5313873291,73.5244750977,79.6001434326,0.0321831703,0.0699640214,0.0138256550,10.1801738739,83.6135864258,-82.1649322510,0.0260208845,0.0224804282,0.0214380026,49.0909652710,35.3975677490,-96.0146484375,0.0616685152,-0.0209417939,-0.0133920312,
335.213,-3.2854173183,1.3949686289,39.0148086548,0.0565709546,0.0411796942,0.0126830339,-112.5455932617,73.5299911499,79.5909118652,0.0253745317,0.0664339364,0.0060430169,10.1840381622,83.6141967773,-82.1513519287,0.0274869204,0.0190564096,0.0194937587,49.0896911621,35.3956756592,-96.0080032349,0.0704305768,-0.0189912319,-0.0119533539,
335.223,-3.2844951153,1.3944846392,39.0165786743,0.0619336069,0.0455581732,0.0073108673,-112.5670318604,73.5327377319,79.5770568848,0.0336889029,0.0653743744,0.0012409687,10.1752815247,83.6143493652,-82.1514816284,0.0216278434,0.0224920511,0.0199829340,49.0905838013,35.3993606567,-95.9975509644,0.0597408414,-0.0233660340,-0.0187553167,
335.233,-3.2868242264,1.3932731152,39.0177879333,0.0580062121,0.0363214314,0.0097540617,-112.5826797485,73.5346832275,79.5692672729,0.0293039680,0.0575022995,0.0052065253,10.1679658890,83.6135559082,-82.1501846313,0.0265091062,0.0234804153,0.0268028975,49.0908966064,35.3988075256,-95.9903717041,0.0631509423,-0.0150724053,-0.0153377056,
335.243,-3.2879290581,1.3911077976,39.0177574158,0.0628512502,0.0387821421,-0.0009880066,-112.5886077881,73.5345764160,79.5725021362,0.0258855224,0.0545628071,0.0164647102,10.1549835205,83.6135177612,-82.1551895142,0.0279738903,0.0205758512,0.0224031210,49.0876693726,35.4013595581,-95.9851379395,0.0563513041,-0.0199055672,-0.0065665245,
335.253,-3.2883603573,1.3911911249,39.0188446045,0.0618761368,0.0387896411,0.0048718452,-112.5990600586,73.5349349976,79.5696945190,0.0288169384,0.0589320958,0.0033267736,10.1730928421,83.6137008667,-82.1265716553,0.0240679979,0.0229825079,0.0263181925,49.0884513855,35.4042434692,-95.9779663086,0.0583454967,-0.0213556290,-0.0167926550,
335.263,-3.2872977257,1.3935091496,39.0211334229,0.0565454885,0.0417007692,0.0078014135,-112.6036758423,73.5317764282,79.5699615479,0.0322192907,0.0579952002,0.0082510114,10.1604948044,83.6124191284,-82.1293716431,0.0191826820,0.0225148797,0.0233626366,49.0877761841,35.4080886841,-95.9705657959,0.0569353104,-0.0266911983,-0.0128685236,
335.273,-3.2885124683,1.3931505680,39.0222625732,0.0614220425,0.0402570888,0.0087791085,-112.6102371216,73.5279312134,79.5671920776,0.0307354331,0.0565772653,0.0043995976,10.1805419922,83.6143798828,-82.1007843018,0.0250458717,0.0239465535,0.0160777569,49.0882148743,35.4101371765,-95.9621200562,0.0574527383,-0.0125193596,-0.0099202394,
335.283,-3.2889084816,1.3931603432,39.0228004456,0.0599573702,0.0431936756,0.0073146820,-112.6129150391,73.5253448486,79.5668411255,0.0312108994,0.0556350946,0.0083347559,10.1976432800,83.6145629883,-82.0761642456,0.0235813856,0.0234259367,0.0219484568,49.0893478394,35.4094123840,-95.9543914795,0.0711143017,-0.0179066658,-0.0138195753,
335.293,-3.2911324501,1.3921349049,39.0245208740,0.0638457313,0.0388379097,0.0078048706,-112.6136932373,73.5221862793,79.5666580200,0.0282655954,0.0551938415,0.0073819160,10.1797304153,83.6142272949,-82.0873336792,0.0226041675,0.0166234076,0.0229104161,49.0891685486,35.4112014771,-95.9473495483,0.0628390312,-0.0183795094,-0.0128326416,
335.303,-3.2912960052,1.3899457455,39.0251502991,0.0633192509,0.0461650342,0.0058509707,-112.6053085327,73.5200729370,79.5765457153,0.0306965113,0.0571960807,0.0180991292,10.1864538193,83.6173934937,-82.0738754272,0.0284696817,0.0234561265,0.0122258067,49.0877075195,35.4073219299,-95.9432830811,0.0745025873,-0.0154658556,-0.0060381889,
335.313,-3.2897622585,1.3905005455,39.0262489319,0.0623523705,0.0456500202,0.0043848753,-112.6098937988,73.5178909302,79.5731353760,0.0326388478,0.0625914931,0.0083686709,10.2115869522,83.6181030273,-82.0419235229,0.0240765214,0.0238976777,0.0200587511,49.0850296021,35.4074478149,-95.9378433228,0.0574144721,-0.0203227997,-0.0026482940,
335.323,-3.2912390232,1.3905096054,39.0267982483,0.0599111207,0.0437226184,0.0058510303,-112.6166458130,73.5152893066,79.5685348511,0.0321376920,0.0635955036,0.0045099854,10.2105093002,83.6186828613,-82.0349349976,0.0255424976,0.0185305476,0.0176273584,49.0816497803,35.4033546448,-95.9320602417,0.0729812384,-0.0144631267,-0.0027115345,
335.333,-3.2904310226,1.3930369616,39.0278167725,0.0599552169,0.0451733321,0.0107341409,-112.6223526001,73.5069656372,79.5648956299,0.0325847268,0.0559000671,0.0021482110,10.1973552704,83.6184387207,-82.0422286987,0.0216357708,0.0244143307,0.0224987864,49.0826835632,35.4018669128,-95.9255065918,0.0714952946,-0.0188785791,-0.0178470612,
335.343,-3.2911782265,1.3922358751,39.0301589966,0.0628709346,0.0398152731,-0.0004958510,-112.6301193237,73.5044937134,79.5600128174,0.0345256329,0.0666661263,0.0046410561,10.1938943863,83.6197280884,-82.0368728638,0.0265210867,0.0214957893,0.0210580826,49.0831642151,35.3986129761,-95.9197082520,0.0685192347,-0.0135368705,-0.0159103870,
335.353,-3.2915430069,1.3919743299,39.0295028687,0.0584718324,0.0412864760,0.0058516264,-112.6323318481,73.4990844727,79.5601348877,0.0340105295,0.0618622303,0.0032212138,10.1880273819,83.6208343506,-82.0351409912,0.0250583887,0.0249277055,0.0215575695,49.0838127136,35.3976020813,-95.9133148193,0.0724111795,-0.0189217329,-0.0163983107,
335.363,-3.2919936180,1.3966811895,39.0304832458,0.0522063002,0.0408059284,0.0073196888,-112.6350326538,73.4940948486,79.5604095459,0.0286146998,0.0619339645,0.0032656789,10.2013759613,83.6180038452,-82.0140304565,0.0274943113,0.0214759409,0.0249372125,49.0839157104,35.3996238708,-95.9065856934,0.0577914715,-0.0218369365,-0.0149191618,
335.373,-3.2921903133,1.3966549635,39.0310325623,0.0600183457,0.0417859145,0.0053657293,-112.6279373169,73.4887847900,79.5683593750,0.0271235108,0.0556810498,0.0076617002,10.2044677734,83.6176376343,-82.0032882690,0.0274935961,0.0248861313,0.0190681815,49.0824775696,35.4014358521,-95.9000091553,0.0578172803,-0.0213214159,-0.0100395679,
335.383,-3.2917549610,1.3994507790,39.0308303833,0.0586022809,0.0461728014,0.0058554411,-112.6208190918,73.4869079590,79.5774307251,0.0305321813,0.0625593066,0.0135003924,10.2028589249,83.6145629883,-81.9978027344,0.0274876356,0.0219509602,0.0268331170,49.0849266052,35.4032936096,-95.8915557861,0.0588202477,-0.0169355273,-0.0178135633,
335.393,-3.2921950817,1.4008344412,39.0337333679,0.0600912720,0.0427624620,0.0122040510,-112.6173400879,73.4822692871,79.5817413330,0.0339271426,0.0626375377,0.0100961328,10.2353200912,83.6114349365,-81.9585876465,0.0230870247,0.0311557055,0.0346041918,49.0868606567,35.4037208557,-95.8851699829,0.0598028898,-0.0145088434,-0.0129070878,
335.403,-3.2919421196,1.3994587660,39.0337562561,0.0581141412,0.0412932374,0.0029259920,-112.6144409180,73.4821395874,79.5872879028,0.0261139870,0.0641106069,0.0120367408,10.2152862549,83.6108169556,-81.9700927734,0.0225975513,0.0228919089,0.0277503729,49.0874137878,35.4005279541,-95.8774795532,0.0714762211,-0.0145384073,-0.0080394745,
335.413,-3.2953884602,1.3978624344,39.0337219238,0.0610159785,0.0369587839,0.0029283166,-112.6178588867,73.4825897217,79.5885009766,0.0290458798,0.0640972853,0.0071668625,10.2225055695,83.6094436646,-81.9536666870,0.0284542441,0.0253151059,0.0252882838,49.0868186951,35.3984222412,-95.8682937622,0.0733993649,-0.0169904232,-0.0124543905,
335.423,-3.2975978851,1.3973265886,39.0361328125,0.0580769405,0.0409035385,0.0112313628,-112.6263427734,73.4822235107,79.5867233276,0.0275792480,0.0645741522,0.0096495152,10.2177991867,83.6102676392,-81.9509048462,0.0240613222,0.0189791620,0.0257891417,49.0849304199,35.4018630981,-95.8618850708,0.0578233004,-0.0218293667,-0.0085456371,
335.433,-3.2977447510,1.3972879648,39.0366172791,0.0619825162,0.0399295315,-0.0004872680,-112.6364212036,73.4820175171,79.5852813721,0.0290430784,0.0650468469,0.0101854205,10.1982250214,83.6112518311,-81.9600067139,0.0221101046,0.0165786147,0.0223797560,49.0818099976,35.4042739868,-95.8521118164,0.0568810105,-0.0271529555,-0.0124696493,
335.443,-3.2986080647,1.3983227015,39.0388946533,0.0610240065,0.0414093882,0.0073266625,-112.6545486450,73.4793777466,79.5778503418,0.0358659029,0.0655401945,0.0024733543,10.2147283554,83.6109466553,-81.9307632446,0.0255274773,0.0297292173,0.0233570337,49.0768661499,35.4053764343,-95.8443298340,0.0622678399,-0.0227038860,-0.0017731786,
335.453,-3.2987551689,1.3977714777,39.0406417847,0.0619909503,0.0419002399,0.0024436712,-112.6740493774,73.4782409668,79.5703582764,0.0324422717,0.0586861968,0.0015935898,10.2201528549,83.6093139648,-81.9130859375,0.0284540057,0.0238543451,0.0218665600,49.0758438110,35.4031639099,-95.8332595825,0.0715137124,-0.0153870583,-0.0061933398,
335.463,-3.3006777763,1.4013354778,39.0422286987,0.0561937653,0.0399805233,0.0029356480,-112.6785659790,73.4785308838,79.5771179199,0.0295140147,0.0596487522,0.0079602599,10.2083244324,83.6084899902,-81.9124908447,0.0284523964,0.0209455192,0.0262454152,49.0754852295,35.4026641846,-95.8221511841,0.0661354661,-0.0168523788,-0.0076651573,
335.473,-3.3000628948,1.4032469988,39.0439186096,0.0576919578,0.0424111709,0.0029353499,-112.7001876831,73.4784545898,79.5664825439,0.0343964696,0.0576551855,0.0026890635,10.2028503418,83.6080017090,-81.9089431763,0.0250334740,0.0243721902,0.0242790580,49.0769195557,35.3981857300,-95.8119125366,0.0699779987,-0.0134819746,-0.0071911812,
335.483,-3.2977957726,1.4036879539,39.0445213318,0.0562348068,0.0482310392,0.0048866272,-112.6993942261,73.4821929932,79.5751800537,0.0314853191,0.0595523715,0.0143800974,10.2166881561,83.6082077026,-81.8871459961,0.0289401412,0.0262993276,0.0213596225,49.0783653259,35.3987350464,-95.8008422852,0.0607085228,-0.0154443979,-0.0061958432,
335.493,-3.3002061844,1.4045026302,39.0461540222,0.0635732412,0.0404605046,0.0009830594,-112.7121276855,73.4842300415,79.5668258667,0.0329602957,0.0590077639,0.0031949878,10.2232837677,83.6095275879,-81.8720016479,0.0260130167,0.0233606100,0.0169884562,49.0806655884,35.3996543884,-95.7920150757,0.0665809512,-0.0203415155,-0.0125119686,
335.503,-3.2994034290,1.4018555880,39.0485877991,0.0654801801,0.0428880006,0.0107467175,-112.7155761719,73.4842147827,79.5665893555,0.0334485173,0.0536307693,0.0056521893,10.2353773117,83.6081848145,-81.8512878418,0.0294283628,0.0247978270,0.0247824192,49.0836944580,35.4039268494,-95.7828445435,0.0544346571,-0.0203372240,-0.0183109641,
335.513,-3.2967915535,1.4039818048,39.0497245789,0.0547750928,0.0472369827,0.0058622956,-112.7157363892,73.4875030518,79.5703125000,0.0295585394,0.0574861467,0.0153974295,10.2590265274,83.6121139526,-81.8208389282,0.0265063047,0.0232991874,0.0150927901,49.0831832886,35.4089126587,-95.7760543823,0.0520642400,-0.0246888399,-0.0138890147,
335.523,-3.2999262810,1.4033541679,39.0514335632,0.0625766367,0.0355728529,0.0112363100,-112.7286376953,73.4894332886,79.5600891113,0.0324978232,0.0613375306,0.0012841821,10.2562303543,83.6112518311,-81.8175888062,0.0265046358,0.0242784917,0.0248425603,49.0866928101,35.4097557068,-95.7665557861,0.0681894422,-0.0164144039,-0.0231227279,
335.533,-3.2998573780,1.4034290314,39.0519790649,0.0596482530,0.0448489934,0.0048887134,-112.7338333130,73.4919738770,79.5584182739,0.0261627436,0.0564058423,0.0091041327,10.2520961761,83.6104507446,-81.8125686646,0.0245499611,0.0208659172,0.0228729248,49.0855636597,35.4087867737,-95.7589874268,0.0740351081,-0.0168995857,-0.0080047846,
335.543,-3.2995865345,1.4056231976,39.0548667908,0.0591982603,0.0453325026,0.0063542724,-112.7394790649,73.4910202026,79.5569763184,0.0237166286,0.0573863983,0.0086478591,10.2512960434,83.6100845337,-81.8038787842,0.0216195583,0.0218434036,0.0165223479,49.0851936340,35.4081687927,-95.7522277832,0.0632841587,-0.0198304057,-0.0138719082,
335.553,-3.3004758358,1.4061391354,39.0553932190,0.0582307056,0.0414417274,0.0087966323,-112.7434158325,73.4893951416,79.5555419922,0.0320093632,0.0613101423,0.0086763501,10.2652597427,83.6127853394,-81.7811889648,0.0260193348,0.0276832581,0.0165684223,49.0837059021,35.4105949402,-95.7449722290,0.0603889227,-0.0212630033,-0.0172903538,
335.563,-3.3010127544,1.4055067301,39.0559654236,0.0577313863,0.0385214128,0.0014728308,-112.7539978027,73.4835968018,79.5493469238,0.0319805741,0.0521016121,0.0009498596,10.2700872421,83.6113739014,-81.7705154419,0.0284579992,0.0208342075,0.0209448338,49.0850868225,35.4098434448,-95.7357406616,0.0657493472,-0.0178636312,-0.0138623118,
335.573,-3.3011164665,1.4043003321,39.0571174622,0.0645462722,0.0419412106,0.0127024651,-112.7601776123,73.4793319702,79.5451049805,0.0363539457,0.0633858740,0.0073534250,10.2881240845,83.6094055176,-81.7441711426,0.0274776220,0.0276283622,0.0233547091,49.0849609375,35.4115066528,-95.7286148071,0.0735855103,-0.0261504650,-0.0162940025,
335.583,-3.3023486137,1.4033384323,39.0576629639,0.0611115210,0.0424509831,0.0044031739,-112.7633590698,73.4727401733,79.5423049927,0.0280204415,0.0600630939,0.0025278330,10.2936391830,83.6106719971,-81.7318267822,0.0260152221,0.0242040455,0.0165454149,49.0854377747,35.4127807617,-95.7216567993,0.0579786301,-0.0178444386,-0.0094445944,
335.593,-3.3036284447,1.4019457102,39.0587425232,0.0693880022,0.0400319062,0.0097738504,-112.7610092163,73.4655532837,79.5462112427,0.0304261446,0.0582251549,0.0059815049,10.2864761353,83.6101455688,-81.7323074341,0.0269907713,0.0247046351,0.0238582492,49.0870780945,35.4086418152,-95.7146835327,0.0764744282,-0.0110554099,-0.0065246820,
335.603,-3.3043262959,1.3995546103,39.0599174500,0.0639751926,0.0400441214,0.0014737844,-112.7711105347,73.4595413208,79.5375061035,0.0299080014,0.0582980812,-0.0061402917,10.2904891968,83.6083679199,-81.7197952271,0.0274755955,0.0242028236,0.0252925158,49.0870132446,35.4069328308,-95.7061691284,0.0754735470,-0.0159506798,-0.0099545717,
335.613,-3.3053352833,1.3991264105,39.0604476929,0.0615263134,0.0410382673,0.0083100796,-112.7616119385,73.4555282593,79.5468063354,0.0308646560,0.0642372370,0.0109316707,10.3244838715,83.6083068848,-81.6778488159,0.0211278200,0.0324376523,0.0218878388,49.0912322998,35.4099922180,-95.6958618164,0.0628218055,-0.0174313784,-0.0186780095,
335.623,-3.3051581383,1.3980622292,39.0616531372,0.0595546216,0.0429883339,0.0073335171,-112.7567520142,73.4530029297,79.5503234863,0.0249927044,0.0613558590,0.0133670568,10.3354692459,83.6074447632,-81.6594543457,0.0289386511,0.0236245990,0.0233421922,49.0915451050,35.4152565002,-95.6892623901,0.0536193252,-0.0247183442,-0.0157101154,
335.633,-3.3063185215,1.3946269751,39.0616455078,0.0653540567,0.0342195667,0.0044024587,-112.7669143677,73.4517211914,79.5425186157,0.0352402329,0.0696571767,0.0036563277,10.3295574188,83.6063995361,-81.6579742432,0.0245420933,0.0216797888,0.0257639885,49.0938072205,35.4130897522,-95.6804962158,0.0755611658,-0.0135254860,-0.0161883831,
335.643,-3.3061218262,1.3935464621,39.0622634888,0.0594758280,0.0473997593,0.0068440437,-112.7782974243,73.4480895996,79.5338973999,0.0293627977,0.0613903701,0.0012907982,10.3178052902,83.6067123413,-81.6611328125,0.0230778456,0.0192618370,0.0242978930,49.0917625427,35.4123420715,-95.6725311279,0.0672497749,-0.0232778192,-0.0074262619,
335.653,-3.3055074215,1.3940654993,39.0621910095,0.0580200404,0.0425062329,0.0063548088,-112.7870635986,73.4470748901,79.5310363770,0.0342406034,0.0643185973,0.0042674541,10.3150310516,83.6068344116,-81.6558609009,0.0274726152,0.0221976042,0.0208830833,49.0912017822,35.4126701355,-95.6647872925,0.0555356145,-0.0154576302,-0.0025474429,
335.663,-3.3048634529,1.3929369450,39.0633583069,0.0619065985,0.0424950495,0.0068422556,-112.7923431396,73.4467697144,79.5303955078,0.0357038975,0.0618714690,0.0052702427,10.3114461899,83.6066818237,-81.6509094238,0.0196598172,0.0226923227,0.0169724822,49.0936965942,35.4133186340,-95.6541366577,0.0643339753,-0.0144992471,-0.0156998634,
335.673,-3.3051061630,1.3939926624,39.0643844604,0.0629015863,0.0415226854,0.0087961555,-112.7893981934,73.4494400024,79.5386810303,0.0313226581,0.0667191148,0.0189114213,10.3266763687,83.6059799194,-81.6258850098,0.0289357901,0.0260784328,0.0203835964,49.0960311890,35.4123687744,-95.6460876465,0.0662735701,-0.0140399933,-0.0127512813,
335.683,-3.3039615154,1.3902654648,39.0656661987,0.0667428002,0.0463856496,0.0073286891,-112.7894134521,73.4519805908,79.5465393066,0.0332884192,0.0627738535,0.0164535046,10.3145160675,83.6072616577,-81.6258468628,0.0230789185,0.0197585523,0.0160074234,49.0966567993,35.4132385254,-95.6372222900,0.0618913770,-0.0145275593,-0.0112739801,
335.693,-3.3062791824,1.3887940645,39.0662307739,0.0608577505,0.0386135578,0.0073304176,-112.7917938232,73.4533233643,79.5524826050,0.0391544700,0.0632360876,0.0159676075,10.3339061737,83.6085510254,-81.5971298218,0.0167337656,0.0226542950,0.0194529295,49.0973052979,35.4162673950,-95.6286697388,0.0550985336,-0.0174400806,-0.0083172321,
335.703,-3.3044824600,1.3871823549,39.0668487549,0.0613179095,0.0444416776,0.0063508749,-112.8020248413,73.4588165283,79.5499954224,0.0333223939,0.0631337166,0.0150023103,10.3251447678,83.6053619385,-81.5940780640,0.0284463167,0.0192435980,0.0301383734,49.0955200195,35.4137001038,-95.6216049194,0.0716635585,-0.0193961859,-0.0049355030,
335.713,-3.3059356213,1.3849052191,39.0686912537,0.0617664605,0.0415373556,0.0068399906,-112.8065261841,73.4631500244,79.5516204834,0.0284610987,0.0615919828,0.0086476803,10.3498268127,83.6060638428,-81.5597457886,0.0250297189,0.0289633572,0.0155103803,49.0940055847,35.4115371704,-95.6133193970,0.0711445212,-0.0169571638,-0.0103371739,
335.723,-3.3085801601,1.3846008778,39.0710754395,0.0593197420,0.0415834337,0.0083073378,-112.8080444336,73.4673614502,79.5575332642,0.0275054574,0.0590832829,0.0120452046,10.3451004028,83.6076278687,-81.5545883179,0.0260093212,0.0172585845,0.0145583153,49.0950126648,35.4127807617,-95.6045837402,0.0609083176,-0.0154922605,-0.0112946033,
335.733,-3.3100969791,1.3825610876,39.0729370117,0.0587958694,0.0391684957,0.0068432093,-112.8126220703,73.4707565308,79.5606231689,0.0260574818,0.0595100522,0.0061849356,10.3662872314,83.6073608398,-81.5229187012,0.0196611285,0.0245408118,0.0174912810,49.0925369263,35.4189147949,-95.5970840454,0.0522065163,-0.0276293159,-0.0103039742,
335.743,-3.3100261688,1.3820012808,39.0735359192,0.0597626679,0.0469797775,0.0058662891,-112.8233795166,73.4693298340,79.5559158325,0.0343511701,0.0595114827,-0.0001040101,10.3710184097,83.6093139648,-81.5082321167,0.0191766620,0.0167251229,0.0155727267,49.0953178406,35.4240722656,-95.5872344971,0.0586275458,-0.0198033452,-0.0209822655,
335.753,-3.3109991550,1.3814810514,39.0733909607,0.0617067143,0.0347897038,0.0078203678,-112.8271255493,73.4698486328,79.5583267212,0.0363068581,0.0570550561,0.0091872215,10.3688125610,83.6100845337,-81.5019683838,0.0260140896,0.0264974535,0.0170501471,49.0941658020,35.4268569946,-95.5811538696,0.0562257171,-0.0217244029,-0.0068160295,
335.763,-3.3102610111,1.3809638023,39.0738716125,0.0660922229,0.0450307652,0.0073310733,-112.8405990601,73.4696350098,79.5503540039,0.0314229727,0.0555676818,-0.0039331317,10.3941640854,83.6082763672,-81.4680709839,0.0216160417,0.0283957422,0.0243530273,49.0943489075,35.4255638123,-95.5737228394,0.0625549555,-0.0173414946,-0.0092639923,
335.773,-3.3095214367,1.3825582266,39.0744094849,0.0544012897,0.0450178422,0.0068427324,-112.8454055786,73.4719772339,79.5497665405,0.0285049677,0.0623574853,0.0102339387,10.3807897568,83.6075668335,-81.4740219116,0.0255209208,0.0186538398,0.0272653103,49.0943298340,35.4253997803,-95.5642242432,0.0596229434,-0.0124597549,-0.0073121190,
335.783,-3.3128080368,1.3817701340,39.0743522644,0.0582937896,0.0353094935,0.0058687329,-112.8525390625,73.4705810547,79.5456008911,0.0343573689,0.0613895357,0.0024631619,10.3874845505,83.6058197021,-81.4586944580,0.0206347108,0.0254715085,0.0296804905,49.0964355469,35.4231796265,-95.5567169189,0.0703335404,-0.0183557272,-0.0136519670,
335.793,-3.3123822212,1.3806611300,39.0754737854,0.0660869405,0.0460442863,0.0058681965,-112.8590087891,73.4673004150,79.5437774658,0.0284817219,0.0555677712,0.0015375614,10.3604679108,83.6091918945,-81.4759521484,0.0235709548,0.0182100534,0.0189845562,49.0967750549,35.4238090515,-95.5512161255,0.0679010749,-0.0237251520,-0.0151090622,
335.803,-3.3114295006,1.3817880154,39.0771903992,0.0582941025,0.0435862541,0.0029379129,-112.8592224121,73.4646682739,79.5457839966,0.0294452310,0.0604907274,0.0059500933,10.3639001846,83.6124191284,-81.4626922607,0.0211358070,0.0216313303,0.0195287466,49.0949134827,35.4240684509,-95.5463180542,0.0615571737,-0.0202878714,-0.0087796450,
335.813,-3.3124389648,1.3821790218,39.0777282715,0.0587892011,0.0431155488,0.0122160912,-112.8588638306,73.4619598389,79.5504608154,0.0328497291,0.0600443184,0.0108488798,10.3356342316,83.6136398315,-81.4816970825,0.0226030350,0.0168070793,0.0263745189,49.0945701599,35.4249763489,-95.5401992798,0.0630348921,-0.0246722698,-0.0136600733,
335.823,-3.3130800724,1.3809250593,39.0764122009,0.0636501387,0.0426384658,-0.0019433498,-112.8730850220,73.4604187012,79.5401077271,0.0347951651,0.0634587705,0.0031118393,10.3446350098,83.6144409180,-81.4648361206,0.0289522409,0.0241163671,0.0136963725,49.0946350098,35.4217567444,-95.5335540771,0.0683602095,-0.0178615451,-0.0083094835,
335.833,-3.3142836094,1.3808876276,39.0793266296,0.0626729205,0.0402180254,0.0048933029,-112.8749542236,73.4577789307,79.5397720337,0.0313640833,0.0595901906,0.0060671568,10.3337554932,83.6148071289,-81.4689025879,0.0269998312,0.0207205713,0.0254169106,49.0942687988,35.4210853577,-95.5259704590,0.0712803602,-0.0188398361,-0.0136889815,
335.843,-3.3135609627,1.3795934916,39.0805168152,0.0602089353,0.0406937487,0.0029391646,-112.8725128174,73.4594650269,79.5424194336,0.0308842063,0.0659156740,0.0104394555,10.3261499405,83.6134033203,-81.4678268433,0.0235791206,0.0217077434,0.0185557604,49.0935173035,35.4236602783,-95.5183029175,0.0576450825,-0.0246725082,-0.0131918192,
335.853,-3.3123936653,1.3789842129,39.0822944641,0.0601983033,0.0421382785,0.0063557625,-112.8795242310,73.4580078125,79.5375289917,0.0303887129,0.0649478734,0.0055982471,10.3415269852,83.6110992432,-81.4451141357,0.0304105878,0.0260653794,0.0234054327,49.0910873413,35.4214172363,-95.5148239136,0.0693319440,-0.0188075900,-0.0088382959,
335.863,-3.3119456768,1.3781335354,39.0828742981,0.0587186180,0.0396890864,0.0083081722,-112.8727188110,73.4569244385,79.5457687378,0.0328246951,0.0615600646,0.0119218230,10.3355827332,83.6094055176,-81.4428787231,0.0216182470,0.0182592869,0.0282579064,49.0921134949,35.4205970764,-95.5077819824,0.0702968240,-0.0149172544,-0.0063912272,
335.873,-3.3112657070,1.3794306517,39.0845870972,0.0577646904,0.0426068977,0.0048896074,-112.8715667725,73.4566879272,79.5495223999,0.0298938155,0.0674253702,0.0128945708,10.3635339737,83.6063995361,-81.4076919556,0.0279600620,0.0313792825,0.0252874494,49.0928497314,35.4230384827,-95.4999542236,0.0561714172,-0.0183233619,-0.0117384195,
335.883,-3.3094058037,1.3784357309,39.0852203369,0.0592121743,0.0489221811,0.0078173876,-112.8683395386,73.4567718506,79.5544815063,0.0338004827,0.0625475347,0.0148323178,10.3617630005,83.6041030884,-81.4013671875,0.0269790292,0.0220982730,0.0272010565,49.0933113098,35.4251098633,-95.4929504395,0.0537594557,-0.0129407644,-0.0083016157,
335.893,-3.3123869896,1.3797572851,39.0875434875,0.0577703901,0.0426264219,0.0039145947,-112.8702621460,73.4581375122,79.5542984009,0.0323424339,0.0703352094,0.0075080991,10.3991746902,83.6038894653,-81.3561019897,0.0211192369,0.0317904949,0.0203750730,49.0963706970,35.4269676208,-95.4851684570,0.0557389855,-0.0153964758,-0.0087445974,
335.903,-3.3118581772,1.3818541765,39.0885543823,0.0587835386,0.0401757509,-0.0048744678,-112.8821487427,73.4566955566,79.5464248657,0.0372180939,0.0654518008,0.0036658049,10.3835659027,83.5988616943,-81.3623809814,0.0259922743,0.0210632682,0.0329806805,49.0939483643,35.4291992188,-95.4794998169,0.0538176298,-0.0177982450,-0.0043614507,
335.913,-3.3125553131,1.3834034204,39.0902366638,0.0592988506,0.0440941080,0.0131940842,-112.8893814087,73.4567718506,79.5438842773,0.0308707952,0.0669012666,0.0056517124,10.3554210663,83.5983734131,-81.3793258667,0.0255030394,0.0142805576,0.0251494646,49.0932312012,35.4324722290,-95.4717636108,0.0543524623,-0.0202079415,-0.0092301369,
335.923,-3.3110773563,1.3835000992,39.0932769775,0.0558825657,0.0430917963,0.0078210831,-112.9024658203,73.4589157104,79.5376205444,0.0313697457,0.0644015372,0.0071626902,10.3484058380,83.5994491577,-81.3759155273,0.0255051255,0.0211333930,0.0227231979,49.0926284790,35.4334678650,-95.4636764526,0.0592494607,-0.0182415247,-0.0136245489,
335.933,-3.3101522923,1.3824950457,39.0956764221,0.0617244095,0.0455171131,0.0068434477,-112.9123840332,73.4608917236,79.5358428955,0.0289381742,0.0658167899,0.0086603165,10.3534088135,83.5984954834,-81.3603515625,0.0284329653,0.0225856602,0.0217331648,49.0879249573,35.4343910217,-95.4585800171,0.0636571050,-0.0211203694,-0.0034151673,
335.943,-3.3095147610,1.3801815510,39.0981178284,0.0641254485,0.0445295051,0.0058651567,-112.9223403931,73.4620666504,79.5344772339,0.0255260468,0.0623616874,0.0096749663,10.3501939774,83.5983123779,-81.3538894653,0.0264794827,0.0230794251,0.0246570706,49.0873870850,35.4315414429,-95.4497604370,0.0694760084,-0.0138128996,-0.0078344345,
335.953,-3.3081707954,1.3792842627,39.0992774963,0.0631332323,0.0449943915,0.0039099455,-112.9319000244,73.4628372192,79.5356750488,0.0396900177,0.0633074939,0.0067841411,10.3603010178,83.5987701416,-81.3319702148,0.0274569392,0.0220848322,0.0207638144,49.0846786499,35.4351615906,-95.4414138794,0.0553672314,-0.0245022774,-0.0102808475,
335.963,-3.3082597256,1.3804044724,39.0997543335,0.0602230839,0.0464607589,0.0034224987,-112.9440155029,73.4619827271,79.5336456299,0.0333381295,0.0579267442,-0.0034086108,10.3711776733,83.5969009399,-81.3113327026,0.0245236158,0.0274291039,0.0270844102,49.0824966431,35.4400444031,-95.4337921143,0.0554366708,-0.0254210830,-0.0161313415,
335.973,-3.3093812466,1.3812299967,39.1007766724,0.0636554584,0.0406209044,0.0073299408,-112.9424057007,73.4637451172,79.5417251587,0.0318820477,0.0579022169,0.0156156421,10.3861808777,83.5959243774,-81.2869491577,0.0235451460,0.0220258534,0.0260972977,49.0813140869,35.4388198853,-95.4263839722,0.0666497946,-0.0185835361,-0.0063865185,
335.983,-3.3122887611,1.3809653521,39.1019172668,0.0587680303,0.0387184285,0.0034269094,-112.9479827881,73.4669036865,79.5422210693,0.0309211612,0.0544248819,0.0082964301,10.4085235596,83.5961685181,-81.2547836304,0.0245221853,0.0263774991,0.0236673355,49.0810470581,35.4381332397,-95.4184265137,0.0661517382,-0.0151683092,-0.0098121166,
335.993,-3.3129024506,1.3802498579,39.1030273438,0.0646149218,0.0445885099,0.0034270883,-112.9559478760,73.4661712646,79.5404739380,0.0318940878,0.0558853447,0.0054080486,10.4199180603,83.5975799561,-81.2373809814,0.0230600834,0.0263596475,0.0188121796,49.0811271667,35.4368209839,-95.4092559814,0.0675978661,-0.0210385323,-0.0098199844,
336.003,-3.3116588593,1.3806041479,39.1034889221,0.0651093870,0.0489613712,0.0053790808,-112.9562454224,73.4671936035,79.5431518555,0.0382468104,0.0568462014,0.0039379001,10.4315605164,83.5952453613,-81.2177505493,0.0225672722,0.0253531039,0.0270772576,49.0839309692,35.4357833862,-95.3995361328,0.0685597062,-0.0147248507,-0.0171209574,
336.013,-3.3108246326,1.3801476955,39.1052742004,0.0597303286,0.0430874750,0.0083078146,-112.9649887085,73.4694213867,79.5379791260,0.0231211782,0.0582597256,0.0073814988,10.4088077545,83.5943908691,-81.2331237793,0.0308663845,0.0190471709,0.0211955905,49.0845451355,35.4333610535,-95.3917999268,0.0734080076,-0.0167021751,-0.0166419744,
336.023,-3.3101232052,1.3785682917,39.1040916443,0.0587262027,0.0450284220,0.0073300004,-112.9696731567,73.4702911377,79.5373001099,0.0324028134,0.0626320541,0.0064208508,10.4108877182,83.5945129395,-81.2231140137,0.0201244354,0.0244146287,0.0197337866,49.0861053467,35.4364356995,-95.3841629028,0.0553854108,-0.0137636662,-0.0161168575,
336.033,-3.3099327087,1.3801845312,39.1070747375,0.0548481569,0.0450250655,0.0078183413,-112.9742507935,73.4727478027,79.5356063843,0.0314384699,0.0616084635,0.0117967725,10.4394693375,83.5920639038,-81.1887130737,0.0289087296,0.0370465517,0.0255613923,49.0874824524,35.4367561340,-95.3766174316,0.0627140999,-0.0171918869,-0.0087749958,
336.043,-3.3089470863,1.3806750774,39.1082763672,0.0563215576,0.0479375720,0.0092830658,-112.9662933350,73.4721145630,79.5457763672,0.0348532796,0.0606569648,0.0102996826,10.4109592438,83.5907821655,-81.2079544067,0.0254882574,0.0180551410,0.0216231346,49.0856246948,35.4370155334,-95.3724517822,0.0578350425,-0.0181491971,-0.0024460554,
336.053,-3.3067340851,1.3832325935,39.1099700928,0.0578310266,0.0478989594,0.0107457042,-112.9713897705,73.4707565308,79.5418930054,0.0314285755,0.0650626719,0.0025194287,10.4184331894,83.5916976929,-81.1936569214,0.0303728580,0.0229264796,0.0172485113,49.0821876526,35.4349136353,-95.3674468994,0.0665941834,-0.0220395327,-0.0015203953,
336.063,-3.3080074787,1.3821474314,39.1117172241,0.0617183410,0.0401086621,0.0024465919,-112.9670028687,73.4697418213,79.5483474731,0.0260524750,0.0631337464,0.0117830634,10.4080390930,83.5902633667,-81.1950302124,0.0303700566,0.0248951018,0.0289371014,49.0816650391,35.4381065369,-95.3607482910,0.0549208522,-0.0239633918,-0.0200595260,
336.073,-3.3077166080,1.3797005415,39.1117248535,0.0641170517,0.0435216241,0.0063509941,-112.9722366333,73.4674453735,79.5454101563,0.0382480621,0.0631591678,0.0113339424,10.4006948471,83.5909957886,-81.1947860718,0.0220707059,0.0200295150,0.0216268897,49.0815811157,35.4377555847,-95.3522720337,0.0710291266,-0.0171293616,-0.0142034292,
336.083,-3.3041129112,1.3794113398,39.1128768921,0.0611823201,0.0463885479,0.0087894797,-112.9798431396,73.4629592896,79.5417709351,0.0338312387,0.0578420758,0.0030972362,10.4129362106,83.5885467529,-81.1754302979,0.0259721875,0.0253684521,0.0235382318,49.0795936584,35.4372787476,-95.3442153931,0.0680926442,-0.0215089917,-0.0059270859,
336.093,-3.3044080734,1.3796242476,39.1134605408,0.0572797880,0.0434640013,0.0126951337,-112.9781188965,73.4566574097,79.5470809937,0.0337999463,0.0550121963,0.0109427571,10.4128017426,83.5865936279,-81.1678771973,0.0210855603,0.0224335492,0.0303450227,49.0831718445,35.4364929199,-95.3339996338,0.0690580606,-0.0147124529,-0.0132180452,
336.103,-3.3052737713,1.3808604479,39.1133232117,0.0597427636,0.0459204540,0.0048846006,-112.9847030640,73.4532012939,79.5458297729,0.0298765302,0.0613995492,0.0105073452,10.4241094589,83.5853347778,-81.1474914551,0.0279190540,0.0268021822,0.0225155950,49.0845527649,35.4394836426,-95.3247375488,0.0617763400,-0.0264211893,-0.0244137049,
336.113,-3.3046035767,1.3827898502,39.1143875122,0.0597764254,0.0468852930,0.0068374276,-112.9966049194,73.4513397217,79.5416030884,0.0308437943,0.0653131008,0.0076442361,10.4138603210,83.5829544067,-81.1477279663,0.0303558111,0.0194906294,0.0273548961,49.0862236023,35.4406661987,-95.3156051636,0.0608165860,-0.0137324333,-0.0087629557,
336.123,-3.3043527603,1.3821830750,39.1155395508,0.0622072443,0.0454161018,0.0063490272,-113.0283584595,73.4460601807,79.5141601563,0.0327706933,0.0624008775,-0.0068236589,10.4143981934,83.5839920044,-81.1380233765,0.0254750252,0.0214458108,0.0161414742,49.0840873718,35.4384498596,-95.3087158203,0.0725038648,-0.0151942968,-0.0063596964,
336.133,-3.3046329021,1.3824663162,39.1165924072,0.0631887466,0.0415147245,0.0014665127,-113.0440826416,73.4445648193,79.5033035278,0.0356929302,0.0638596416,0.0005822778,10.4158315659,83.5813980103,-81.1279067993,0.0210754275,0.0219232142,0.0287932158,49.0846252441,35.4426460266,-95.3009262085,0.0505908728,-0.0200499296,-0.0092550516,
336.143,-3.3051908016,1.3827182055,39.1171493530,0.0568454899,0.0405478701,0.0034202933,-113.0497512817,73.4445495605,79.5034942627,0.0317866206,0.0575000048,0.0103742480,10.4114551544,83.5811538696,-81.1241989136,0.0235163569,0.0199778676,0.0209750533,49.0871620178,35.4418563843,-95.2920608521,0.0676695108,-0.0137320161,-0.0141163468,
336.153,-3.3057367802,1.3824470043,39.1188888550,0.0631884113,0.0469050445,0.0034207702,-113.0721969604,73.4480056763,79.4873580933,0.0278975368,0.0652161837,0.0016656518,10.3910884857,83.5829544067,-81.1345901489,0.0284026861,0.0131873190,0.0249046683,49.0859527588,35.4425773621,-95.2839431763,0.0613320470,-0.0156682730,-0.0146126747,
336.163,-3.3067882061,1.3840857744,39.1205291748,0.0607755966,0.0430170745,0.0029343367,-113.0757217407,73.4518508911,79.4882965088,0.0293815136,0.0583131909,0.0138638020,10.4118518829,83.5833206177,-81.1052093506,0.0230323076,0.0253548622,0.0278474092,49.0886459351,35.4447250366,-95.2753067017,0.0584329367,-0.0171418786,-0.0155459642,
336.173,-3.3063113689,1.3840723038,39.1210632324,0.0622402057,0.0483798608,0.0087932348,-113.0772628784,73.4525985718,79.4923095703,0.0323149562,0.0582995117,0.0041002035,10.4257936478,83.5842361450,-81.0826034546,0.0259637833,0.0243538320,0.0239610672,49.0895957947,35.4456329346,-95.2663421631,0.0613755584,-0.0210499763,-0.0150415301,
336.183,-3.3082110882,1.3834186792,39.1215820313,0.0622288026,0.0401121825,0.0058647394,-113.0795516968,73.4595489502,79.4938430786,0.0333260298,0.0664889812,0.0040653348,10.4445829391,83.5819778442,-81.0522537231,0.0269359350,0.0291930735,0.0273481607,49.0912628174,35.4448280334,-95.2576065063,0.0677117705,-0.0176537037,-0.0101460814,
336.193,-3.3064754009,1.3822004795,39.1215820313,0.0597661436,0.0464296341,0.0048866868,-113.0635833740,73.4638748169,79.5144500732,0.0269998312,0.0620592535,0.0171474218,10.4335517883,83.5799026489,-81.0554504395,0.0249787569,0.0267667174,0.0190083385,49.0923576355,35.4452438354,-95.2496032715,0.0599051714,-0.0201021433,-0.0081784725,
336.203,-3.3040924072,1.3837317228,39.1221313477,0.0544217639,0.0444349609,0.0000015497,-113.0573577881,73.4654617310,79.5259094238,0.0294491649,0.0596057475,0.0117373466,10.4165096283,83.5799636841,-81.0632095337,0.0254671574,0.0194761157,0.0224222541,49.0903396606,35.4459686279,-95.2427749634,0.0569857955,-0.0254488587,-0.0096601248,
336.213,-3.3054139614,1.3840413094,39.1238327026,0.0612631030,0.0420165695,0.0063509941,-113.0539703369,73.4693145752,79.5358581543,0.0343511105,0.0600413978,0.0097433925,10.3999099731,83.5797119141,-81.0696029663,0.0283963680,0.0243903697,0.0233871937,49.0926666260,35.4453887939,-95.2323684692,0.0608837605,-0.0166859031,-0.0174514055,
336.223,-3.3060364723,1.3874499798,39.1242370605,0.0544866435,0.0381210782,0.0073292255,-113.0472335815,73.4710845947,79.5496520996,0.0304536223,0.0595388412,0.0121425390,10.3890085220,83.5801467896,-81.0694046021,0.0220495462,0.0224599838,0.0253446698,49.0915298462,35.4492073059,-95.2245712280,0.0511724949,-0.0225055218,-0.0120671988,
336.233,-3.3052163124,1.3875482082,39.1272277832,0.0579063222,0.0429896004,0.0043990612,-113.0499267578,73.4692230225,79.5515213013,0.0343506336,0.0556560457,0.0053310990,10.3868713379,83.5819473267,-81.0624084473,0.0293772817,0.0239346325,0.0214684010,49.0936737061,35.4457817078,-95.2163162231,0.0711432695,-0.0113212466,-0.0086489916,
336.243,-3.3049139977,1.3878759146,39.1283798218,0.0588886030,0.0434726141,0.0048872232,-113.0371627808,73.4684753418,79.5685119629,0.0304406881,0.0566689074,0.0179727674,10.3713340759,83.5835647583,-81.0694885254,0.0235210657,0.0210401714,0.0156301856,49.0920715332,35.4469337463,-95.2084426880,0.0589526296,-0.0191099644,-0.0096352100,
336.253,-3.3049137592,1.3887937069,39.1289443970,0.0545100868,0.0424960218,0.0029343963,-113.0354309082,73.4682464600,79.5751113892,0.0270215869,0.0615587234,0.0067358017,10.3861398697,83.5868072510,-81.0467376709,0.0259687901,0.0229743421,0.0161780119,49.0919952393,35.4497642517,-95.1996459961,0.0536217093,-0.0142048597,-0.0140118003,
336.263,-3.3055634499,1.3865590096,39.1301383972,0.0637484416,0.0400659889,0.0097700357,-113.0364303589,73.4642562866,79.5759582520,0.0323728323,0.0572240651,0.0096959472,10.3671197891,83.5882110596,-81.0558700562,0.0240184069,0.0161797702,0.0205889940,49.0919418335,35.4523506165,-95.1929321289,0.0585413575,-0.0215088129,-0.0105773211,
336.273,-3.3075261116,1.3860709667,39.1300163269,0.0637399256,0.0420533158,0.0078188181,-113.0446624756,73.4629287720,79.5710754395,0.0313897133,0.0635753572,0.0038831234,10.3696298599,83.5922470093,-81.0438613892,0.0259793997,0.0288825333,0.0143097043,49.0947799683,35.4521026611,-95.1817779541,0.0629323721,-0.0142129064,-0.0090836287,
336.283,-3.3075234890,1.3888419867,39.1310653687,0.0569523349,0.0444946028,0.0107492208,-113.0508499146,73.4607620239,79.5693283081,0.0289375186,0.0611553192,0.0073435903,10.3834047318,83.5916976929,-81.0196151733,0.0196306705,0.0239712894,0.0167474151,49.0935592651,35.4519042969,-95.1757354736,0.0707420707,-0.0215272903,-0.0130044222,
336.293,-3.3068621159,1.3873424530,39.1328430176,0.0632738322,0.0425300002,0.0053771734,-113.0642166138,73.4584197998,79.5597763062,0.0323438644,0.0601886213,0.0025375485,10.4164199829,83.5942687988,-80.9776535034,0.0279364586,0.0327039063,0.0168022513,49.0910224915,35.4530525208,-95.1680679321,0.0600161552,-0.0210065842,-0.0135123134,
336.303,-3.3088684082,1.3864454031,39.1339797974,0.0608167723,0.0376821607,-0.0009688735,-113.0769119263,73.4563751221,79.5514068604,0.0284274220,0.0577536225,0.0035856962,10.4404582977,83.5959854126,-80.9456329346,0.0230569839,0.0233849585,0.0168391466,49.0916709900,35.4539947510,-95.1603088379,0.0610061288,-0.0210053921,-0.0139870644,
336.313,-3.3091819286,1.3866412640,39.1338691711,0.0613084696,0.0435469821,0.0068440437,-113.0809631348,73.4569015503,79.5509338379,0.0269652009,0.0621339679,0.0138545632,10.4752044678,83.5966644287,-80.9011001587,0.0254997015,0.0286904573,0.0232105255,49.0907897949,35.4505615234,-95.1524047852,0.0756058097,-0.0176054835,-0.0120666027,
336.323,-3.3118541241,1.3883157969,39.1354713440,0.0628025308,0.0416403674,0.0034295917,-113.0846176147,73.4574050903,79.5518341064,0.0284325480,0.0582110286,0.0114268661,10.4718370438,83.5952224731,-80.8951873779,0.0279383063,0.0213683546,0.0241618156,49.0907249451,35.4527626038,-95.1436614990,0.0561057925,-0.0214943886,-0.0140057802,
336.333,-3.3133914471,1.3903585672,39.1352348328,0.0613733307,0.0392256901,0.0097790956,-113.0892639160,73.4578781128,79.5517349243,0.0294114351,0.0581964552,0.0080268979,10.4695549011,83.5939636230,-80.8876037598,0.0279358625,0.0218573213,0.0212110281,49.0927009583,35.4546546936,-95.1351242065,0.0585740805,-0.0200334191,-0.0144602060,
336.343,-3.3111577034,1.3916908503,39.1357078552,0.0618848577,0.0523703396,0.0107546449,-113.0971069336,73.4560394287,79.5501861572,0.0269609094,0.0577197373,0.0036805868,10.4693794250,83.5940856934,-80.8793487549,0.0230532885,0.0257642269,0.0217008591,49.0915832520,35.4542198181,-95.1293106079,0.0639390349,-0.0092841387,0.0031029582,
336.353,-3.3108055592,1.3916424513,39.1350898743,0.0574894808,0.0460165478,-0.0014532208,-113.1084289551,73.4566345215,79.5450515747,0.0230576396,0.0615945160,-0.0011542439,10.4671068192,83.5937194824,-80.8730239868,0.0303767920,0.0228378475,0.0202291608,49.0908432007,35.4531173706,-95.1226882935,0.0653882027,-0.0166099072,-0.0061895847,
336.363,-3.3092169762,1.3933258057,39.1361885071,0.0584954135,0.0479419641,0.0068466663,-113.1141586304,73.4572601318,79.5436019897,0.0274552703,0.0610855520,0.0091220737,10.4515123367,83.5933837891,-80.8799819946,0.0293995738,0.0199374855,0.0275420547,49.0916900635,35.4515876770,-95.1144256592,0.0673195124,-0.0117467046,-0.0086320043,
336.373,-3.3089563847,1.3963457346,39.1360588074,0.0536652952,0.0454959422,0.0102658868,-113.1198043823,73.4565429688,79.5419158936,0.0342876315,0.0605973005,0.0057346225,10.4348440170,83.5928039551,-80.8898086548,0.0284218788,0.0189916193,0.0265498757,49.0901679993,35.4495010376,-95.1082687378,0.0687546730,-0.0176078081,-0.0076853633,
336.383,-3.3093576431,1.3966592550,39.1366119385,0.0566004515,0.0411083922,0.0024539828,-113.1129150391,73.4566955566,79.5520782471,0.0318470001,0.0562135577,0.0110729337,10.4134273529,83.5936279297,-80.9052047729,0.0254938006,0.0224537849,0.0206961632,49.0862998962,35.4461860657,-95.1035156250,0.0682193637,-0.0156439543,-0.0009130239,
336.393,-3.3081095219,1.3967416286,39.1384353638,0.0575784519,0.0488991514,0.0000112653,-113.1112976074,73.4556427002,79.5580062866,0.0294003487,0.0596514940,0.0052131414,10.4212245941,83.5937194824,-80.8906707764,0.0245174170,0.0239036083,0.0211881399,49.0850982666,35.4484596252,-95.0978469849,0.0594626069,-0.0244044065,-0.0101882219,
336.403,-3.3093690872,1.3984625340,39.1383018494,0.0580967590,0.0445265137,0.0063610077,-113.1155319214,73.4535293579,79.5583724976,0.0298781395,0.0586989224,0.0052463412,10.4016275406,83.5927658081,-80.9021835327,0.0298866630,0.0205212533,0.0231206417,49.0844573975,35.4488639832,-95.0908813477,0.0589800477,-0.0151181221,-0.0140991211,
336.413,-3.3093171120,1.3983678818,39.1389122009,0.0585833900,0.0489201471,0.0195444822,-113.1150283813,73.4545364380,79.5624542236,0.0303714275,0.0650318563,0.0150030851,10.3974199295,83.5927047729,-80.8984985352,0.0240271688,0.0219940543,0.0245824456,49.0868301392,35.4468917847,-95.0825119019,0.0652996302,-0.0146669149,-0.0126211643,
336.423,-3.3111248016,1.3992444277,39.1412086487,0.0615283698,0.0445570797,0.0058747530,-113.1360244751,73.4516220093,79.5486907959,0.0332866311,0.0601531267,0.0043762922,10.3957576752,83.5923690796,-80.8922042847,0.0264679193,0.0210193098,0.0211557746,49.0875701904,35.4417037964,-95.0721969604,0.0847571492,-0.0161784291,-0.0087419748,
336.433,-3.3129537106,1.3995931149,39.1435546875,0.0590930469,0.0401943997,0.0058767200,-113.1691665649,73.4460525513,79.5242691040,0.0337471962,0.0582206249,-0.0066654682,10.4072465897,83.5910263062,-80.8707885742,0.0206059217,0.0253876448,0.0255340338,49.0849952698,35.4399490356,-95.0660171509,0.0681306124,-0.0254451632,-0.0087810755,
336.443,-3.3115804195,1.3991802931,39.1447067261,0.0615272522,0.0450533032,0.0063633919,-113.2011566162,73.4376983643,79.5013046265,0.0337056518,0.0573092997,0.0057431459,10.4056415558,83.5885162354,-80.8606643677,0.0293900967,0.0214767754,0.0230497718,49.0868911743,35.4405670166,-95.0584869385,0.0622800589,-0.0108096600,-0.0092446804,
336.453,-3.3125929832,1.3959869146,39.1459579468,0.0648895055,0.0431178920,0.0078279972,-113.2315139771,73.4309997559,79.4792404175,0.0258598328,0.0583288372,0.0078796744,10.4219875336,83.5910263062,-80.8350830078,0.0250004530,0.0224291980,0.0143086910,49.0872459412,35.4393539429,-95.0491104126,0.0681221485,-0.0142402649,-0.0112023354,
336.463,-3.3133721352,1.3967957497,39.1483078003,0.0575793944,0.0416666046,0.0088055730,-113.2661361694,73.4224395752,79.4515304565,0.0321648717,0.0539972484,0.0051652789,10.4229650497,83.5911483765,-80.8248672485,0.0279303789,0.0199862719,0.0187056065,49.0852012634,35.4394683838,-95.0404815674,0.0607995987,-0.0249624252,-0.0068287849,
336.473,-3.3135445118,1.3954864740,39.1475219727,0.0707401484,0.0441110395,0.0068523288,-113.3079681396,73.4138946533,79.4159851074,0.0262629390,0.0579519272,-0.0048402548,10.4361019135,83.5876083374,-80.8005828857,0.0289000273,0.0233675838,0.0235330462,49.0853767395,35.4414253235,-95.0311965942,0.0583860278,-0.0142070055,-0.0170680285,
336.483,-3.3127338886,1.3950593472,39.1492156982,0.0663381666,0.0450734980,0.0151519775,-113.3229522705,73.4059066772,79.4037170410,0.0223168731,0.0497435629,0.0104179978,10.4480752945,83.5877532959,-80.7830047607,0.0254823565,0.0228564739,0.0225636363,49.0856895447,35.4398536682,-95.0239334106,0.0691058040,-0.0132453442,-0.0102390647,
336.493,-3.3099856377,1.3936711550,39.1522331238,0.0628959686,0.0455139391,-0.0009647012,-113.3258590698,73.3976211548,79.3998184204,0.0364357233,0.0508413911,0.0085330009,10.4615201950,83.5888290405,-80.7616729736,0.0279258490,0.0257632136,0.0211213231,49.0852622986,35.4404411316,-95.0181884766,0.0666728020,-0.0249555707,-0.0146341920,
336.503,-3.3087933064,1.3950235844,39.1521682739,0.0551070683,0.0445165783,0.0063588619,-113.3310546875,73.3932037354,79.3934097290,0.0251832604,0.0635940433,0.0080977082,10.4649419785,83.5917663574,-80.7491455078,0.0274432898,0.0233242214,0.0114062428,49.0856018066,35.4383964539,-95.0120239258,0.0695734024,-0.0152087808,-0.0122026205,
336.513,-3.3098440170,1.3936932087,39.1532745361,0.0648494810,0.0386755392,0.0092891455,-113.3248214722,73.3906784058,79.3971633911,0.0222409368,0.0670627654,0.0154100060,10.4674911499,83.5902023315,-80.7403793335,0.0220691562,0.0228261352,0.0294473171,49.0862998962,35.4388732910,-95.0050506592,0.0578615069,-0.0215591788,-0.0170747638,
336.523,-3.3073065281,1.3941525221,39.1526489258,0.0585098416,0.0513266325,0.0185641646,-113.3200149536,73.3866500854,79.4020767212,0.0344278812,0.0602980852,0.0115082264,10.4647417068,83.5891265869,-80.7364044189,0.0206022263,0.0228282511,0.0240575075,49.0892295837,35.4389381409,-94.9977188110,0.0661631823,-0.0171915293,-0.0175314546,
336.533,-3.3090193272,1.3954806328,39.1530799866,0.0595095754,0.0386611260,0.0039179325,-113.3386840820,73.3827972412,79.3871994019,0.0270844102,0.0627616644,0.0013657212,10.4731664658,83.5880889893,-80.7236251831,0.0269478559,0.0237850845,0.0225779414,49.0897026062,35.4391784668,-94.9914627075,0.0612837076,-0.0157293081,-0.0131299496,
336.543,-3.3082079887,1.3966472149,39.1548309326,0.0561119616,0.0430414937,0.0058708191,-113.3513031006,73.3802566528,79.3807525635,0.0319545269,0.0666821301,0.0092530251,10.4925088882,83.5875091553,-80.6988601685,0.0259701610,0.0281400979,0.0181805491,49.0897216797,35.4383201599,-94.9839935303,0.0705488920,-0.0137829185,-0.0116707683,
336.553,-3.3063650131,1.3972167969,39.1566429138,0.0561219007,0.0444742218,0.0078214407,-113.3692398071,73.3720092773,79.3711013794,0.0319133997,0.0565185845,-0.0013522506,10.4931201935,83.5843582153,-80.6896286011,0.0269405842,0.0237345397,0.0234986544,49.0904922485,35.4401092529,-94.9764709473,0.0603203773,-0.0211006403,-0.0121388435,
336.563,-3.3051967621,1.3974744081,39.1583747864,0.0614974871,0.0464069918,0.0078211427,-113.3660430908,73.3660125732,79.3808517456,0.0274888873,0.0590582788,0.0167391300,10.4701633453,83.5817642212,-80.7032699585,0.0279120803,0.0208418071,0.0312607884,49.0929298401,35.4459533691,-94.9675216675,0.0560089946,-0.0191255212,-0.0213513374,
336.573,-3.3036534786,1.3964909315,39.1582565308,0.0678279847,0.0478449762,0.0127018690,-113.3663101196,73.3573989868,79.3834228516,0.0279341340,0.0538183749,0.0109379888,10.4795589447,83.5834732056,-80.6859207153,0.0259622931,0.0218053162,0.0132262707,49.0951042175,35.4426116943,-94.9606781006,0.0686567426,-0.0098940134,-0.0120726824,
336.583,-3.3039538860,1.3968641758,39.1587638855,0.0609985590,0.0434556715,0.0122143030,-113.3527297974,73.3486557007,79.3964080811,0.0278903842,0.0534910262,0.0138629079,10.4778242111,83.5829544067,-80.6800918579,0.0318206549,0.0164360404,0.0205414295,49.0938301086,35.4397163391,-94.9529724121,0.0715453029,-0.0157636404,-0.0057578683,
336.593,-3.3029465675,1.3969702721,39.1598930359,0.0619769730,0.0458795242,0.0097718835,-113.3337707520,73.3444137573,79.4095458984,0.0293340087,0.0574994683,0.0118505359,10.4541101456,83.5851516724,-80.6960067749,0.0249890089,0.0194185078,0.0186146498,49.0959663391,35.4350547791,-94.9447631836,0.0739204288,-0.0128894448,-0.0101603270,
336.603,-3.3036520481,1.3976039886,39.1622581482,0.0580817796,0.0419855490,0.0053778887,-113.3065567017,73.3436813354,79.4316329956,0.0215178728,0.0590296090,0.0175891519,10.4540777206,83.5848541260,-80.6880187988,0.0249884129,0.0277189314,0.0200779438,49.0968856812,35.4303970337,-94.9368591309,0.0743424892,-0.0104922056,-0.0057867765,
336.613,-3.3048956394,1.3998361826,39.1614875793,0.0561676025,0.0424954407,0.0058690310,-113.2747802734,73.3479003906,79.4597778320,0.0269100666,0.0712355971,0.0154616237,10.4333591461,83.5858917236,-80.6998901367,0.0225490332,0.0219024718,0.0166652203,49.0947799683,35.4315986633,-94.9300460815,0.0587345362,-0.0260884166,-0.0131256580,
336.623,-3.3061666489,1.3983352184,39.1626930237,0.0629773512,0.0444707386,0.0004976392,-113.2543334961,73.3531112671,79.4832077026,0.0254712701,0.0677771866,0.0104503632,10.4161205292,83.5876083374,-80.7078323364,0.0264586210,0.0224301815,0.0205976963,49.0952262878,35.4274597168,-94.9224395752,0.0713709593,-0.0139172077,-0.0038709641,
336.633,-3.3037297726,1.3977956772,39.1645431519,0.0556437150,0.0444283038,0.0053786039,-113.2336196899,73.3571319580,79.5136260986,0.0333038568,0.0648276806,0.0073987246,10.4176006317,83.5915832520,-80.6957473755,0.0269546509,0.0248804688,0.0128488541,49.0937271118,35.4296150208,-94.9131240845,0.0552884340,-0.0221874714,-0.0116851926,
336.643,-3.3034963608,1.3975751400,39.1662902832,0.0610109642,0.0410062745,0.0073309541,-113.2187500000,73.3670578003,79.5420455933,0.0279824138,0.0705639422,0.0131242871,10.4303998947,83.5905685425,-80.6741104126,0.0274409652,0.0248529017,0.0211408138,49.0911560059,35.4304313660,-94.9069290161,0.0587179661,-0.0260636806,-0.0058484674,
336.653,-3.3037810326,1.3962113857,39.1686897278,0.0609871671,0.0390581489,0.0112370849,-113.2290267944,73.3821258545,79.5464401245,0.0280576348,0.0708012581,0.0023303628,10.4117603302,83.5907821655,-80.6842193604,0.0249999762,0.0165887475,0.0206469297,49.0909805298,35.4291305542,-94.8985900879,0.0650471449,-0.0172827840,-0.0078116655,
336.663,-3.3044786453,1.3977812529,39.1715202332,0.0615028404,0.0376054123,0.0097736716,-113.2507400513,73.3998641968,79.5392227173,0.0271695852,0.0646272302,0.0037782788,10.4231052399,83.5896224976,-80.6622009277,0.0220680237,0.0253526866,0.0264947414,49.0905876160,35.4310073853,-94.8892822266,0.0587261319,-0.0211710930,-0.0102449059,
336.673,-3.3029198647,1.3997483253,39.1720085144,0.0551895052,0.0414844602,0.0053784847,-113.2750930786,73.4203338623,79.5298538208,0.0253184438,0.0652417541,0.0032673478,10.4256610870,83.5894317627,-80.6500625610,0.0215793848,0.0214401782,0.0255110860,49.0926666260,35.4324188232,-94.8795928955,0.0650938749,-0.0216678977,-0.0160727501,
336.683,-3.3026742935,1.3988697529,39.1732025146,0.0610335544,0.0453864597,0.0068426728,-113.2927246094,73.4378433228,79.5294494629,0.0268704295,0.0610332787,0.0032325387,10.4420785904,83.5895614624,-80.6210937500,0.0259741545,0.0228738785,0.0191747546,49.0929412842,35.4338340759,-94.8704910278,0.0656023026,-0.0167769194,-0.0106891394,
336.693,-3.3019580841,1.3988940716,39.1749763489,0.0581042916,0.0404911637,0.0102599859,-113.3095703125,73.4519958496,79.5320434570,0.0279173851,0.0539464653,0.0017517209,10.4431104660,83.5863113403,-80.6083984375,0.0235264301,0.0253032446,0.0303510427,49.0947074890,35.4331245422,-94.8617553711,0.0655921698,-0.0158222318,-0.0155578852,
336.703,-3.3025496006,1.3980822563,39.1767272949,0.0629729331,0.0424546152,0.0044008493,-113.3142089844,73.4618911743,79.5451812744,0.0304079652,0.0493919849,0.0056137443,10.4524269104,83.5841522217,-80.5867919922,0.0235221982,0.0218600035,0.0244560838,49.0954093933,35.4302749634,-94.8525466919,0.0748290420,-0.0153622627,-0.0145926476,
336.713,-3.3013961315,1.3999956846,39.1771697998,0.0595883541,0.0443875976,0.0034239292,-113.3215103149,73.4629974365,79.5546875000,0.0333431363,0.0513137579,-0.0007076859,10.4566192627,83.5800247192,-80.5718994141,0.0249789953,0.0223276615,0.0346444249,49.0960464478,35.4283447266,-94.8408279419,0.0713835359,-0.0109883547,-0.0092273951,
336.723,-3.2981221676,1.3995413780,39.1771812439,0.0590921491,0.0497016720,0.0004907250,-113.3417282104,73.4558486938,79.5478973389,0.0357490182,0.0469889045,-0.0074037910,10.4549198151,83.5786132813,-80.5637359619,0.0264410973,0.0223265290,0.0263188481,49.0950546265,35.4291992188,-94.8329696655,0.0591887236,-0.0217148066,-0.0087441206,
336.733,-3.2988898754,1.4003148079,39.1764183044,0.0615470484,0.0419025272,0.0136753917,-113.3721847534,73.4394989014,79.5303802490,0.0381091833,0.0481553376,-0.0144805312,10.4491319656,83.5783691406,-80.5609054565,0.0215578079,0.0218488276,0.0233831406,49.0924072266,35.4318046570,-94.8267059326,0.0577609539,-0.0255764127,-0.0048490763,
336.743,-3.2972879410,1.4025864601,39.1775054932,0.0542624667,0.0394331627,0.0058622360,-113.3845520020,73.4195327759,79.5293579102,0.0389863253,0.0494127572,0.0062162876,10.4538946152,83.5786514282,-80.5486679077,0.0244880319,0.0228172243,0.0224148035,49.0914421082,35.4325370789,-94.8201675415,0.0650955439,-0.0211673379,-0.0092490315,
336.753,-3.2964179516,1.4014368057,39.1793441772,0.0620549023,0.0496719480,0.0053726435,-113.3829345703,73.3986511230,79.5388946533,0.0247220993,0.0516889691,0.0107416511,10.4588994980,83.5797119141,-80.5363540649,0.0220487118,0.0164625049,0.0190123916,49.0935058594,35.4311447144,-94.8122634888,0.0709351301,-0.0177792311,-0.0116775632,
336.763,-3.2963411808,1.4013100863,39.1798973083,0.0605878532,0.0447877981,0.0117201209,-113.3509750366,73.3822937012,79.5768508911,0.0265936255,0.0593278110,0.0238863826,10.4759378433,83.5791702271,-80.5116806030,0.0244890451,0.0237523913,0.0175487399,49.0899238586,35.4326629639,-94.8064117432,0.0650973320,-0.0157811046,-0.0024287701,
336.773,-3.2949621677,1.4004783630,39.1822280884,0.0654561520,0.0428106673,0.0083003044,-113.3059921265,73.3739929199,79.6256790161,0.0206928253,0.0668675900,0.0125037432,10.4580583572,83.5821304321,-80.5236816406,0.0274245143,0.0203780532,0.0156359673,49.0897026062,35.4364013672,-94.7998504639,0.0539200902,-0.0255161524,-0.0136368275,
336.783,-3.2938401699,1.3998557329,39.1834602356,0.0600741953,0.0506036431,0.0048810840,-113.2162017822,73.3743438721,79.7143173218,0.0153234601,0.0626447499,0.0262483358,10.4691143036,83.5843582153,-80.5071258545,0.0201046467,0.0276879072,0.0225153565,49.0916671753,35.4373741150,-94.7920761108,0.0558869839,-0.0152731538,-0.0126327276,
336.793,-3.2938883305,1.3993963003,39.1846008301,0.0615310222,0.0423037075,0.0019512177,-113.1029052734,73.3831787109,79.8289642334,0.0168324113,0.0671268702,0.0276214480,10.4194078445,83.5845413208,-80.5508270264,0.0240112543,0.0204612315,0.0312895179,49.0928916931,35.4359817505,-94.7833633423,0.0651445389,-0.0231076479,-0.0126286745,
336.803,-3.2940919399,1.3979982138,39.1851043701,0.0649245977,0.0374244787,0.0082984567,-112.9894027710,73.3925552368,79.9513854980,0.0295745134,0.0667168200,0.0197130442,10.3834590912,83.5836257935,-80.5825576782,0.0240094662,0.0215050280,0.0278428793,49.0916671753,35.4342765808,-94.7753067017,0.0636554360,-0.0182264447,-0.0038638115,
336.813,-3.2956991196,1.4014662504,39.1867561340,0.0522897951,0.0389172286,0.0039071441,-112.8675537109,73.4072113037,80.0913925171,0.0384366512,0.0725874007,0.0141735077,10.3643026352,83.5845413208,-80.5944366455,0.0279175043,0.0215452015,0.0239449143,49.0931320190,35.4319801331,-94.7674560547,0.0724118352,-0.0192341805,-0.0131407976,
336.823,-3.2959256172,1.3985631466,39.1874427795,0.0615164861,0.0438040569,0.0053710938,-112.7413635254,73.4186706543,80.2455368042,0.0340992212,0.0648434162,0.0115644932,10.3409557343,83.5875396729,-80.6099700928,0.0249936581,0.0211115479,0.0156855583,49.0919952393,35.4328117371,-94.7600555420,0.0597283840,-0.0201938152,-0.0146123171,
336.833,-3.2942712307,1.4007601738,39.1897087097,0.0591134131,0.0437751859,0.0078116655,-112.6149215698,73.4317932129,80.4074249268,0.0370942354,0.0683018863,0.0211510658,10.3329038620,83.5879364014,-80.6083145142,0.0259709954,0.0250347257,0.0249667168,49.0935707092,35.4307556152,-94.7492218018,0.0733710527,-0.0119234324,-0.0111911297,
336.843,-3.2938566208,1.4017727375,39.1901702881,0.0605959222,0.0418148153,0.0034167767,-112.4968414307,73.4389419556,80.5671997070,0.0400595069,0.0596290827,0.0073771477,10.3420839310,83.5883941650,-80.5884246826,0.0259718895,0.0172059834,0.0210731030,49.0951042175,35.4326133728,-94.7410888672,0.0690028667,-0.0148532391,-0.0121390820,
336.853,-3.2956771851,1.3997857571,39.1906852722,0.0669089109,0.0403817371,0.0063477755,-112.3716735840,73.4461975098,80.7307510376,0.0410721302,0.0592666268,0.0111480355,10.3771982193,83.5865936279,-80.5428695679,0.0249918103,0.0244557858,0.0234941244,49.0958023071,35.4369392395,-94.7327651978,0.0573456287,-0.0158032179,-0.0145440102,
336.863,-3.2950580120,1.3991717100,39.1906585693,0.0595739782,0.0447654948,-0.0014656782,-112.2379760742,73.4556503296,80.8964538574,0.0235410333,0.0535137355,0.0055881739,10.3903751373,83.5857315063,-80.5188446045,0.0240135789,0.0195451677,0.0229998231,49.0947494507,35.4378929138,-94.7265701294,0.0676131248,-0.0152978897,-0.0111315250,
336.873,-3.2946686745,1.3961374760,39.1918830872,0.0663569719,0.0437822305,0.0048803091,-112.0903396606,73.4759826660,81.0695571899,0.0231537223,0.0666604340,0.0135676861,10.4128561020,83.5856170654,-80.4879760742,0.0215719342,0.0243830383,0.0239774585,49.0961875916,35.4367332458,-94.7150650024,0.0724794865,-0.0128787160,-0.0125882626,
336.883,-3.2918481827,1.3962476254,39.1917495728,0.0639174879,0.0437330902,0.0112252831,-111.9332046509,73.5041580200,81.2476196289,0.0237817764,0.0694468915,0.0131545663,10.4509706497,83.5858306885,-80.4392547607,0.0171778202,0.0287044048,0.0186272860,49.0947532654,35.4382972717,-94.7080612183,0.0622478127,-0.0201776028,-0.0077103376,
336.893,-3.2916669846,1.3932180405,39.1935882568,0.0663060397,0.0451948568,0.0009697676,-111.7650222778,73.5423126221,81.4335479736,0.0239706635,0.0716078579,0.0199545622,10.4453983307,83.5880279541,-80.4352569580,0.0245063305,0.0228624642,0.0171955824,49.0934791565,35.4355468750,-94.7006530762,0.0705094337,-0.0123742223,-0.0004180670,
336.903,-3.2905626297,1.3924463987,39.1954116821,0.0609214753,0.0461521968,0.0107336044,-111.5789642334,73.5873794556,81.6473999023,0.0320056677,0.0775960684,0.0246793032,10.4242439270,83.5879364014,-80.4461441040,0.0254827142,0.0268097818,0.0274411440,49.0947227478,35.4372863770,-94.6917877197,0.0612568855,-0.0177435875,-0.0140650868,
336.913,-3.2920846939,1.3925472498,39.1970558167,0.0618997961,0.0349482447,0.0038999915,-111.3842849731,73.6285476685,81.8816375732,0.0356264114,0.0724252164,0.0147430301,10.4100608826,83.5869293213,-80.4480056763,0.0245041847,0.0224398971,0.0215604305,49.0953712463,35.4354171753,-94.6807632446,0.0739255548,-0.0128811598,-0.0130939484,
336.923,-3.2905237675,1.3963696957,39.1986770630,0.0575719625,0.0456631407,0.0073169470,-111.1852569580,73.6640396118,82.1327896118,0.0362890959,0.0663696527,0.0160543919,10.3896770477,83.5841751099,-80.4542999268,0.0323113203,0.0214946270,0.0224834681,49.0931091309,35.4382591248,-94.6710052490,0.0583410263,-0.0162563324,-0.0043103099,
336.933,-3.2907829285,1.3948882818,39.2010917664,0.0614523664,0.0412731692,0.0126884580,-110.9726104736,73.6950531006,82.4086761475,0.0281404257,0.0618672967,0.0148915648,10.3692598343,83.5836563110,-80.4599914551,0.0288923383,0.0205562711,0.0239320397,49.0920295715,35.4400558472,-94.6616821289,0.0593430996,-0.0176972747,-0.0033334494,
336.943,-3.2927899361,1.3938678503,39.2010726929,0.0589931533,0.0398433059,0.0024357438,-110.7386779785,73.7124404907,82.7153930664,0.0345732570,0.0502862930,0.0137133598,10.3543272018,83.5856475830,-80.4590377808,0.0264548063,0.0196149051,0.0176121593,49.0937423706,35.4389076233,-94.6493453979,0.0681158900,-0.0123509765,-0.0077171326,
336.953,-3.2917268276,1.3922247887,39.2010841370,0.0614058934,0.0461724810,0.0092706680,-110.4994659424,73.7194824219,83.0240478516,0.0316780210,0.0383812785,0.0028067231,10.3560991287,83.5858535767,-80.4413223267,0.0240138173,0.0230300128,0.0268933177,49.0947494507,35.4372787476,-94.6360092163,0.0710224509,-0.0138375759,-0.0052758455,
336.963,-3.2919533253,1.3921504021,39.2004051208,0.0599397495,0.0417818986,0.0053641200,-110.2446670532,73.7187576294,83.3381195068,0.0297213793,0.0354095995,0.0026143193,10.3284626007,83.5915832520,-80.4561462402,0.0230484009,0.0177303553,0.0172140002,49.0936622620,35.4354515076,-94.6240692139,0.0578128099,-0.0167711973,-0.0009051561,
336.973,-3.2919678688,1.3886653185,39.2016792297,0.0657383204,0.0466650501,0.0034095049,-109.9795227051,73.7117233276,83.6527557373,0.0389642715,0.0354778767,0.0014318228,10.2829446793,83.5945129395,-80.4888381958,0.0240306854,0.0188046992,0.0275018215,49.0901451111,35.4333419800,-94.6149673462,0.0612007976,-0.0211490393,-0.0038864613,
336.983,-3.2923662663,1.3873503208,39.2010383606,0.0622974038,0.0432540514,0.0097569823,-109.7056579590,73.7021408081,83.9645309448,0.0335462689,0.0385260880,0.0021731853,10.2177047729,83.5981292725,-80.5432586670,0.0264791250,0.0184544623,0.0265626311,49.0895690918,35.4318237305,-94.6043090820,0.0538549423,-0.0250616074,-0.0082976818,
336.993,-3.2942173481,1.3869767189,39.2034263611,0.0593611971,0.0423097424,0.0024347305,-109.4213562012,73.6943054199,84.2799911499,0.0339961648,0.0444873273,0.0062708259,10.1386280060,83.6032104492,-80.6141357422,0.0284421444,0.0176468492,0.0271060467,49.0912437439,35.4261131287,-94.5933456421,0.0679339170,-0.0143786073,-0.0102704167,
337.003,-3.2932310104,1.3865913153,39.2039642334,0.0613076016,0.0437574126,0.0063397884,-109.1356124878,73.6852645874,84.5939025879,0.0407877564,0.0524168611,0.0069470406,10.0990591049,83.6067733765,-80.6476745605,0.0260076523,0.0221295953,0.0183665752,49.0902137756,35.4237327576,-94.5856933594,0.0595992804,-0.0192700624,-0.0102972984,
337.013,-3.2934148312,1.3882659674,39.2050361633,0.0564540066,0.0374129228,0.0092704296,-108.8356933594,73.6689682007,84.9194259644,0.0402195454,0.0516888201,0.0144283175,10.0522994995,83.6103897095,-80.6888809204,0.0274795294,0.0236955881,0.0198714733,49.0900764465,35.4157257080,-94.5778808594,0.0785283446,-0.0154237747,-0.0113282800,
337.023,-3.2919282913,1.3891834021,39.2055778503,0.0589114167,0.0476409122,0.0068274140,-108.5620346069,73.6546554565,85.2232284546,0.0445438027,0.0630874634,0.0024856329,10.0157585144,83.6127853394,-80.7173461914,0.0279724598,0.0184031427,0.0174609423,49.0900650024,35.4137878418,-94.5688095093,0.0667819977,-0.0212978125,-0.0098763704,
337.033,-3.2935817242,1.3868854046,39.2055892944,0.0618010089,0.0408338271,0.0161061287,-108.3106307983,73.6359634399,85.5084304810,0.0439636707,0.0637747943,0.0023844242,9.9607210159,83.6116790771,-80.7638626099,0.0260171890,0.0180186927,0.0310955048,49.0926361084,35.4154357910,-94.5599822998,0.0594812632,-0.0227740407,-0.0191152692,
337.043,-3.2948186398,1.3881385326,39.2054023743,0.0618228763,0.0403670631,0.0048764348,-108.0747222900,73.6148452759,85.7794723511,0.0463011861,0.0576363802,-0.0015418530,9.9537220001,83.6133422852,-80.7642288208,0.0289500952,0.0234082937,0.0184256434,49.0942878723,35.4147491455,-94.5512542725,0.0716784596,-0.0193767548,-0.0181255341,
337.053,-3.2923786640,1.3883650303,39.2058563232,0.0637799501,0.0422776826,0.0151286125,-107.8502426147,73.5889739990,86.0399169922,0.0500799417,0.0554591417,-0.0024645329,9.9607162476,83.6154251099,-80.7488861084,0.0294424295,0.0209588110,0.0145524144,49.0935707092,35.4157791138,-94.5445861816,0.0633923411,-0.0203387141,-0.0127551556,
337.063,-3.2930099964,1.3891977072,39.2063560486,0.0593999475,0.0422886610,0.0126882792,-107.6255493164,73.5630645752,86.3056182861,0.0431161523,0.0591387749,0.0068612099,9.9849729538,83.6118621826,-80.7163009644,0.0279706717,0.0262727439,0.0267117620,49.0932312012,35.4203262329,-94.5379409790,0.0546680093,-0.0188359022,-0.0068693161,
337.073,-3.2929263115,1.3899466991,39.2068557739,0.0594130196,0.0427754670,0.0043876171,-107.3850250244,73.5363845825,86.5889587402,0.0376132131,0.0594326854,0.0082988143,10.0045747757,83.6099624634,-80.6905899048,0.0211310387,0.0232990086,0.0257079601,49.0953521729,35.4258460999,-94.5276718140,0.0557230711,-0.0129541159,-0.0102279186,
337.083,-3.2933762074,1.3911048174,39.2079811096,0.0560152605,0.0408301465,0.0058536530,-107.1310195923,73.5050964355,86.8916473389,0.0355051756,0.0559107065,0.0057834983,10.0324916840,83.6086120605,-80.6555709839,0.0201518536,0.0242176950,0.0266748071,49.0948715210,35.4280471802,-94.5199737549,0.0645434260,-0.0124445558,-0.0038709641,
337.093,-3.2931180000,1.3906747103,39.2091026306,0.0618671253,0.0388725363,0.0141538978,-106.8682785034,73.4667968750,87.2080917358,0.0362917185,0.0554388762,0.0110668540,10.0426216125,83.6108551025,-80.6387786865,0.0274804235,0.0193214715,0.0159711242,49.0928993225,35.4307937622,-94.5142211914,0.0631176829,-0.0158231258,-0.0048505068,
337.103,-3.2904229164,1.3911577463,39.2102508545,0.0584575832,0.0432201102,0.0082915425,-106.5692214966,73.4271163940,87.5655059814,0.0297467709,0.0560112596,0.0244770050,10.0657701492,83.6130599976,-80.6057968140,0.0191839337,0.0236774981,0.0199221969,49.0918807983,35.4349861145,-94.5079574585,0.0529233813,-0.0128519535,-0.0058102608,
337.113,-3.2894454002,1.3923503160,39.2107467651,0.0579901114,0.0436913334,0.0082917809,-106.2525177002,73.3815383911,87.9464797974,0.0314726830,0.0527920425,0.0178009868,10.0529117584,83.6124801636,-80.6100616455,0.0250421762,0.0212594569,0.0223499537,49.0938072205,35.4345321655,-94.4972610474,0.0680536032,-0.0099436641,-0.0150699615,
337.123,-3.2903380394,1.3954529762,39.2130775452,0.0516965911,0.0412653945,0.0092702508,-105.9097213745,73.3267288208,88.3538436890,0.0326634645,0.0507271588,0.0198196769,10.0269947052,83.6166534424,-80.6263198853,0.0270034075,0.0242522359,0.0194833875,49.0938224792,35.4315490723,-94.4849700928,0.0694760680,-0.0168024898,-0.0092298388,
337.133,-3.2888092995,1.3968936205,39.2136039734,0.0570928231,0.0456332713,0.0073161125,-105.5519638062,73.2712707520,88.7773742676,0.0323852897,0.0501507223,0.0144308805,10.0031747818,83.6184997559,-80.6426391602,0.0240772963,0.0301629901,0.0263395309,49.0952415466,35.4323196411,-94.4754028320,0.0592331290,-0.0197395682,-0.0145806074,
337.143,-3.2902235985,1.3962422609,39.2154197693,0.0580580235,0.0417516716,0.0019462109,-105.1578750610,73.2178802490,89.2328033447,0.0335815549,0.0529991388,0.0205602050,9.9696311951,83.6263351440,-80.6660842896,0.0201862454,0.0239039063,0.0108364224,49.0950469971,35.4304122925,-94.4669647217,0.0538349152,-0.0231702328,-0.0058063865,
337.153,-3.2888836861,1.3967947960,39.2165336609,0.0605090633,0.0427048765,0.0126872063,-104.7643432617,73.1678466797,89.6871719360,0.0377235413,0.0635944605,0.0071316361,9.8928880692,83.6344299316,-80.7342834473,0.0206902027,0.0216349065,0.0241274834,49.0972900391,35.4241485596,-94.4570770264,0.0742536187,-0.0188446045,-0.0107066631,
337.163,-3.2877645493,1.3954612017,39.2183647156,0.0604857989,0.0441502593,0.0034082532,-104.3499298096,73.1262664795,90.1617507935,0.0428842902,0.0691863298,0.0140584111,9.8481149673,83.6414642334,-80.7716751099,0.0246100426,0.0188130736,0.0134921670,49.0984115601,35.4209480286,-94.4479141235,0.0566300154,-0.0183911324,-0.0097392797,
337.173,-3.2892084122,1.3973985910,39.2193946838,0.0595430396,0.0417339578,0.0009692311,-103.9325790405,73.0871734619,90.6435394287,0.0509867668,0.0678933561,0.0180174708,9.7986717224,83.6454696655,-80.8143844604,0.0216881037,0.0233144164,0.0193976760,49.0981140137,35.4188995361,-94.4387435913,0.0585539341,-0.0184041262,-0.0087794065,
337.183,-3.2872059345,1.3948452473,39.2193679810,0.0687758327,0.0495116413,0.0063372850,-103.5133819580,73.0480804443,91.1304244995,0.0449286699,0.0641478300,0.0170718431,9.7526206970,83.6489257813,-80.8530807495,0.0236479044,0.0204843879,0.0213969946,49.0997276306,35.4135169983,-94.4305496216,0.0765438080,-0.0199251175,-0.0102627277,
337.193,-3.2888920307,1.3948347569,39.2192344666,0.0619397126,0.0387988240,0.0043858290,-103.1069488525,73.0113067627,91.6076507568,0.0452296138,0.0686379969,0.0142147541,9.7072772980,83.6491470337,-80.8899917603,0.0324373841,0.0166661739,0.0213828683,49.1010665894,35.4109001160,-94.4213790894,0.0657643676,-0.0131216049,-0.0063593984,
337.203,-3.2887032032,1.3941655159,39.2198143005,0.0599749088,0.0431900769,0.0009672642,-102.7184982300,72.9771499634,92.0661468506,0.0440787077,0.0632872283,-0.0017572045,9.7038145065,83.6495742798,-80.8831024170,0.0270671248,0.0269281864,0.0262730718,49.1023635864,35.4076080322,-94.4118194580,0.0754832029,-0.0165768266,-0.0112500191,
337.213,-3.2897431850,1.3946393728,39.2191352844,0.0560769290,0.0388136469,0.0117107034,-102.3298492432,72.9491119385,92.5196228027,0.0400291085,0.0675913393,0.0017686486,9.7263965607,83.6521987915,-80.8504562378,0.0280487537,0.0293330550,0.0199741721,49.1055679321,35.4100723267,-94.4011077881,0.0569635630,-0.0175643563,-0.0121755600,
337.223,-3.2901544571,1.3959362507,39.2214469910,0.0600058064,0.0451684408,0.0043876171,-101.9438247681,72.9235839844,92.9639892578,0.0364803672,0.0630508065,0.0004073977,9.6819972992,83.6555404663,-80.8850402832,0.0182895660,0.0181984007,0.0161116123,49.1082496643,35.4075126648,-94.3890075684,0.0725521445,-0.0156559348,-0.0131406784,
337.233,-3.2917621136,1.3994295597,39.2218971252,0.0542073809,0.0432432331,0.0078077912,-101.5525512695,72.9017410278,93.4132385254,0.0339269638,0.0618613362,0.0072997808,9.6508636475,83.6582870483,-80.9066543579,0.0222011209,0.0255906582,0.0234714746,49.1063919067,35.4064826965,-94.3810577393,0.0578890443,-0.0224823356,-0.0077960491,
337.243,-3.2891047001,1.3967084885,39.2237205505,0.0673435032,0.0495446697,0.0004805923,-101.1462936401,72.8860092163,93.8755187988,0.0382407308,0.0605748892,0.0155539513,9.5954484940,83.6608505249,-80.9518127441,0.0207412243,0.0188691616,0.0215431452,49.1073036194,35.4008064270,-94.3716201782,0.0636676550,-0.0108153224,-0.0078235865,
337.253,-3.2902910709,1.3949365616,39.2248878479,0.0643828958,0.0402880311,0.0126879811,-100.7281799316,72.8765411377,94.3476104736,0.0357506871,0.0674845874,0.0178627372,9.5524673462,83.6642608643,-80.9853057861,0.0241657495,0.0248212516,0.0196330547,49.1089782715,35.3992652893,-94.3602752686,0.0538800955,-0.0157256722,-0.0068395734,
337.263,-3.2893245220,1.3957337141,39.2247543335,0.0614671186,0.0436891466,0.0102458000,-100.2860641479,72.8670883179,94.8442001343,0.0371669531,0.0607284307,0.0224859715,9.5038948059,83.6672897339,-81.0226440430,0.0329606533,0.0273651779,0.0260166526,49.1147842407,35.3945693970,-94.3451080322,0.0723679662,-0.0148390532,-0.0229213238,
337.273,-3.2884905338,1.3947998285,39.2253646851,0.0590094142,0.0431863554,0.0082916021,-99.8377304077,72.8587341309,95.3512268066,0.0439599156,0.0637092590,0.0221859813,9.4383497238,83.6678466797,-81.0763320923,0.0222195387,0.0230986774,0.0245386362,49.1166954041,35.3913879395,-94.3332519531,0.0610922575,-0.0148811936,-0.0058320761,
337.283,-3.2869708538,1.3961662054,39.2258644104,0.0575684085,0.0412067287,0.0141497254,-99.3831024170,72.8507308960,95.8712081909,0.0463601351,0.0632530749,0.0135475397,9.4026470184,83.6700210571,-81.0993728638,0.0266182423,0.0251270533,0.0182175636,49.1168441772,35.3867683411,-94.3228225708,0.0639562011,-0.0163826942,-0.0087906122,
337.293,-3.2867736816,1.3970259428,39.2257537842,0.0590482578,0.0431563929,0.0087791085,-98.8984146118,72.8405303955,96.4243469238,0.0424013734,0.0599101484,0.0233103633,9.3535537720,83.6707000732,-81.1358489990,0.0212484598,0.0232706368,0.0250490904,49.1218223572,35.3857574463,-94.3089141846,0.0541762114,-0.0179016590,-0.0185094476,
337.303,-3.2851204872,1.3970942497,39.2268943787,0.0600260124,0.0416627601,0.0117067099,-98.3926849365,72.8261260986,97.0006484985,0.0433037281,0.0556547344,0.0227162242,9.2989025116,83.6721191406,-81.1760559082,0.0261340141,0.0233800709,0.0284731388,49.1230354309,35.3813209534,-94.2960128784,0.0697380900,-0.0159937143,-0.0097366571,
337.313,-3.2880704403,1.3962824345,39.2274017334,0.0605001263,0.0343899392,0.0019444227,-97.8688354492,72.8112792969,97.5982437134,0.0402975082,0.0533502698,0.0181162953,9.2420511246,83.6729278564,-81.2190780640,0.0276004076,0.0205621719,0.0265136361,49.1182899475,35.3777961731,-94.2868804932,0.0687113404,-0.0233005285,-0.0024867058,
337.323,-3.2867815495,1.3959221840,39.2286071777,0.0614704043,0.0490159355,0.0097545385,-97.3262557983,72.7976150513,98.2198181152,0.0412035584,0.0617576838,0.0212219954,9.1779775620,83.6758422852,-81.2690658569,0.0236997604,0.0187413394,0.0172696114,49.1209907532,35.3709144592,-94.2714462280,0.0774024725,-0.0204486251,-0.0137336850,
337.333,-3.2881476879,1.3980803490,39.2279243469,0.0522307158,0.0441568643,0.0087810159,-96.7695159912,72.7764434814,98.8630828857,0.0445121527,0.0512275398,0.0188916326,9.1039237976,83.6812362671,-81.3291168213,0.0276163816,0.0223162174,0.0212383866,49.1201019287,35.3661727905,-94.2601242065,0.0744053721,-0.0248710513,-0.0079152584,
337.343,-3.2864215374,1.3960654736,39.2303962708,0.0634260327,0.0460799709,0.0151256919,-96.2074050903,72.7502899170,99.5161361694,0.0473065972,0.0505222082,0.0101839900,9.0592756271,83.6847763062,-81.3616180420,0.0183458328,0.0253421366,0.0232416391,49.1245040894,35.3646888733,-94.2460327148,0.0636420250,-0.0185757875,-0.0122721791,
337.353,-3.2874124050,1.3939194679,39.2327613831,0.0658299923,0.0387730673,0.0097548366,-95.6380462646,72.7233886719,100.1777496338,0.0442376137,0.0527341962,0.0126596093,8.9949340820,83.6864547729,-81.4129409790,0.0222553015,0.0235173404,0.0227594376,49.1226272583,35.3637771606,-94.2335586548,0.0558165312,-0.0244246125,-0.0083920956,
337.363,-3.2887864113,1.3956112862,39.2325592041,0.0604884177,0.0397735238,0.0107337236,-95.0509185791,72.6845550537,100.8574447632,0.0513603091,0.0463346243,0.0174902678,8.9531717300,83.6876678467,-81.4401321411,0.0266521573,0.0221362710,0.0281381607,49.1217842102,35.3645095825,-94.2222824097,0.0543621182,-0.0302705765,-0.0162088871,
337.373,-3.2888715267,1.3961555958,39.2348976135,0.0604979098,0.0441695191,0.0043864250,-94.4583892822,72.6392059326,101.5435028076,0.0530775785,0.0478273928,0.0047069192,8.8868885040,83.6938171387,-81.4914321899,0.0300819278,0.0208155215,0.0189444423,49.1273765564,35.3558959961,-94.2084960938,0.0693762302,-0.0123220086,-0.0108345151,
337.383,-3.2866120338,1.3972140551,39.2347831726,0.0605163835,0.0460832641,0.0092673302,-93.8470687866,72.5841751099,102.2444229126,0.0508373976,0.0392026901,0.0089078546,8.8230295181,83.6970214844,-81.5405044556,0.0222755671,0.0277828276,0.0277674198,49.1274795532,35.3518295288,-94.1945800781,0.0629706979,-0.0211430788,-0.0084189177,
337.393,-3.2870497704,1.3967607021,39.2371444702,0.0600201897,0.0363252722,0.0136619210,-93.2113571167,72.5255661011,102.9625701904,0.0480893254,0.0413522720,0.0158929229,8.7438859940,83.7027206421,-81.6072769165,0.0203333497,0.0240438879,0.0205156803,49.1289710999,35.3504676819,-94.1815795898,0.0551387668,-0.0201907754,-0.0113412142,
337.403,-3.2865250111,1.3988512754,39.2377128601,0.0527324490,0.0485231169,0.0092679858,-92.5651168823,72.4635238647,103.6836700439,0.0492284298,0.0396210551,0.0105934143,8.6838388443,83.7095718384,-81.6531982422,0.0242527127,0.0290602148,0.0167089105,49.1311569214,35.3454475403,-94.1675338745,0.0633680820,-0.0168316364,-0.0054918528,
337.413,-3.2870106697,1.3999258280,39.2381706238,0.0605636984,0.0407190509,0.0087805986,-91.9122619629,72.4063796997,104.4075393677,0.0489274859,0.0499774814,0.0086498857,8.6022062302,83.7158660889,-81.7248687744,0.0227999091,0.0219089985,0.0206964612,49.1351470947,35.3385772705,-94.1538848877,0.0710827708,-0.0154563189,-0.0152597427,
337.423,-3.2878015041,1.3982638121,39.2388114929,0.0615112595,0.0461039580,0.0068271756,-91.2433319092,72.3402862549,105.1526107788,0.0563906431,0.0545861423,0.0241796970,8.5291585922,83.7205810547,-81.7885894775,0.0252503157,0.0235262215,0.0207546949,49.1371841431,35.3358612061,-94.1413650513,0.0568839908,-0.0247733593,-0.0098845959,
337.433,-3.2869529724,1.3973516226,39.2411766052,0.0614953451,0.0387649834,0.0097563863,-90.5753479004,72.2665023804,105.9069290161,0.0584406257,0.0524455607,0.0201578140,8.4468946457,83.7210769653,-81.8606796265,0.0257395506,0.0183143616,0.0290393233,49.1400947571,35.3335113525,-94.1286315918,0.0592919588,-0.0214004517,-0.0142632127,
337.443,-3.2880587578,1.4003808498,39.2422218323,0.0581302345,0.0470849499,0.0087815523,-89.9082031250,72.1865768433,106.6681442261,0.0550851226,0.0503644645,0.0209943652,8.3964157104,83.7260818481,-81.9011840820,0.0281904936,0.0257480741,0.0159258842,49.1438751221,35.3340301514,-94.1156845093,0.0553930402,-0.0219199657,-0.0186136365,
337.453,-3.2884585857,1.4030097723,39.2420578003,0.0571995378,0.0431856029,0.0107363462,-89.2579040527,72.0967864990,107.4199905396,0.0565576553,0.0474289358,0.0160297751,8.3360242844,83.7325820923,-81.9509735107,0.0228317976,0.0239270031,0.0248073936,49.1464271545,35.3295669556,-94.1047744751,0.0543529987,-0.0229543447,-0.0127562284,
337.463,-3.2887730598,1.4061548710,39.2448921204,0.0582309775,0.0431910008,0.0131794810,-88.6320953369,71.9997787476,108.1475677490,0.0575006604,0.0460416675,0.0062775016,8.2538299561,83.7384719849,-82.0225067139,0.0233312845,0.0201930106,0.0214665532,49.1497039795,35.3220176697,-94.0915908813,0.0693821311,-0.0152301192,-0.0093532801,
337.473,-3.2890014648,1.4049315453,39.2454223633,0.0640690029,0.0417301618,0.0019488335,-88.0254211426,71.8928070068,108.8532943726,0.0632696748,0.0408769250,-0.0063395500,8.1906623840,83.7431335449,-82.0746383667,0.0233401656,0.0261846483,0.0249437094,49.1534271240,35.3134727478,-94.0774002075,0.0717018843,-0.0177712440,-0.0079038143,
337.483,-3.2884476185,1.4043614864,39.2447280884,0.0616176501,0.0402556807,0.0039010048,-87.4188690186,71.7789611816,109.5475616455,0.0641151071,0.0401836336,0.0024865866,8.1111202240,83.7517623901,-82.1449279785,0.0199385881,0.0258697271,0.0167679787,49.1567802429,35.3036880493,-94.0636215210,0.0696094036,-0.0144593716,-0.0103747845,
337.493,-3.2888844013,1.4040101767,39.2459220886,0.0591701157,0.0451461263,0.0063427091,-86.8186721802,71.6580657959,110.2238006592,0.0702891946,0.0361521244,-0.0033447742,8.0269603729,83.7587585449,-82.2186965942,0.0282526612,0.0231175423,0.0197904110,49.1585197449,35.2987136841,-94.0534210205,0.0592846274,-0.0213493109,-0.0094115734,
337.503,-3.2887520790,1.4053535461,39.2464561462,0.0552873090,0.0407492518,0.0073196888,-86.1974182129,71.5363616943,110.9103240967,0.0740131140,0.0477125347,0.0033621788,7.9219374657,83.7651062012,-82.3154830933,0.0277764201,0.0208923817,0.0179198980,49.1609191895,35.2921447754,-94.0432281494,0.0635856390,-0.0189803243,-0.0074759126,
337.513,-3.2877299786,1.4053044319,39.2476043701,0.0626106709,0.0480556637,0.0122014880,-85.5702819824,71.4196243286,111.5973434448,0.0655533671,0.0537769496,0.0007241964,7.8700542450,83.7689819336,-82.3601455688,0.0258306265,0.0273477733,0.0145491958,49.1608200073,35.2886390686,-94.0336608887,0.0635356307,-0.0273070335,-0.0099413991,
337.523,-3.2887005806,1.4049998522,39.2474822998,0.0630936325,0.0412366427,0.0078078508,-84.9247360229,71.3070297241,112.3026046753,0.0722495914,0.0538603365,0.0082054138,7.8026375771,83.7706451416,-82.4208679199,0.0326697230,0.0196684301,0.0223763585,49.1607475281,35.2842826843,-94.0261459351,0.0668916106,-0.0229449868,-0.0060645938,
337.533,-3.2888920307,1.4052536488,39.2486267090,0.0591918156,0.0417282507,0.0063433051,-84.2757034302,71.1969528198,113.0156860352,0.0755383968,0.0606930852,0.0107489228,7.7710514069,83.7761611938,-82.4497604370,0.0297504663,0.0177877843,0.0141553283,49.1654739380,35.2817344666,-94.0163574219,0.0746678114,-0.0186139345,-0.0143311620,
337.543,-3.2883970737,1.4032573700,39.2503929138,0.0669694841,0.0441610850,0.0009707808,-83.6128616333,71.0901260376,113.7464065552,0.0661467314,0.0683925450,0.0200209618,7.7900981903,83.7730026245,-82.4262313843,0.0258382559,0.0284868181,0.0224123597,49.1676521301,35.2821655273,-94.0101394653,0.0629551411,-0.0186309814,-0.0084457397,
337.553,-3.2880327702,1.4048012495,39.2514419556,0.0611370429,0.0436664224,0.0073188543,-82.9572372437,70.9798965454,114.4738922119,0.0581972599,0.0643859208,0.0131779909,7.8136029243,83.7755584717,-82.3987197876,0.0287727714,0.0255178809,0.0165996552,49.1712341309,35.2859992981,-94.0013122559,0.0547089577,-0.0200999975,-0.0157061815,
337.563,-3.2865676880,1.4036688805,39.2532463074,0.0620938540,0.0431526415,0.0082933903,-82.2972412109,70.8651657104,115.2051086426,0.0604724884,0.0589354932,0.0140768290,7.8102579117,83.7752685547,-82.3970947266,0.0224245787,0.0255238116,0.0253849626,49.1753234863,35.2857704163,-93.9895324707,0.0517759919,-0.0108624697,-0.0078508854,
337.573,-3.2877981663,1.4063162804,39.2531204224,0.0528626963,0.0402443260,0.0117137432,-81.6355743408,70.7461013794,115.9386062622,0.0588126779,0.0569224358,0.0139418244,7.7509245872,83.7792434692,-82.4496536255,0.0180375576,0.0246694386,0.0215281844,49.1824684143,35.2820968628,-93.9753036499,0.0673487186,-0.0129101872,-0.0151221752,
337.583,-3.2893671989,1.4075953960,39.2542991638,0.0533732995,0.0412481911,0.0029263496,-80.9518585205,70.6233901978,116.6905136108,0.0649402142,0.0548957884,0.0209580064,7.6808161736,83.7827682495,-82.5102615356,0.0180442333,0.0238348246,0.0313364267,49.1851730347,35.2766227722,-93.9635314941,0.0594581962,-0.0178599358,-0.0097579956,
337.593,-3.2875044346,1.4102793932,39.2572212219,0.0553732514,0.0465867743,0.0073209405,-80.2680969238,70.4964599609,117.4395065308,0.0617614985,0.0528825223,0.0118086934,7.6061162949,83.7846984863,-82.5741958618,0.0234189630,0.0210520029,0.0298851728,49.1870918274,35.2725601196,-93.9522018433,0.0569589138,-0.0227916241,-0.0112290382,
337.603,-3.2884743214,1.4105200768,39.2590370178,0.0573305786,0.0431856960,0.0097624063,-79.5613861084,70.3654556274,118.2143936157,0.0629488230,0.0528067052,0.0141925216,7.5265383720,83.7894668579,-82.6442413330,0.0200099945,0.0197495520,0.0275039673,49.1905822754,35.2675781250,-93.9378356934,0.0622589588,-0.0223739147,-0.0131772757,
337.613,-3.2858841419,1.4105427265,39.2602653503,0.0578192547,0.0514413565,0.0048779249,-78.8246307373,70.2306060791,119.0169982910,0.0699678063,0.0512309670,0.0207427740,7.4837021828,83.7953414917,-82.6780548096,0.0273452997,0.0305860639,0.0173351765,49.1952514648,35.2604637146,-93.9252014160,0.0719232559,-0.0185653567,-0.0117090344,
337.623,-3.2879133224,1.4113916159,39.2613716125,0.0592989102,0.0417110547,0.0078098774,-78.0726699829,70.0950469971,119.8326263428,0.0750243068,0.0612991750,0.0173915625,7.4103851318,83.7996673584,-82.7416381836,0.0249120593,0.0199934840,0.0271598101,49.1982269287,35.2544174194,-93.9117965698,0.0654894114,-0.0171743035,-0.0122048855,
337.633,-3.2874047756,1.4128279686,39.2631835938,0.0529763177,0.0441435575,0.0039036870,-77.3155364990,69.9576797485,120.6480865479,0.0693225861,0.0517866015,0.0115180016,7.3614997864,83.8032379150,-82.7812881470,0.0273602009,0.0274182856,0.0335530043,49.1998786926,35.2524528503,-93.8994445801,0.0493481159,-0.0201343298,0.0024483800,
337.643,-3.2857003212,1.4135414362,39.2636680603,0.0617778264,0.0441138595,0.0073202252,-76.5745086670,69.8156738281,121.4455108643,0.0738413930,0.0501102209,-0.0031127334,7.2907238007,83.8099517822,-82.8415679932,0.0185837746,0.0290324688,0.0224201083,49.2067604065,35.2471961975,-93.8856582642,0.0512263179,-0.0104730129,-0.0097190738,
337.653,-3.2859110832,1.4146170616,39.2629432678,0.0603317469,0.0460706279,0.0092741251,-75.8396301270,69.6715011597,122.2319793701,0.0827357769,0.0576818883,-0.0016462207,7.1985363960,83.8158493042,-82.9251480103,0.0225011110,0.0248258114,0.0259154439,49.2179908752,35.2360534668,-93.8673706055,0.0681573153,-0.0077327490,-0.0199247599,
337.663,-3.2880384922,1.4148662090,39.2640342712,0.0613126606,0.0392717458,0.0053700209,-75.1206359863,69.5225830078,122.9964675903,0.0769468546,0.0442850888,-0.0050328374,7.0758781433,83.8245010376,-83.0393218994,0.0147048831,0.0231238306,0.0191959739,49.2262420654,35.2221984863,-93.8498611450,0.0689363480,-0.0093801022,-0.0111377239,
337.673,-3.2896022797,1.4146348238,39.2651824951,0.0608203411,0.0412521102,0.0043948293,-74.3982238770,69.3739929199,123.7502059937,0.0828723907,0.0498502553,0.0007940531,6.9440045357,83.8352813721,-83.1615295410,0.0264438391,0.0190016627,0.0193461776,49.2301292419,35.2103385925,-93.8356628418,0.0614430904,-0.0202487707,-0.0106855035,
337.683,-3.2908117771,1.4146144390,39.2662963867,0.0598434247,0.0383434929,-0.0024397373,-73.6618041992,69.2290115356,124.5031280518,0.0878373981,0.0508659184,0.0001648068,6.8196907043,83.8415145874,-83.2778244019,0.0201078653,0.0212031007,0.0262597799,49.2365913391,35.1991386414,-93.8210144043,0.0588419437,-0.0189294815,-0.0121542215,
337.693,-3.2919361591,1.4157408476,39.2673110962,0.0627927631,0.0383630432,0.0126981139,-72.9104766846,69.0900421143,125.2529449463,0.0859979391,0.0521740317,0.0008988976,6.7192282677,83.8473052979,-83.3701782227,0.0206069946,0.0218932927,0.0180354118,49.2371101379,35.1853828430,-93.8107757568,0.0747590065,-0.0248985291,-0.0058913827,
337.703,-3.2944631577,1.4162352085,39.2696838379,0.0564537309,0.0398719087,0.0063539743,-72.1488571167,68.9545974731,126.0009841919,0.0905227661,0.0606536269,-0.0043085217,6.6036596298,83.8528518677,-83.4783782959,0.0264767408,0.0182164311,0.0234724283,49.2424049377,35.1749916077,-93.7968139648,0.0770521760,-0.0167261362,-0.0127379894,
337.713,-3.2944743633,1.4166599512,39.2708168030,0.0608556718,0.0423134938,0.0097711086,-71.3812255859,68.8201446533,126.7500152588,0.0877243280,0.0617021620,-0.0032351017,6.5467762947,83.8584747314,-83.5274887085,0.0225809813,0.0212647617,0.0225802064,49.2423896790,35.1687088013,-93.7900695801,0.0681734681,-0.0255630016,-0.0044790506,
337.723,-3.2968697548,1.4140696526,39.2732696533,0.0632518828,0.0423552841,0.0141676068,-70.6048812866,68.6861953735,127.5114135742,0.0898067951,0.0699660182,0.0001968145,6.5257077217,83.8598175049,-83.5434265137,0.0308842659,0.0266780257,0.0245488882,49.2461814880,35.1622200012,-93.7798919678,0.0719871521,-0.0109992027,-0.0049684644,
337.733,-3.2983667850,1.4127061367,39.2749900818,0.0651812181,0.0370103009,0.0117270947,-69.8303756714,68.5454101563,128.2803955078,0.0884225965,0.0670236051,0.0089393258,6.4876980782,83.8631973267,-83.5753631592,0.0289374590,0.0199205577,0.0221581459,49.2507820129,35.1591720581,-93.7677841187,0.0699905157,-0.0218074322,-0.0093333721,
337.743,-3.2994203568,1.4114339352,39.2761611938,0.0622293353,0.0409349315,0.0019618869,-69.0843811035,68.3983764648,129.0339202881,0.0879691839,0.0690379143,0.0011817217,6.4433526993,83.8685684204,-83.6132965088,0.0230880976,0.0214793682,0.0232154727,49.2589645386,35.1552047729,-93.7533035278,0.0670042038,-0.0141014457,-0.0112240314,
337.753,-3.2999291420,1.4144908190,39.2778282166,0.0559350178,0.0448499694,0.0063582659,-68.3528671265,68.2496109009,129.7854309082,0.0831038952,0.0666357279,-0.0016509295,6.3831882477,83.8736495972,-83.6658477783,0.0201678872,0.0225791037,0.0271949172,49.2654800415,35.1490173340,-93.7403411865,0.0615448952,-0.0098146796,-0.0097295046,
337.763,-3.2997775078,1.4157493114,39.2801551819,0.0579100996,0.0428941771,0.0014758110,-67.6093902588,68.0961685181,130.5486297607,0.0899206996,0.0637038648,0.0090538859,6.3332443237,83.8813095093,-83.7090835571,0.0157876015,0.0295235515,0.0209656358,49.2694320679,35.1386108398,-93.7270889282,0.0760447383,-0.0138369203,-0.0053600669,
337.773,-3.3018703461,1.4184826612,39.2823410034,0.0594226345,0.0370711870,0.0092916489,-66.8644866943,67.9432067871,131.3054199219,0.0933160186,0.0592112541,-0.0051835179,6.2569513321,83.8881072998,-83.7760238647,0.0245893002,0.0228439569,0.0235060453,49.2785072327,35.1300849915,-93.7108764648,0.0715285540,-0.0115449429,-0.0116654634,
337.783,-3.3023464680,1.4188810587,39.2822074890,0.0628475547,0.0429388471,0.0097802281,-66.1010818481,67.7887649536,132.0642547607,0.0883941054,0.0541172922,-0.0059044361,6.1645741463,83.8946838379,-83.8602218628,0.0192304254,0.0230299830,0.0275060534,49.2844467163,35.1249160767,-93.6965103149,0.0582711697,-0.0135927796,-0.0121238232,
337.793,-3.3022549152,1.4198629856,39.2820625305,0.0604232773,0.0429372266,-0.0009613633,-65.3193359375,67.6345214844,132.8291778564,0.0966504812,0.0576673150,-0.0087198615,6.0914788246,83.8973846436,-83.9232788086,0.0221651196,0.0217074454,0.0226536989,49.2875900269,35.1205215454,-93.6848297119,0.0528373718,-0.0229327679,-0.0038174391,
337.803,-3.3056285381,1.4212701321,39.2832221985,0.0531236157,0.0390897021,0.0102731586,-64.5041503906,67.4742813110,133.6222534180,0.0931412578,0.0616009831,0.0126048923,6.0345716476,83.9032592773,-83.9714660645,0.0265705585,0.0218248069,0.0173689127,49.2909278870,35.1158714294,-93.6718215942,0.0644896626,-0.0200695395,-0.0082061291,
337.813,-3.3067984581,1.4210650921,39.2843627930,0.0609325394,0.0425280631,0.0102742314,-63.6860046387,67.3048553467,134.4191894531,0.0934692621,0.0596952140,0.0040286779,5.9822735786,83.9057693481,-84.0178833008,0.0309697390,0.0233924985,0.0252152681,49.2954292297,35.1093330383,-93.6591491699,0.0766033530,-0.0157667398,-0.0116183758,
337.823,-3.3061897755,1.4199856520,39.2849388123,0.0614019856,0.0425174832,0.0009957552,-62.8619995117,67.1202926636,135.2278442383,0.0927098989,0.0559259355,0.0065040588,5.9497823715,83.9100875854,-84.0413513184,0.0251183510,0.0210196972,0.0194223523,49.3038558960,35.1046981812,-93.6438522339,0.0697012544,-0.0119742155,-0.0179051161,
337.833,-3.3044276237,1.4184812307,39.2873687744,0.0638171434,0.0483461991,0.0161303282,-62.0444641113,66.9214248657,136.0308532715,0.0962376595,0.0532426536,0.0044793487,5.8803162575,83.9144668579,-84.1019515991,0.0182905197,0.0201810896,0.0258299112,49.3102645874,35.0973396301,-93.6291809082,0.0700844526,-0.0164843798,-0.0130009055,
337.843,-3.3058428764,1.4167556763,39.2879714966,0.0618339069,0.0395818278,0.0097827911,-61.2201347351,66.7157669067,136.8376617432,0.0894536376,0.0573506355,0.0028086901,5.8290581703,83.9200057983,-84.1438369751,0.0207421780,0.0266344845,0.0249375105,49.3164787292,35.0891952515,-93.6128921509,0.0645970702,-0.0122097731,-0.0066393018,
337.853,-3.3062419891,1.4173618555,39.2889823914,0.0642858893,0.0410536118,0.0039248466,-60.3896484375,66.5038299561,137.6496124268,0.0948210955,0.0628679097,-0.0004549623,5.7212476730,83.9286499023,-84.2431106567,0.0207581520,0.0234332085,0.0231096148,49.3217391968,35.0748710632,-93.5984878540,0.0707401037,-0.0118793845,-0.0037464499,
337.863,-3.3074619770,1.4186468124,39.2894935608,0.0555192530,0.0381451473,0.0083205700,-59.5628242493,66.2888870239,138.4589080811,0.1001549363,0.0634302795,0.0025864840,5.6111664772,83.9395751953,-84.3441467285,0.0232197046,0.0241456926,0.0193670988,49.3272285461,35.0673904419,-93.5824966431,0.0515903234,-0.0232177973,-0.0066652298,
337.873,-3.3068714142,1.4184005260,39.2900314331,0.0608860478,0.0444825180,0.0083202124,-58.7549171448,66.0726928711,139.2484893799,0.1093732715,0.0683475435,-0.0143288374,5.5007219315,83.9472122192,-84.4461059570,0.0159095526,0.0272944570,0.0224078894,49.3345603943,35.0565299988,-93.5651931763,0.0626657009,-0.0238568783,-0.0130044818,
337.883,-3.3048417568,1.4170343876,39.2912063599,0.0647684559,0.0473768860,0.0039229989,-57.9430313110,65.8526382446,140.0413665771,0.1136682034,0.0702470243,-0.0093649030,5.3756661415,83.9556427002,-84.5634994507,0.0256906748,0.0275411904,0.0239902735,49.3401374817,35.0474052429,-93.5502548218,0.0576524734,-0.0259313583,-0.0061677694,
337.893,-3.3038532734,1.4184144735,39.2923088074,0.0594214462,0.0458947904,0.0029461384,-57.1198310852,65.6324539185,140.8400115967,0.1194136143,0.0710006654,-0.0167156458,5.2595734596,83.9615402222,-84.6713256836,0.0305843353,0.0189781785,0.0196793675,49.3467216492,35.0404930115,-93.5340805054,0.0682958961,-0.0226272345,-0.0115125775,
337.903,-3.3044826984,1.4175754786,39.2928886414,0.0628247708,0.0488354638,0.0044112206,-56.2837982178,65.4081268311,141.6475830078,0.1129084229,0.0721138120,-0.0041947961,5.1754984856,83.9689178467,-84.7491912842,0.0291330218,0.0152395964,0.0153905153,49.3509140015,35.0376663208,-93.5209655762,0.0604429841,-0.0270823240,-0.0119739175,
337.913,-3.3022606373,1.4196792841,39.2909278870,0.0584669523,0.0483084247,0.0044094324,-55.4507904053,65.1852188110,142.4543457031,0.1151887774,0.0765025914,-0.0116965175,5.1019434929,83.9742889404,-84.8154678345,0.0267014503,0.0178263187,0.0247498751,49.3525199890,35.0326461792,-93.5097579956,0.0603712201,-0.0266471505,-0.0036883354,
337.923,-3.3029503822,1.4196575880,39.2926826477,0.0584665723,0.0375782512,0.0166173577,-54.6488914490,64.9591217041,143.2388610840,0.1198732257,0.0721407831,-0.0136999488,5.0048022270,83.9807968140,-84.9074935913,0.0281782150,0.0145985782,0.0204471946,49.3631057739,35.0253982544,-93.4930725098,0.0656387806,-0.0165468454,-0.0128981471,
337.933,-3.3040947914,1.4197108746,39.2944259644,0.0599323437,0.0405278690,0.0039234161,-53.8766937256,64.7365341187,143.9962768555,0.1152923703,0.0691984892,-0.0257745981,4.9210958481,83.9881591797,-84.9868545532,0.0218440294,0.0274603963,0.0234902501,49.3717117310,35.0146675110,-93.4769821167,0.0679268241,-0.0162203312,-0.0104334354,
337.943,-3.3022515774,1.4194972515,39.2962265015,0.0609051809,0.0487965532,0.0048974752,-53.1324348450,64.5133438110,144.7227172852,0.1263183951,0.0677314401,-0.0250188708,4.8080582619,83.9991226196,-85.0938491821,0.0194226503,0.0208499134,0.0236568451,49.3794860840,35.0035095215,-93.4606933594,0.0692320466,-0.0188188553,-0.0109103322,
337.953,-3.3022892475,1.4175678492,39.2968711853,0.0603832342,0.0444027223,0.0092917681,-52.4163513184,64.2909622192,145.4132690430,0.1285476685,0.0608955026,-0.0324121118,4.6884765625,84.0072631836,-85.2044372559,0.0179726481,0.0288954377,0.0247526765,49.3873596191,34.9931182861,-93.4439926147,0.0661538839,-0.0175063014,-0.0123571754,
337.963,-3.3033716679,1.4165631533,39.2987480164,0.0574360192,0.0449098907,0.0107572079,-51.7108917236,64.0622940063,146.0827026367,0.1292505860,0.0565163791,-0.0266426206,4.5642790794,84.0128631592,-85.3200302124,0.0272601843,0.0232737064,0.0214116573,49.3992996216,34.9766654968,-93.4247589111,0.0781255960,-0.0109063983,-0.0172172785,
337.973,-3.3039877415,1.4180079699,39.3005523682,0.0530666970,0.0444323011,0.0083170533,-51.0181159973,63.8289833069,146.7286224365,0.1264855266,0.0540967286,-0.0316101313,4.4500946999,84.0222625732,-85.4237747192,0.0228827596,0.0205677450,0.0215543509,49.4053230286,34.9694252014,-93.4077072144,0.0584908724,-0.0217597485,-0.0147580504,
337.983,-3.3037691116,1.4166400433,39.3011856079,0.0584139228,0.0410105512,0.0092928410,-50.3235054016,63.5871925354,147.3706665039,0.1324287653,0.0589826703,-0.0230243802,4.3312497139,84.0286026001,-85.5332794189,0.0233825445,0.0193306804,0.0255509615,49.4124717712,34.9613685608,-93.3906631470,0.0593521595,-0.0155397654,-0.0122911334,
337.993,-3.3052394390,1.4164291620,39.3023185730,0.0608516484,0.0415244587,0.0073411465,-49.6284942627,63.3487319946,148.0128936768,0.1300813556,0.0725014210,-0.0281031728,4.2224254608,84.0325698853,-85.6356277466,0.0248546004,0.0141654909,0.0246262550,49.4132041931,34.9539146423,-93.3801193237,0.0651049018,-0.0273219347,-0.0147730708,
338.003,-3.3086576462,1.4147540331,39.3041343689,0.0617989823,0.0410957560,0.0068556070,-48.9296684265,63.1089782715,148.6586456299,0.1325910687,0.0776002705,-0.0234730840,4.1403126717,84.0420684814,-85.7108535767,0.0258483887,0.0226295888,0.0174537301,49.4199066162,34.9459457397,-93.3660736084,0.0669440031,-0.0196323395,-0.0127990246,
338.013,-3.3085737228,1.4128438234,39.3046684265,0.0671367496,0.0425591916,0.0185734630,-48.2288703918,62.8719482422,149.3137207031,0.1360834241,0.0869351625,-0.0198218226,4.0329256058,84.0499725342,-85.8164062500,0.0292806625,0.0184422731,0.0175708532,49.4259567261,34.9364891052,-93.3544998169,0.0707149506,-0.0178073645,-0.0088884830,
338.023,-3.3078606129,1.4110722542,39.3052940369,0.0617347434,0.0449882112,0.0024586916,-47.5407295227,62.6303939819,149.9724426270,0.1395242214,0.0933439732,-0.0171357989,3.9801084995,84.0558776855,-85.8664321899,0.0253850818,0.0263591707,0.0201091170,49.4321670532,34.9291648865,-93.3430633545,0.0735399127,-0.0203621387,-0.0122865438,
338.033,-3.3098104000,1.4129325151,39.3051147461,0.0598140806,0.0420924388,0.0083204508,-46.8882102966,62.3845825195,150.6070709229,0.1336374879,0.0847459137,-0.0221129656,3.9256291389,84.0567321777,-85.9141311646,0.0239217877,0.0245069861,0.0259713531,49.4396438599,34.9219551086,-93.3301773071,0.0714836121,-0.0175567865,-0.0122522116,
338.043,-3.3125095367,1.4121427536,39.3068389893,0.0632182658,0.0392097831,0.0132057667,-46.2655067444,62.1328468323,151.2189331055,0.1394048333,0.0782261193,-0.0323646665,3.8778908253,84.0629730225,-85.9559555054,0.0263744593,0.0250904858,0.0226575732,49.4482727051,34.9188117981,-93.3141937256,0.0528838634,-0.0191257596,-0.0102254748,
338.053,-3.3127048016,1.4134681225,39.3066902161,0.0598234236,0.0416545644,0.0166242123,-45.6502494812,61.8736686707,151.8209533691,0.1299571991,0.0678201914,-0.0221616626,3.8171112537,84.0658111572,-86.0101165771,0.0268678665,0.0300878882,0.0339232683,49.4555931091,34.9174270630,-93.2975921631,0.0509109497,-0.0265285969,-0.0174791217,
338.063,-3.3130583763,1.4142597914,39.3083992004,0.0598372370,0.0431255475,0.0141842365,-45.0362586975,61.6075248718,152.4150543213,0.1389883757,0.0632509887,-0.0222964883,3.7390186787,84.0732116699,-86.0776290894,0.0239515305,0.0282866359,0.0154888630,49.4614524841,34.9094696045,-93.2819061279,0.0615392327,-0.0154130459,-0.0062364936,
338.073,-3.3130857944,1.4147551060,39.3095054626,0.0627755672,0.0465439856,0.0102778673,-44.4183654785,61.3386001587,153.0038604736,0.1377233863,0.0698113441,-0.0293374658,3.6298730373,84.0846023560,-86.1802520752,0.0195775032,0.0236161947,0.0151782036,49.4686546326,34.9027786255,-93.2648162842,0.0570489764,-0.0189487934,-0.0120611787,
338.083,-3.3140451908,1.4166767597,39.3106002808,0.0554848760,0.0411895514,0.0058852434,-43.7958869934,61.0696678162,153.5934753418,0.1320444942,0.0762339234,-0.0344664454,3.5154855251,84.0916976929,-86.2875671387,0.0239847898,0.0184621811,0.0279840827,49.4726066589,34.8909721375,-93.2515487671,0.0622510314,-0.0176103711,-0.0086766481,
338.093,-3.3137142658,1.4161289930,39.3117523193,0.0618229732,0.0436252132,0.0014900565,-43.1766510010,60.7949562073,154.1759033203,0.1482697725,0.0762780905,-0.0357478261,3.4027559757,84.0999984741,-86.3946380615,0.0298590660,0.0289304852,0.0266425014,49.4787101746,34.8820533752,-93.2377624512,0.0582171082,-0.0245707035,-0.0179454088,
338.103,-3.3135426044,1.4178020954,39.3134841919,0.0564810708,0.0450870171,0.0058851242,-42.5636253357,60.5164489746,154.7527465820,0.1478407979,0.0811704993,-0.0267922282,3.2627730370,84.1073150635,-86.5300903320,0.0259659290,0.0189396441,0.0252903104,49.4900932312,34.8719825745,-93.2227401733,0.0566080213,-0.0174288154,-0.0198398232,
338.113,-3.3135912418,1.4168670177,39.3146629333,0.0613475703,0.0421582013,0.0102792978,-41.9589080811,60.2375030518,155.3221130371,0.1527585387,0.0884502828,-0.0348960161,3.1209950447,84.1154327393,-86.6681442261,0.0254921913,0.0201825202,0.0254130363,49.4975471497,34.8601760864,-93.2081375122,0.0676695108,-0.0234470367,-0.0120225549,
338.123,-3.3138375282,1.4149026871,39.3164939880,0.0627781376,0.0436273888,0.0058841705,-41.3684120178,59.9484443665,155.8795776367,0.1595204473,0.0821408927,-0.0308336020,2.9982910156,84.1258392334,-86.7849731445,0.0289287567,0.0252983272,0.0104407668,49.5030136108,34.8519744873,-93.1952514648,0.0641340613,-0.0264897346,-0.0125045180,
338.133,-3.3116436005,1.4145642519,39.3188667297,0.0637487993,0.0499368384,0.0088117123,-40.7686462402,59.6562156677,156.4440155029,0.1476777196,0.0854558051,-0.0263836384,2.8779532909,84.1340484619,-86.9007720947,0.0269902945,0.0157587826,0.0178929567,49.5114097595,34.8435249329,-93.1816024780,0.0664543509,-0.0183312297,-0.0090497136,
338.143,-3.3126232624,1.4159733057,39.3205413818,0.0593788475,0.0411648005,0.0010002851,-40.1771965027,59.3573455811,156.9973907471,0.1469839215,0.0751050413,-0.0302703977,2.7839066982,84.1391296387,-86.9890060425,0.0245579481,0.0178871155,0.0301778316,49.5187454224,34.8351783752,-93.1667404175,0.0717058778,-0.0174862742,-0.0119535923,
338.153,-3.3151214123,1.4150321484,39.3217010498,0.0613155514,0.0421849042,0.0088155866,-39.5845146179,59.0588531494,157.5471801758,0.1418755651,0.0836706460,-0.0336798429,2.6877939701,84.1451492310,-87.0788345337,0.0231038332,0.0214845240,0.0292952657,49.5252418518,34.8280487061,-93.1516647339,0.0667209625,-0.0200421214,-0.0089994073,
338.163,-3.3163466454,1.4162238836,39.3264884949,0.0569418147,0.0397648104,0.0156527758,-38.9910964966,58.7596702576,158.0901336670,0.1445502043,0.0760090053,-0.0419890881,2.5865943432,84.1513442993,-87.1751251221,0.0206734538,0.0255792141,0.0249968767,49.5319175720,34.8173599243,-93.1356124878,0.0665678382,-0.0153024197,-0.0094839931,
338.173,-3.3191189766,1.4175007343,39.3275451660,0.0598937832,0.0412779115,0.0063790679,-38.4019699097,58.4597167969,158.6206817627,0.1491475701,0.0795004070,-0.0385695696,2.4410665035,84.1601028442,-87.3165283203,0.0221538544,0.0238963366,0.0295275450,49.5398445129,34.8086547852,-93.1193618774,0.0557009578,-0.0222780108,-0.0182425976,
338.183,-3.3165552616,1.4174047709,39.3281173706,0.0603803881,0.0470926352,0.0088173747,-37.8218688965,58.1586532593,159.1389923096,0.1615239978,0.0766045749,-0.0448791385,2.2772092819,84.1707153320,-87.4750595093,0.0270555019,0.0217588842,0.0184648037,49.5501861572,34.7949562073,-93.1007156372,0.0647819638,-0.0132006407,-0.0094294548,
338.193,-3.3179206848,1.4173393250,39.3304214478,0.0628206581,0.0417453274,0.0097960234,-37.2506942749,57.8569793701,159.6408538818,0.1645937562,0.0751317143,-0.0418691039,2.1097662449,84.1797409058,-87.6365127563,0.0187706947,0.0254853368,0.0244671106,49.5570144653,34.7837486267,-93.0845184326,0.0577853322,-0.0279976130,-0.0143102407,
338.203,-3.3183047771,1.4164112806,39.3315734863,0.0632927418,0.0432168841,0.0054009557,-36.6861114502,57.5561561584,160.1316070557,0.1705778241,0.0779840946,-0.0534620285,1.9608699083,84.1870498657,-87.7808227539,0.0261078477,0.0296646953,0.0250689387,49.5636367798,34.7675933838,-93.0683593750,0.0746436119,-0.0179275274,-0.0079943538,
338.213,-3.3204941750,1.4173109531,39.3332557678,0.0613553151,0.0432549939,0.0068686008,-36.1204528809,57.2519645691,160.6196746826,0.1745536327,0.0817238688,-0.0519142151,1.8197449446,84.1924819946,-87.9164581299,0.0251408815,0.0225979686,0.0290585160,49.5721435547,34.7512092590,-93.0536499023,0.0739203691,-0.0171542764,-0.0119135380,
338.223,-3.3214845657,1.4174067974,39.3332252502,0.0574507378,0.0432722382,0.0093106031,-35.5573539734,56.9501380920,161.1047821045,0.1692509651,0.0926764309,-0.0571575165,1.6987316608,84.1987991333,-88.0319442749,0.0285699964,0.0233075321,0.0169515014,49.5792922974,34.7380065918,-93.0395584106,0.0712895989,-0.0158558488,-0.0119208694,
338.233,-3.3209066391,1.4155327082,39.3338127136,0.0623008534,0.0422856621,0.0083328485,-34.9995689392,56.6506462097,161.5888977051,0.1649239659,0.0967056453,-0.0481796265,1.5725603104,84.2088012695,-88.1545867920,0.0227282643,0.0269573927,0.0112569928,49.5870170593,34.7260475159,-93.0243988037,0.0677000880,-0.0174831152,-0.0099605322,
338.243,-3.3228864670,1.4157519341,39.3330574036,0.0608398318,0.0379256047,-0.0004538894,-34.4509468079,56.3574943542,162.0644073486,0.1684479713,0.0947883725,-0.0595771074,1.4316686392,84.2166290283,-88.2917556763,0.0320193768,0.0198897719,0.0240778327,49.5938148499,34.7156829834,-93.0115127563,0.0636452436,-0.0200661421,-0.0109295249,
338.253,-3.3225233555,1.4157174826,39.3354339600,0.0603509471,0.0457317866,0.0034520626,-33.9038085938,56.0573043823,162.5328369141,0.1801823974,0.0889294446,-0.0515111089,1.2803612947,84.2226028442,-88.4380874634,0.0251939297,0.0191871524,0.0227074027,49.6030044556,34.7041053772,-92.9955673218,0.0668970346,-0.0197509527,-0.0172513127,
338.263,-3.3230962753,1.4146130085,39.3359870911,0.0637496486,0.0447652265,0.0044282675,-33.3707580566,55.7684707642,162.9850616455,0.1763805747,0.0966624022,-0.0647088885,1.1424381733,84.2296905518,-88.5693054199,0.0300891995,0.0223666728,0.0325883627,49.6114845276,34.6945648193,-92.9771347046,0.0579710603,-0.0213668942,-0.0074540973,
338.273,-3.3250327110,1.4156202078,39.3370285034,0.0608375333,0.0399161242,0.0063841343,-32.8472709656,55.4833793640,163.4252929688,0.1784540415,0.0979987681,-0.0597343445,0.9992694259,84.2406768799,-88.7029876709,0.0183897018,0.0279975533,0.0190973282,49.6202926636,34.6853103638,-92.9603881836,0.0524671674,-0.0181009173,-0.0113241076,
338.283,-3.3255901337,1.4171180725,39.3393516541,0.0574456975,0.0423672087,0.0132212639,-32.3516654968,55.2026710510,163.8418731689,0.1815273762,0.0891861618,-0.0696828365,0.8338826895,84.2509613037,-88.8606414795,0.0262202024,0.0258545280,0.0265914798,49.6289558411,34.6695137024,-92.9441680908,0.0717716813,-0.0129296780,-0.0176777840,
338.293,-3.3270266056,1.4153407812,39.3423500061,0.0647389069,0.0414156988,0.0117567778,-31.8697357178,54.9280929565,164.2509002686,0.1797596812,0.0979332626,-0.0711739659,0.6582080722,84.2579193115,-89.0273132324,0.0228143930,0.0251930356,0.0276814699,49.6363906860,34.6608734131,-92.9262084961,0.0516281128,-0.0233182907,-0.0176532865,
338.303,-3.3267645836,1.4139214754,39.3435134888,0.0627610236,0.0433643050,0.0024791360,-31.4077491760,54.6518325806,164.6513061523,0.1911397576,0.0970146656,-0.0745222569,0.5153098106,84.2670822144,-89.1629714966,0.0238069296,0.0234962106,0.0156270862,49.6436271667,34.6462593079,-92.9103240967,0.0719261169,-0.0156833529,-0.0103428960,
338.313,-3.3282549381,1.4116430283,39.3429183960,0.0612564236,0.0394840650,0.0063854456,-30.9575233459,54.3779335022,165.0509338379,0.1898296475,0.1048899889,-0.0753295422,0.3692376018,84.2708358765,-89.3020248413,0.0213720798,0.0183857083,0.0274088383,49.6524276733,34.6320075989,-92.8959121704,0.0770925879,-0.0134316087,-0.0113146901,
338.323,-3.3273780346,1.4127936363,39.3434524536,0.0559054017,0.0433750190,0.0054085255,-30.5234928131,54.1010131836,165.4473419189,0.1899348497,0.1001567245,-0.0658236742,0.2529325485,84.2773437500,-89.4115447998,0.0213834047,0.0224994719,0.0182405710,49.6590576172,34.6190567017,-92.8819351196,0.0793480277,-0.0160325170,-0.0098604560,
338.333,-3.3266990185,1.4137163162,39.3445701599,0.0588511899,0.0448280051,0.0019903779,-30.1117649078,53.8280639648,165.8263549805,0.1842026114,0.0945427716,-0.0727454424,0.1686448157,84.2821731567,-89.4865798950,0.0287160277,0.0260675550,0.0207629800,49.6696701050,34.6152458191,-92.8645248413,0.0568323135,-0.0205545425,-0.0209993124,
338.343,-3.3258893490,1.4132901430,39.3461952209,0.0681210980,0.0409076661,0.0063840747,-29.7126197815,53.5539665222,166.1971282959,0.1808816195,0.0919100046,-0.0693521500,0.0790103003,84.2902297974,-89.5683746338,0.0248237848,0.0301332474,0.0208991170,49.6787376404,34.6060066223,-92.8466567993,0.0640237927,-0.0133845210,-0.0087522268,
338.353,-3.3279213905,1.4162340164,39.3484230042,0.0564537123,0.0394781344,0.0063872933,-29.3157711029,53.2849540710,166.5647888184,0.1785718203,0.0813834071,-0.0692937374,-0.0280405730,84.2989959717,-89.6655883789,0.0145850778,0.0229988992,0.0176295638,49.6854248047,34.5963935852,-92.8310089111,0.0580263138,-0.0154724121,-0.0077642202,
338.363,-3.3283553123,1.4156750441,39.3501739502,0.0623033345,0.0429036878,0.0102937818,-28.9183712006,53.0165863037,166.9195861816,0.1830870509,0.0834767818,-0.0667774081,-0.1715730131,84.3036346436,-89.7993392944,0.0292415619,0.0247178078,0.0294276476,49.6946487427,34.5875587463,-92.8114852905,0.0525283217,-0.0151365995,-0.0126024485,
338.373,-3.3276319504,1.4155744314,39.3519058228,0.0627898574,0.0448442064,0.0088278055,-28.5205020905,52.7548294067,167.2656402588,0.1842366457,0.0800850987,-0.0695420504,-0.3452650309,84.3108978271,-89.9657974243,0.0253478885,0.0240480006,0.0295516253,49.7032699585,34.5797920227,-92.7931213379,0.0480221510,-0.0221114159,-0.0154875517,
338.383,-3.3289041519,1.4166133404,39.3523635864,0.0584134571,0.0380304120,0.0049235821,-28.1216392517,52.5004959106,167.6029815674,0.1859367490,0.0858488083,-0.0800211430,-0.5225515366,84.3200378418,-90.1341781616,0.0253636837,0.0277780294,0.0209197402,49.7141647339,34.5696716309,-92.7720642090,0.0493415594,-0.0154531002,-0.0139673948,
338.393,-3.3299612999,1.4144196510,39.3524169922,0.0588634610,0.0409785621,0.0039470196,-27.7222061157,52.2514991760,167.9383087158,0.1901196837,0.0924866498,-0.0835881829,-0.7151841521,84.3298110962,-90.3202438354,0.0151266456,0.0242097676,0.0215792656,49.7163009644,34.5542182922,-92.7600860596,0.0662092566,-0.0282851458,-0.0057431459,
338.403,-3.3295845985,1.4128359556,39.3535804749,0.0637186468,0.0414603241,0.0127351284,-27.3313655853,52.0067634583,168.2680664063,0.1962865591,0.0932587087,-0.0846053958,-0.8987847567,84.3378753662,-90.4997406006,0.0302772522,0.0220898092,0.0173251033,49.7204856873,34.5416717529,-92.7478942871,0.0562632680,-0.0259771943,-0.0077298880,
338.413,-3.3298242092,1.4114667177,39.3540802002,0.0646713153,0.0395114087,0.0044341087,-26.9423923492,51.7655715942,168.6001892090,0.1936882734,0.0959208310,-0.0840908885,-1.0771168470,84.3440322876,-90.6752166748,0.0258933306,0.0277728140,0.0198754668,49.7259483337,34.5312118530,-92.7362365723,0.0585543513,-0.0251304507,-0.0087137818,
338.423,-3.3290998936,1.4108383656,39.3558807373,0.0602658205,0.0448698960,0.0063861012,-26.5531234741,51.5169754028,168.9339752197,0.1953902245,0.0946611464,-0.0724232197,-1.2209105492,84.3490982056,-90.8160171509,0.0283434391,0.0250940919,0.0272906423,49.7330207825,34.5194206238,-92.7220001221,0.0749863386,-0.0228437185,-0.0077346563,
338.433,-3.3287463188,1.4127826691,39.3582115173,0.0559052154,0.0433988459,0.0141990185,-26.1666431427,51.2568893433,169.2688446045,0.1979284883,0.0992978811,-0.0686795712,-1.3638057709,84.3542633057,-90.9543533325,0.0288406014,0.0155773759,0.0205478072,49.7421493530,34.5103797913,-92.7073364258,0.0626493096,-0.0195788145,-0.0111103654,
338.443,-3.3299663067,1.4117298126,39.3599700928,0.0641876236,0.0443966836,0.0141997337,-25.7985305786,50.9872436523,169.5968322754,0.1881386638,0.0987405479,-0.0595772862,-1.4874415398,84.3556213379,-91.0728988647,0.0278663635,0.0221413970,0.0313183665,49.7541084290,34.5038070679,-92.6913070679,0.0625547171,-0.0192512870,-0.0183454156,
338.453,-3.3300166130,1.4118944407,39.3623657227,0.0554014295,0.0400030315,0.0039461851,-25.4625205994,50.7106132507,169.9210205078,0.1880200505,0.1150860190,-0.0665051937,-1.5974860191,84.3621520996,-91.1748962402,0.0225064754,0.0242844820,0.0231338739,49.7629928589,34.4926338196,-92.6753540039,0.0697183013,-0.0140470862,-0.0109949112,
338.463,-3.3300819397,1.4117201567,39.3635482788,0.0583280772,0.0443987064,-0.0004484057,-25.1737747192,50.4262580872,170.2355957031,0.1887740493,0.1060174406,-0.0649892092,-1.7238813639,84.3706359863,-91.2928009033,0.0249624252,0.0274313092,0.0223082304,49.7737922668,34.4834594727,-92.6569824219,0.0549378395,-0.0127518177,-0.0094701052,
338.473,-3.3293466568,1.4115669727,39.3652572632,0.0632082224,0.0404796451,0.0151753426,-24.9245758057,50.1467628479,170.5364227295,0.1920047998,0.0977626741,-0.0803059340,-1.9056965113,84.3814468384,-91.4640579224,0.0196098089,0.0306730568,0.0254296660,49.7867774963,34.4670104980,-92.6358795166,0.0659316182,-0.0056723356,-0.0133383274,
338.483,-3.3268082142,1.4121162891,39.3682022095,0.0607763976,0.0467830710,0.0093144774,-24.7067871094,49.8727684021,170.8144531250,0.2035799623,0.0843861401,-0.0934430361,-2.1208276749,84.3936309814,-91.6697692871,0.0142595172,0.0256700218,0.0271133780,49.7981910706,34.4514846802,-92.6143646240,0.0608254075,-0.0137079954,-0.0138002634,
338.493,-3.3286437988,1.4095388651,39.3687705994,0.0646376759,0.0360729285,0.0049197078,-24.4929141998,49.6016921997,171.0684661865,0.2117527723,0.0646509528,-0.1006574631,-2.3671000004,84.4034652710,-91.9077148438,0.0225770473,0.0207211673,0.0268080831,49.8070487976,34.4344291687,-92.5954666138,0.0586267710,-0.0197782516,-0.0069755912,
338.503,-3.3287985325,1.4125901461,39.3699035645,0.0495541953,0.0438880436,0.0122461915,-24.2557010651,49.3316459656,171.3084411621,0.2111310959,0.0607472360,-0.0933104157,-2.5390274525,84.4099807739,-92.0711364746,0.0299123526,0.0268745720,0.0225393176,49.8160858154,34.4216499329,-92.5766906738,0.0535600185,-0.0228881836,-0.0108638406,
338.513,-3.3291974068,1.4141162634,39.3697814941,0.0588581674,0.0453597978,0.0088287592,-23.9921455383,49.0605850220,171.5395507813,0.2090161443,0.0599540770,-0.0909690857,-2.7272322178,84.4181213379,-92.2513809204,0.0294378996,0.0174293518,0.0153668523,49.8216247559,34.4113044739,-92.5625076294,0.0631766319,-0.0342481136,-0.0128219128,
338.523,-3.3290584087,1.4121639729,39.3703346252,0.0646834821,0.0429160148,0.0073636174,-23.6946601868,48.7908859253,171.7711944580,0.2044585347,0.0734032989,-0.0853379369,-2.8660233021,84.4208602905,-92.3843994141,0.0309073925,0.0201091468,0.0188432932,49.8265228271,34.4080390930,-92.5505371094,0.0523874760,-0.0318768024,-0.0171832442,
338.533,-3.3280932903,1.4132912159,39.3702239990,0.0603086166,0.0458288714,0.0102918148,-23.3767395020,48.5166931152,172.0086212158,0.2037385702,0.0875888467,-0.0856989622,-2.9861090183,84.4227523804,-92.5011520386,0.0270043612,0.0193391442,0.0247438550,49.8346481323,34.4042816162,-92.5380172729,0.0542865396,-0.0227032900,-0.0117465854,
338.543,-3.3305032253,1.4119007587,39.3725738525,0.0632140413,0.0380583815,0.0107827187,-23.0579223633,48.2448577881,172.2543029785,0.1947280765,0.1065849364,-0.0762528181,-3.1224400997,84.4277801514,-92.6367950439,0.0226183534,0.0220120847,0.0224008560,49.8422012329,34.3953170776,-92.5262756348,0.0619698763,-0.0174698234,-0.0034193993,
338.553,-3.3305711746,1.4128547907,39.3718299866,0.0607892796,0.0444071963,0.0102943778,-22.7635173798,47.9776229858,172.5023498535,0.1969850063,0.1164936423,-0.0890854597,-3.2861857414,84.4356994629,-92.7999191284,0.0157958269,0.0217995644,0.0215738416,49.8544960022,34.3835754395,-92.5105514526,0.0652187467,-0.0142546296,-0.0072652698,
338.563,-3.3302040100,1.4132798910,39.3729019165,0.0627498254,0.0458656363,0.0029705763,-22.5036697388,47.7140693665,172.7507781982,0.2007338405,0.1189015210,-0.0899848938,-3.4889574051,84.4441604614,-93.0021591187,0.0221577883,0.0192116201,0.0222254992,49.8665962219,34.3728561401,-92.4952011108,0.0484627485,-0.0227485299,-0.0081764460,
338.573,-3.3303773403,1.4141101837,39.3728103638,0.0593463443,0.0439155065,0.0146893859,-22.2725887299,47.4536590576,172.9939727783,0.2093868852,0.1108269393,-0.0970511436,-3.7183561325,84.4524917603,-93.2299041748,0.0207070112,0.0254576206,0.0219035745,49.8794517517,34.3611106873,-92.4792175293,0.0463404655,-0.0136790276,-0.0154337883,
338.583,-3.3313906193,1.4129989147,39.3727455139,0.0617683604,0.0410034955,0.0117604733,-22.0555992126,47.1909523010,173.2330474854,0.2101850510,0.1063019037,-0.0850266814,-3.9282670021,84.4597015381,-93.4394607544,0.0216957331,0.0253225565,0.0279086232,49.8960571289,34.3447380066,-92.4616088867,0.0724717379,-0.0144448280,-0.0148664117,
338.593,-3.3315529823,1.4106991291,39.3751487732,0.0641696379,0.0395415425,0.0083416700,-21.8510608673,46.9202957153,173.4631958008,0.2098964453,0.0906892121,-0.0969536901,-4.1014137268,84.4622879028,-93.6077804565,0.0270711780,0.0256173015,0.0309018493,49.9065589905,34.3334045410,-92.4438781738,0.0625427961,-0.0253697634,-0.0143339038,
338.603,-3.3310172558,1.4103387594,39.3769531250,0.0592805408,0.0463681482,0.0049229860,-21.6441955566,46.6381530762,173.6807708740,0.2055476904,0.0804436803,-0.0904588699,-4.2683982849,84.4683761597,-93.7660598755,0.0319642425,0.0215019882,0.0202855468,49.9191932678,34.3208045959,-92.4236984253,0.0755447745,-0.0123984218,-0.0167159438,
338.613,-3.3319151402,1.4097157717,39.3792877197,0.0626876354,0.0390595868,0.0112713575,-21.4200496674,46.3464660645,173.8977813721,0.1927654743,0.0734329224,-0.0773019195,-4.4056949615,84.4715270996,-93.8959350586,0.0295281410,0.0241750777,0.0252382159,49.9274749756,34.3098678589,-92.4070358276,0.0690394640,-0.0198817849,-0.0108343959,
338.623,-3.3308560848,1.4099402428,39.3809700012,0.0636681169,0.0439239517,0.0054109097,-21.1797351837,46.0417785645,174.1049346924,0.1954321265,0.0701675117,-0.0819304585,-4.5231027603,84.4787979126,-94.0066452026,0.0187981725,0.0277847648,0.0214703083,49.9349288940,34.2976989746,-92.3926391602,0.0683757067,-0.0166246891,-0.0039933920,
338.633,-3.3298916817,1.4125077724,39.3820304871,0.0554121360,0.0414656810,0.0073637962,-20.9185771942,45.7315864563,174.3070526123,0.2009409666,0.0695777386,-0.0881608129,-4.7279939651,84.4883575439,-94.2079315186,0.0188142061,0.0232394636,0.0172671676,49.9459114075,34.2845611572,-92.3751602173,0.0554909706,-0.0168254972,-0.0103030205,
338.643,-3.3297121525,1.4107888937,39.3838081360,0.0641712025,0.0429274365,0.0088285208,-20.6476497650,45.4179153442,174.4990081787,0.2010150552,0.0737285614,-0.0866404176,-4.9710006714,84.5008926392,-94.4465255737,0.0163937807,0.0265663564,0.0175118446,49.9556999207,34.2708473206,-92.3588943481,0.0479689837,-0.0277616382,-0.0073515773,
338.653,-3.3298962116,1.4093555212,39.3855705261,0.0631696358,0.0395127200,0.0088275075,-20.3696098328,45.1042022705,174.6883087158,0.2030205131,0.0855623931,-0.1031964421,-5.2266106606,84.5123367310,-94.7002410889,0.0061590075,0.0323556364,0.0211621523,49.9699974060,34.2517356873,-92.3416290283,0.0584354997,-0.0192490220,-0.0078032613,
338.663,-3.3300621510,1.4087891579,39.3873291016,0.0602300614,0.0395156182,0.0117571354,-20.0933990479,44.7819404602,174.8724822998,0.2034339905,0.0773857236,-0.0944305658,-5.6020445824,84.5247497559,-95.0773239136,0.0149687529,0.0188136995,0.0170360804,49.9843940735,34.2341766357,-92.3225936890,0.0469516516,-0.0185380578,-0.0092192888,
338.673,-3.3287804127,1.4079045057,39.3872947693,0.0607029088,0.0448644087,0.0039432645,-19.8219966888,44.4546051025,175.0541839600,0.2140157819,0.0907216817,-0.1086293459,-5.9906835556,84.5358505249,-95.4698486328,0.0198700428,0.0179882348,0.0187578201,50.0035362244,34.2095184326,-92.3010406494,0.0588028431,-0.0096238256,-0.0028162003,
338.683,-3.3275165558,1.4094440937,39.3889732361,0.0592649281,0.0424009487,0.0112665296,-19.5666713715,44.1269340515,175.2340545654,0.2079690695,0.1012700647,-0.1217629910,-6.3670849800,84.5457229614,-95.8517990112,0.0291637778,0.0215365589,0.0204536319,50.0177040100,34.1849288940,-92.2823486328,0.0643072128,-0.0187290907,-0.0091618896,
338.693,-3.3262474537,1.4084775448,39.3907470703,0.0616894700,0.0423788652,0.0132182837,-19.3279285431,43.7905349731,175.4178619385,0.2110669613,0.1129809916,-0.1041412354,-6.7057037354,84.5542449951,-96.1950836182,0.0267364979,0.0259973109,0.0270117521,50.0351295471,34.1614074707,-92.2635574341,0.0634793043,-0.0224854350,-0.0130236149,
338.703,-3.3248002529,1.4079813957,39.3919372559,0.0597276911,0.0452833585,0.0078455210,-19.1157588959,43.4582023621,175.6012115479,0.2063799500,0.1142076701,-0.1166126132,-7.0754284859,84.5619201660,-96.5694503784,0.0150304437,0.0222093761,0.0233100057,50.0542945862,34.1340980530,-92.2431106567,0.0708973408,-0.0160322785,-0.0120059848,
338.713,-3.3230872154,1.4091619253,39.3935813904,0.0626779720,0.0418355204,0.0112619400,-18.9197330475,43.1260185242,175.7863311768,0.2133904696,0.1082650274,-0.1172748804,-7.4634418488,84.5695571899,-96.9635696411,0.0306680799,0.0243097544,0.0225420594,50.0745658875,34.1104431152,-92.2220077515,0.0656727552,-0.0207926631,-0.0163256526,
