Time(sec),Gyr1_X(deg/sec),Gyr1_Y(deg/sec),Gyr1_Z(deg/sec),Acc1_X(m/s^2),Acc1_Y(m/s^2),Acc1_Z(m/s^2),Gyr2_X(deg/sec),Gyr2_Y(deg/sec),Gyr2_Z(deg/sec),Acc2_X(m/s^2),Acc2_Y(m/s^2),Acc2_Z(m/s^2),Gyr_X(deg/sec),Gyr_Y(deg/sec),Gyr_Z(deg/sec),Acc_X(m/s^2),Acc_Y(m/s^2),Acc_Z(m/s^2),Gyr_X(deg/sec),Gyr_Y(deg/sec),Gyr_Z(deg/sec),Acc_X(m/s^2),Acc_Y(m/s^2),Acc_Z(m/s^2),
122.663,-3.2576067448,1.3822066784,14.2138824463,0.0607428104,0.0397189893,0.0097203851,-107.5743484497,73.2960662842,48.8806877136,0.0369043350,0.0532068610,0.0074757338,15.6664514542,83.4897003174,105.0588302612,0.0306608677,0.0216064155,0.0247534513,48.4901123047,36.3010711670,93.8491134644,0.0759149790,-0.0162070394,-0.0093100667,
122.673,-3.2586970329,1.3807885647,14.2144775391,0.0626711920,0.0451091044,0.0033731461,-107.2100906372,73.1946563721,49.2373924255,0.0393238068,0.0582976043,0.0169680715,15.6099967957,83.4906387329,105.0084152222,0.0257799029,0.0231849551,0.0266913772,48.4934310913,36.2970275879,93.8591918945,0.0656042099,-0.0167576075,-0.0136972666,
122.683,-3.2572751045,1.3795547485,14.2139024734,0.0597199760,0.0475257747,0.0053244233,-106.8476333618,73.0918960571,49.5891342163,0.0397802591,0.0565652251,0.0093616843,15.5884923935,83.4956970215,104.9929656982,0.0248133540,0.0222733021,0.0096732974,48.4931526184,36.2940063477,93.8669052124,0.0670265555,-0.0158017874,-0.0107913613,
122.693,-3.2553784847,1.3789055347,14.2156991959,0.0601969287,0.0426099412,0.0023926497,-106.4684524536,72.9936752319,49.9509315491,0.0353740454,0.0621034801,0.0109046698,15.5572013855,83.4988327026,104.9648666382,0.0311672091,0.0189302266,0.0248444676,48.4898872375,36.2956275940,93.8718795776,0.0572836995,-0.0230829716,-0.0132559538,
122.703,-3.2548663616,1.3765671253,14.2175083160,0.0665037856,0.0440659188,0.0126445293,-106.0903472900,72.8964004517,50.3103561401,0.0378057957,0.0676180720,0.0143769383,15.5543756485,83.5020294189,104.9653167725,0.0267789960,0.0194387138,0.0200130343,48.4863700867,36.2902412415,93.8779754639,0.0669735670,-0.0172324777,0.0003420115,
122.713,-3.2533802986,1.3773899078,14.2186393738,0.0591939278,0.0455048569,0.0019018650,-105.7194976807,72.7991027832,50.6629829407,0.0387698412,0.0667675436,0.0124906301,15.5374231339,83.5064086914,104.9526138306,0.0272759199,0.0238857865,0.0156804323,48.4882354736,36.2855148315,93.8858795166,0.0708132982,-0.0119153261,-0.0084597468,
122.723,-3.2557635307,1.3781169653,14.2203063965,0.0621362999,0.0382221267,0.0116696954,-105.3484954834,72.6977005005,51.0171508789,0.0367801189,0.0640233457,0.0062029362,15.5011205673,83.5098495483,104.9194183350,0.0282592773,0.0210421383,0.0225539207,48.4870681763,36.2852020264,93.8909912109,0.0639729500,-0.0216724873,-0.0162866712,
122.733,-3.2562937737,1.3808648586,14.2220029831,0.0529069006,0.0382313021,0.0126480460,-104.9843521118,72.5961227417,51.3633842468,0.0367396474,0.0646834075,0.0092034340,15.4749984741,83.5128173828,104.8969268799,0.0282651186,0.0235472918,0.0211230516,48.4843254089,36.2814216614,93.8929901123,0.0668494701,-0.0192347169,-0.0055992603,
122.743,-3.2552659512,1.3821635246,14.2224988937,0.0597654954,0.0460258685,0.0082532167,-104.6114959717,72.4905624390,51.7182426453,0.0405814648,0.0600398779,0.0067815781,15.4527454376,83.5167388916,104.8788299561,0.0248548985,0.0265379548,0.0177580714,48.4883270264,36.2808532715,93.9003829956,0.0585407019,-0.0148819089,-0.0177679658,
122.753,-3.2559504509,1.3835495710,14.2235479355,0.0617428049,0.0421315059,0.0087422729,-104.2237167358,72.3805770874,52.0858345032,0.0434201360,0.0608510971,0.0062285662,15.4393939972,83.5183715820,104.8708953857,0.0268112421,0.0260830820,0.0216850638,48.4888076782,36.2792587280,93.9071807861,0.0648659468,-0.0153869987,-0.0109378695,
122.763,-3.2557237148,1.3839043379,14.2247343063,0.0568661839,0.0431041159,0.0116724372,-103.8065795898,72.2647323608,52.4859504700,0.0432944894,0.0661794841,0.0250504613,15.4349699020,83.5210723877,104.8726501465,0.0243751407,0.0226857364,0.0178201795,48.4854812622,36.2789077759,93.9127655029,0.0614430308,-0.0241476297,-0.0085335970,
122.773,-3.2546756268,1.3838306665,14.2259492874,0.0583297387,0.0460155457,0.0102059841,-103.3987274170,72.1411361694,52.8822517395,0.0323812366,0.0569637120,0.0033917427,15.4137449265,83.5223083496,104.8557815552,0.0214478970,0.0212674737,0.0227119923,48.4887619019,36.2742309570,93.9218826294,0.0730960369,-0.0110309124,-0.0114611983,
122.783,-3.2531895638,1.3822476864,14.2253456116,0.0607435256,0.0435482860,-0.0000493526,-102.9675445557,72.0160369873,53.3051414490,0.0297562480,0.0634155273,0.0128334165,15.4124078751,83.5250091553,104.8593673706,0.0248711705,0.0276293755,0.0242179632,48.4893493652,36.2696304321,93.9272460938,0.0661953092,-0.0115601420,-0.0026970506,
122.793,-3.2544546127,1.3823224306,14.2264833450,0.0597682707,0.0401523598,0.0048342347,-102.5445098877,71.8851699829,53.7227745056,0.0368610620,0.0660333037,0.0081443191,15.3843116760,83.5289154053,104.8348083496,0.0287851095,0.0237959623,0.0193886161,48.4932479858,36.2657585144,93.9346542358,0.0705353618,-0.0062553287,-0.0095184445,
122.803,-3.2568514347,1.3822362423,14.2281818390,0.0626964569,0.0382409878,0.0077664256,-102.1115646362,71.7529907227,54.1535072327,0.0322350264,0.0593951643,0.0150901079,15.3434829712,83.5310974121,104.7984161377,0.0243948698,0.0214420259,0.0242807269,48.4948539734,36.2590522766,93.9425735474,0.0645815730,-0.0141347051,-0.0056412220,
122.813,-3.2573096752,1.3829244375,14.2292537689,0.0622201823,0.0406903550,0.0136265755,-101.6769256592,71.6267852783,54.5838737488,0.0339844227,0.0716921985,0.0219708085,15.3037738800,83.5357666016,104.7627258301,0.0219626427,0.0234937072,0.0126221180,48.4980430603,36.2515754700,93.9507751465,0.0708240867,-0.0098276734,-0.0095649362,
122.823,-3.2586491108,1.3826119900,14.2297286987,0.0631912947,0.0377840102,0.0063036680,-101.2415084839,71.5014495850,55.0117607117,0.0303629637,0.0658974648,0.0117195249,15.2701520920,83.5389785767,104.7340011597,0.0273400545,0.0274780989,0.0238828063,48.4986114502,36.2506179810,93.9579238892,0.0620214939,-0.0210708976,-0.0120069981,
122.833,-3.2579541206,1.3836002350,14.2296237946,0.0607671291,0.0470492207,0.0092329979,-100.7933578491,71.3816375732,55.4544105530,0.0301856995,0.0795441866,0.0169714689,15.2300424576,83.5397720337,104.6954727173,0.0244119167,0.0236538947,0.0229036212,48.4987754822,36.2482376099,93.9640579224,0.0590583086,-0.0181611180,-0.0037207007,
122.843,-3.2567341328,1.3808339834,14.2320451736,0.0656016767,0.0401920974,0.0033712983,-100.3450317383,71.2687683105,55.9029350281,0.0295549035,0.0852514505,0.0153316855,15.1930513382,83.5440826416,104.6621627808,0.0283266306,0.0247198939,0.0185555816,48.4954757690,36.2484054565,93.9675521851,0.0541778803,-0.0181289911,-0.0101019740,
122.853,-3.2557101250,1.3801610470,14.2332630157,0.0582657158,0.0416391194,0.0097172260,-99.8938217163,71.1480102539,56.3641815186,0.0357119441,0.0734954178,0.0146425366,15.1315507889,83.5464782715,104.6047363281,0.0249133706,0.0214318037,0.0219843984,48.4966850281,36.2434806824,93.9753799438,0.0692452192,-0.0132955909,-0.0130526423,
122.863,-3.2536525726,1.3773204088,14.2339382172,0.0635872409,0.0474627204,0.0092263818,-99.4387893677,71.0235290527,56.8359375000,0.0350076556,0.0700890422,0.0226966143,15.0637607574,83.5500411987,104.5419540405,0.0293148756,0.0162069798,0.0229839087,48.4990310669,36.2381134033,93.9856414795,0.0750290751,-0.0172651410,-0.0115997195,
122.873,-3.2529036999,1.3782721758,14.2357187271,0.0567679144,0.0450082496,0.0028778315,-98.9880294800,70.8872222900,57.3108787537,0.0415556431,0.0683188736,0.0127030015,15.0230960846,83.5548400879,104.5078964233,0.0195586681,0.0265602469,0.0215765834,48.5022468567,36.2346687317,93.9931793213,0.0642383695,-0.0187866688,-0.0164722204,
122.883,-3.2529575825,1.3782943487,14.2357330322,0.0553034544,0.0445209071,0.0004368424,-98.5398635864,70.7435607910,57.7921943665,0.0392668247,0.0656743050,0.0090513229,14.9947452545,83.5619049072,104.4860763550,0.0205490589,0.0290875435,0.0167959929,48.5038223267,36.2330513000,94.0029830933,0.0568913817,-0.0149075985,-0.0067009926,
122.893,-3.2524867058,1.3798635006,14.2374753952,0.0567956790,0.0440243855,0.0043427944,-98.0998306274,70.5913391113,58.2728157043,0.0378990173,0.0670512021,0.0103094578,14.9840240479,83.5702590942,104.4814605713,0.0278896093,0.0257267952,0.0164390206,48.5058631897,36.2266578674,94.0126266479,0.0670553446,-0.0130228400,-0.0081879497,
122.903,-3.2523283958,1.3808587790,14.2392473221,0.0568130426,0.0449981727,0.0092265606,-97.6691894531,70.4319610596,58.7476615906,0.0389241576,0.0616858602,0.0047604442,14.9268674850,83.5759353638,104.4315109253,0.0215530396,0.0239081681,0.0179672241,48.5076828003,36.2229995728,94.0228195190,0.0533319116,-0.0116032958,-0.0037992597,
122.913,-3.2545094490,1.3794494867,14.2392778397,0.0606947020,0.0455244742,0.0121569633,-97.2333221436,70.2672576904,59.2258796692,0.0360043645,0.0602997839,0.0152640343,14.8790521622,83.5857696533,104.3897705078,0.0240136385,0.0211134255,0.0093162656,48.5066299438,36.2175559998,94.0306167603,0.0635091662,-0.0189597011,-0.0092187524,
122.923,-3.2541275024,1.3808498383,14.2409934998,0.0573011711,0.0416115336,0.0019041300,-96.8062591553,70.1020889282,59.6934852600,0.0413747430,0.0647594929,0.0033150911,14.8105916977,83.5919723511,104.3273391724,0.0357444882,0.0222481787,0.0196372271,48.5058021545,36.2132148743,94.0388336182,0.0624714494,-0.0282627940,-0.0107215047,
122.933,-3.2537860870,1.3806979656,14.2421560287,0.0607164875,0.0435587168,0.0092272758,-96.3673400879,69.9367980957,60.1763534546,0.0379475951,0.0711632967,0.0176212192,14.7459373474,83.5978240967,104.2693099976,0.0225722790,0.0228855908,0.0221418142,48.5083885193,36.2097091675,94.0491790771,0.0599806905,-0.0156187415,-0.0077890158,
122.943,-3.2521986961,1.3812358379,14.2438764572,0.0602375939,0.0415779278,-0.0000512600,-95.9567413330,69.7657470703,60.6361351013,0.0413137674,0.0649313331,-0.0006517768,14.7014312744,83.6040420532,104.2301559448,0.0260023475,0.0273922086,0.0227101445,48.5071372986,36.2020759583,94.0543746948,0.0740334392,-0.0220135450,-0.0093186498,
122.953,-3.2514002323,1.3802195787,14.2432947159,0.0568018928,0.0410757624,0.0048303604,-95.5689239502,69.5894470215,61.0791053772,0.0431748033,0.0655893087,-0.0007531047,14.6521282196,83.6118927002,104.1825790405,0.0323652625,0.0245905817,0.0174432397,48.5081939697,36.1936035156,94.0627059937,0.0709843636,-0.0123232603,-0.0064361691,
122.963,-3.2527277470,1.3812150955,14.2431783676,0.0582841039,0.0401223004,-0.0000506639,-95.1998977661,69.4077377319,61.5065956116,0.0484117270,0.0638685524,-0.0080963969,14.6145877838,83.6182250977,104.1473236084,0.0274947286,0.0266426504,0.0175288320,48.5095863342,36.1859626770,94.0686645508,0.0655056238,-0.0172779560,-0.0069615841,
122.973,-3.2525358200,1.3784668446,14.2444725037,0.0611658394,0.0430487171,0.0072721243,-94.8416366577,69.2241744995,61.9195823669,0.0516746640,0.0606935024,0.0055853128,14.5641393661,83.6259078979,104.0998611450,0.0299510360,0.0228658915,0.0200728178,48.5100975037,36.1830825806,94.0745544434,0.0581408143,-0.0231643915,-0.0143002272,
122.983,-3.2512979507,1.3784297705,14.2449874878,0.0645831674,0.0488865227,0.0116657019,-94.5008926392,69.0384597778,62.3058509827,0.0471020341,0.0614359975,-0.0070262551,14.5123548508,83.6308593750,104.0498199463,0.0241012573,0.0224975944,0.0196406841,48.5128860474,36.1788673401,94.0824661255,0.0614994168,-0.0217580795,-0.0089284778,
122.993,-3.2493495941,1.3796076775,14.2460870743,0.0602091849,0.0449462980,0.0053165555,-94.1504287720,68.8524017334,62.6974449158,0.0513064861,0.0719407201,0.0076081157,14.4528522491,83.6341857910,103.9926986694,0.0289905071,0.0231133997,0.0250368118,48.5137939453,36.1714401245,94.0883026123,0.0745784044,-0.0144996047,-0.0089694858,
123.003,-3.2483103275,1.3803887367,14.2471466064,0.0636407807,0.0439516231,0.0028744936,-93.8136215210,68.6685104370,63.0814437866,0.0496554971,0.0775087476,0.0086158514,14.4190387726,83.6381301880,103.9613037109,0.0314395428,0.0236829519,0.0221558213,48.5162925720,36.1711387634,94.0943908691,0.0550429225,-0.0198963881,-0.0182225108,
123.013,-3.2509419918,1.3804113865,14.2495679855,0.0558286719,0.0396029279,0.0019004345,-93.4811706543,68.4872360229,63.4725341797,0.0460585952,0.0791108310,0.0218210816,14.4017057419,83.6481246948,103.9464340210,0.0275526047,0.0208283961,0.0037566423,48.5201377869,36.1691093445,94.1034011841,0.0628268123,-0.0189713240,-0.0186839700,
123.023,-3.2511897087,1.3837803602,14.2524862289,0.0529577732,0.0435134135,0.0067849159,-93.1839523315,68.3020401001,63.8390846252,0.0477980971,0.0787978172,0.0078780055,14.3372049332,83.6489257813,103.8844680786,0.0251127481,0.0194897056,0.0320585966,48.5221519470,36.1635360718,94.1092529297,0.0725138783,-0.0131738186,-0.0104003549,
123.033,-3.2494630814,1.3860017061,14.2542142868,0.0544613749,0.0420184433,0.0023891926,-92.9175338745,68.1098022461,64.1818847656,0.0445992947,0.0722281933,-0.0019842386,14.2999458313,83.6547622681,103.8476791382,0.0231708884,0.0269093513,0.0218827128,48.5246467590,36.1556129456,94.1159820557,0.0733787417,-0.0117933750,-0.0089629292,
123.043,-3.2505745888,1.3862633705,14.2559595108,0.0593487509,0.0405729525,0.0082504153,-92.6641159058,67.9091339111,64.5165328979,0.0447526574,0.0604093373,0.0013992190,14.2451877594,83.6603622437,103.7954254150,0.0231816769,0.0192244947,0.0219487548,48.5278854370,36.1534576416,94.1246414185,0.0630944967,-0.0196527839,-0.0138261318,
123.053,-3.2512049675,1.3855930567,14.2577781677,0.0583604947,0.0400956646,0.0092268586,-92.4273910522,67.7040328979,64.8332977295,0.0502364635,0.0647597909,-0.0009923577,14.2047653198,83.6653747559,103.7591705322,0.0241678953,0.0256700218,0.0200592279,48.5285797119,36.1483116150,94.1305236816,0.0532563925,-0.0187222958,-0.0079944134,
123.063,-3.2490279675,1.3853030205,14.2589340210,0.0632382482,0.0478702523,0.0062951446,-92.1906204224,67.4902572632,65.1390609741,0.0512558818,0.0565446913,0.0004997253,14.1373748779,83.6693954468,103.6954040527,0.0246639252,0.0204437673,0.0279061794,48.5288619995,36.1409530640,94.1361618042,0.0619417429,-0.0192699432,-0.0070649981,
123.073,-3.2501974106,1.3872631788,14.2612028122,0.0598544776,0.0425194912,0.0053206086,-91.9730377197,67.2802886963,65.4194564819,0.0503349900,0.0658312142,-0.0115814209,14.0903272629,83.6758422852,103.6514587402,0.0276060104,0.0215362012,0.0221298337,48.5301437378,36.1319389343,94.1424331665,0.0706037283,-0.0159334540,-0.0041831732,
123.083,-3.2510013580,1.3886882067,14.2605056763,0.0569496527,0.0439982973,0.0087399483,-91.7491912842,67.0685882568,65.6997909546,0.0596438050,0.0731842220,-0.0056642890,14.0331897736,83.6807174683,103.5961990356,0.0251739621,0.0187350512,0.0221830606,48.5307846069,36.1267929077,94.1480102539,0.0617421269,-0.0218386054,-0.0115361214,
123.093,-3.2510590553,1.3879598379,14.2610912323,0.0579135083,0.0381399468,-0.0029790998,-91.5291061401,66.8659667969,65.9810028076,0.0538656712,0.0867283642,0.0002480745,13.9974079132,83.6847152710,103.5614624023,0.0217636824,0.0251671076,0.0129551291,48.5295829773,36.1229324341,94.1516952515,0.0714533329,-0.0155093670,-0.0086451173,
123.103,-3.2495369911,1.3899406195,14.2614717484,0.0638074428,0.0434844717,0.0082507133,-91.3169479370,66.6631011963,66.2703857422,0.0549101830,0.0875698626,0.0066786408,13.9824314117,83.6854934692,103.5471878052,0.0305542350,0.0203159451,0.0183321238,48.5339012146,36.1172370911,94.1582260132,0.0777206421,-0.0131522417,-0.0174273252,
123.113,-3.2494950294,1.3896489143,14.2618989944,0.0672203228,0.0405540653,0.0019028187,-91.1197280884,66.4592361450,66.5610504150,0.0505651832,0.0903687477,0.0078182220,13.9782962799,83.6881637573,103.5450286865,0.0256765485,0.0193581581,0.0159327388,48.5308914185,36.1174812317,94.1598434448,0.0625874400,-0.0228878260,-0.0086684227,
123.123,-3.2483060360,1.3903416395,14.2629337311,0.0643027201,0.0400450602,0.0121560693,-90.9426803589,66.2526321411,66.8460083008,0.0447245240,0.0805044174,0.0032185912,13.9730653763,83.6875076294,103.5390396118,0.0271401405,0.0247366428,0.0183618665,48.5323486328,36.1190795898,94.1634521484,0.0616334081,-0.0145882964,-0.0125480890,
123.133,-3.2455122471,1.3917320967,14.2646350861,0.0618855767,0.0478088520,0.0097120404,-90.7633132935,66.0458297729,67.1376647949,0.0374056697,0.0720987916,0.0142078400,13.9773616791,83.6906204224,103.5442428589,0.0193336010,0.0242522359,0.0237822533,48.5367546082,36.1208686829,94.1697540283,0.0567758083,-0.0160806179,-0.0178610086,
123.143,-3.2454063892,1.3922986984,14.2651529312,0.0579892099,0.0385296568,0.0067826509,-90.5913391113,65.8369750977,67.4145355225,0.0388493538,0.0583463907,0.0135096908,13.9788208008,83.6965255737,103.5454711914,0.0286222696,0.0281807780,0.0165601969,48.5400047302,36.1207962036,94.1771163940,0.0572630167,-0.0122051835,-0.0114791989,
123.153,-3.2458274364,1.3942037821,14.2668533325,0.0580224507,0.0429314747,0.0126434565,-90.4140319824,65.6318206787,67.6839904785,0.0373778343,0.0635697246,0.0059168339,13.9483842850,83.7025604248,103.5181808472,0.0266807079,0.0219154358,0.0239695311,48.5450668335,36.1180534363,94.1861190796,0.0547829866,-0.0069025755,-0.0080264807,
123.163,-3.2454957962,1.3944048882,14.2685766220,0.0614439324,0.0414608456,0.0009244084,-90.2338638306,65.4303359985,67.9430770874,0.0364094973,0.0667728186,0.0046305060,13.9041376114,83.7049865723,103.4769058228,0.0188728571,0.0264036059,0.0318014622,48.5496101379,36.1136856079,94.1964797974,0.0605807304,-0.0162559748,-0.0124027729,
123.173,-3.2473194599,1.3944818974,14.2690887451,0.0619335547,0.0424691774,0.0092270374,-90.0453948975,65.2322692871,68.1970520020,0.0432674885,0.0679592192,0.0130290389,13.8510675430,83.7145919800,103.4286422729,0.0159615278,0.0265430212,0.0241224766,48.5555801392,36.1074905396,94.2076492310,0.0668410659,-0.0163593888,-0.0143348575,
123.183,-3.2486777306,1.3914920092,14.2708835602,0.0682290420,0.0420046300,-0.0005383492,-89.8579635620,65.0418014526,68.4458999634,0.0511471629,0.0778045356,0.0101847649,13.7789688110,83.7223281860,103.3626022339,0.0218356848,0.0232925117,0.0247048140,48.5599060059,36.1007766724,94.2167282104,0.0608870387,-0.0140101910,-0.0133582354,
123.193,-3.2476494312,1.3905658722,14.2714109421,0.0652831942,0.0439398624,0.0048308372,-89.6772308350,64.8506774902,68.6885070801,0.0536407828,0.0798400640,0.0098112226,13.6956491470,83.7269515991,103.2829284668,0.0233093500,0.0185854733,0.0232775211,48.5588226318,36.0960731506,94.2233428955,0.0554495454,-0.0242902040,-0.0109604001,
123.203,-3.2488479614,1.3908739090,14.2731065750,0.0613823198,0.0381013528,0.0097156763,-89.5031127930,64.6609649658,68.9226684570,0.0497872829,0.0696373284,0.0060505867,13.6209983826,83.7336502075,103.2135467529,0.0306463242,0.0246124268,0.0145646334,48.5617713928,36.0919418335,94.2310028076,0.0563678741,-0.0140956640,-0.0138870478,
123.213,-3.2497580051,1.3900485039,14.2743110657,0.0608796403,0.0434883237,0.0077621937,-89.3225555420,64.4678192139,69.1655960083,0.0517573953,0.0707098544,0.0110117197,13.5549907684,83.7386550903,103.1518936157,0.0272378922,0.0164563656,0.0278026462,48.5636215210,36.0840873718,94.2380752563,0.0772531629,-0.0156383514,-0.0144091845,
123.223,-3.2490127087,1.3872069120,14.2749567032,0.0632714629,0.0429871306,0.0009250045,-89.1519775391,64.2727279663,69.4013671875,0.0522376895,0.0698508322,0.0091937184,13.5005426407,83.7454223633,103.1012878418,0.0267624855,0.0170741975,0.0171479583,48.5653114319,36.0791625977,94.2454757690,0.0708360672,-0.0166686177,-0.0134482980,
123.233,-3.2489054203,1.3880054951,14.2760953903,0.0593791455,0.0449383669,0.0048314333,-88.9881210327,64.0754241943,69.6363754272,0.0478078127,0.0656015873,0.0083841085,13.4607172012,83.7504425049,103.0652770996,0.0262837410,0.0176573694,0.0216078162,48.5699234009,36.0718307495,94.2548828125,0.0736624002,-0.0104203820,-0.0173553228,
123.243,-3.2509341240,1.3884586096,14.2777681351,0.0628050268,0.0396026000,0.0038570166,-88.8311920166,63.8782958984,69.8705673218,0.0428804159,0.0720829368,0.0095639229,13.4262294769,83.7549591064,103.0350418091,0.0267806053,0.0265287161,0.0231295824,48.5757598877,36.0709037781,94.2657470703,0.0565593839,-0.0182946920,-0.0163238049,
123.253,-3.2503614426,1.3879182339,14.2795610428,0.0623073131,0.0464285836,0.0121569633,-88.6957244873,63.6778450012,70.0906906128,0.0467056632,0.0649394989,-0.0037561059,13.3979845047,83.7639465332,103.0110626221,0.0263093710,0.0231995285,0.0178959370,48.5793266296,36.0661354065,94.2766189575,0.0633281469,-0.0159231424,-0.0085052252,
123.263,-3.2530241013,1.3878728151,14.2807149887,0.0584002659,0.0371976197,0.0155774951,-88.5765304565,63.4812164307,70.2972793579,0.0515263081,0.0723806620,-0.0042679310,13.3379068375,83.7683486938,102.9564208984,0.0228997469,0.0262589753,0.0281940699,48.5819931030,36.0607604980,94.2862243652,0.0608108640,-0.0179427862,-0.0060732961,
123.273,-3.2569363117,1.3871726990,14.2811851501,0.0647357106,0.0372657813,0.0111867189,-88.4639205933,63.2835693359,70.5015029907,0.0533987880,0.0686002076,0.0045373440,13.2449359894,83.7786712646,102.8670120239,0.0238958597,0.0191499889,0.0151423812,48.5881538391,36.0532417297,94.2981338501,0.0626578927,-0.0107338428,-0.0114292502,
123.283,-3.2552144527,1.3856838942,14.2824516296,0.0608034804,0.0484662913,0.0004421473,-88.3756027222,63.0870933533,70.6826477051,0.0606408715,0.0628476739,-0.0055207014,13.1789455414,83.7885131836,102.8032760620,0.0234261751,0.0271241069,0.0172281265,48.5898475647,36.0470886230,94.3070907593,0.0606179833,-0.0200744867,-0.0114536285,
123.293,-3.2544987202,1.3871644735,14.2823362350,0.0588761941,0.0450358205,0.0043478012,-88.2871093750,62.8997612000,70.8585586548,0.0537851453,0.0774534047,0.0034589171,13.0914335251,83.7982482910,102.7200393677,0.0244210958,0.0200013220,0.0188161135,48.5910301208,36.0370330811,94.3152923584,0.0663353801,-0.0186979771,-0.0066262484,
123.303,-3.2565433979,1.3870497942,14.2835140228,0.0583859086,0.0416534655,0.0077685118,-88.2017669678,62.7120399475,71.0267333984,0.0596120358,0.0661813915,0.0065947771,13.0123929977,83.8056411743,102.6434097290,0.0229701996,0.0201775134,0.0218341351,48.5926628113,36.0279426575,94.3232040405,0.0754844546,-0.0197597742,-0.0076472163,
123.313,-3.2598013878,1.3868865967,14.2858047485,0.0627775937,0.0353625752,-0.0005297065,-88.1243057251,62.5318336487,71.1891479492,0.0596305132,0.0757851601,0.0053952932,12.9648017883,83.8152770996,102.5988388062,0.0283594131,0.0237213373,0.0151380301,48.5941619873,36.0207977295,94.3289947510,0.0714772940,-0.0164108872,-0.0140280128,
123.323,-3.2606902122,1.3886449337,14.2881469727,0.0540192127,0.0392842665,0.0009370446,-88.0613403320,62.3539085388,71.3457031250,0.0513579249,0.0780285001,-0.0020413399,12.9302778244,83.8191757202,102.5643310547,0.0220190883,0.0238004327,0.0278823376,48.5955848694,36.0169258118,94.3340530396,0.0621453524,-0.0188951492,-0.0081789494,
123.333,-3.2613861561,1.3890497684,14.2893009186,0.0584208071,0.0422260650,-0.0010156631,-88.0098876953,62.1757545471,71.4969940186,0.0582116842,0.0744133890,0.0023294091,12.8888034821,83.8207321167,102.5233917236,0.0269048214,0.0229072869,0.0225200057,48.5965499878,36.0102043152,94.3378219604,0.0718160272,-0.0174914002,-0.0052859187,
123.343,-3.2605981827,1.3909689188,14.2904348373,0.0555246025,0.0451419801,0.0067971349,-87.9703445435,61.9983673096,71.6350326538,0.0548092127,0.0619969070,-0.0005316734,12.8762331009,83.8218994141,102.5125808716,0.0273953080,0.0258648992,0.0254639387,48.6000289917,36.0054779053,94.3434143066,0.0702844262,-0.0190249085,-0.0111396909,
123.353,-3.2619676590,1.3928846121,14.2933435440,0.0560463108,0.0373532884,0.0116822720,-87.9389801025,61.8235015869,71.7571563721,0.0563018918,0.0627215803,-0.0018613338,12.8568372726,83.8230514526,102.4925689697,0.0283740163,0.0224874020,0.0220565796,48.6013259888,36.0053634644,94.3478927612,0.0600289702,-0.0170847774,-0.0111266971,
123.363,-3.2601802349,1.3954590559,14.2950000763,0.0575560704,0.0422049053,0.0043573380,-87.9115982056,61.6468315125,71.8686141968,0.0563066006,0.0624946952,0.0036733150,12.8530693054,83.8259963989,102.4894180298,0.0239850283,0.0254349411,0.0177075267,48.6027908325,36.0053977966,94.3535308838,0.0600294471,-0.0175865293,-0.0086700320,
123.373,-3.2592875957,1.3959125280,14.2961444855,0.0585405454,0.0412127748,0.0077745318,-87.8817291260,61.4674987793,71.9761962891,0.0518861413,0.0574204326,0.0077184439,12.8607225418,83.8285369873,102.4982910156,0.0230132341,0.0259188414,0.0197075009,48.6069869995,36.0025939941,94.3618087769,0.0712203383,-0.0132526755,-0.0179213285,
123.383,-3.2610723972,1.3964521885,14.2955007553,0.0575734042,0.0471032336,-0.0015006661,-87.8481369019,61.2837944031,72.0833816528,0.0537680984,0.0607077479,0.0112388134,12.8371849060,83.8300018311,102.4760589600,0.0288753510,0.0235265493,0.0255795121,48.6086196899,36.0031852722,94.3672027588,0.0619513392,-0.0196110010,-0.0188766718,
123.393,-3.2618589401,1.3945888281,14.2967176437,0.0624237023,0.0417458862,0.0092414618,-87.8087310791,61.0989494324,72.1944580078,0.0439127088,0.0635163486,0.0156835914,12.8348665237,83.8341979980,102.4753799438,0.0235121250,0.0274533331,0.0149079561,48.6064338684,36.0029602051,94.3706817627,0.0560887456,-0.0186159015,0.0001412630,
123.403,-3.2598755360,1.3955025673,14.2972087860,0.0609747991,0.0451292843,0.0043572187,-87.7693405151,60.9095191956,72.3101959229,0.0452397466,0.0659022629,0.0103553534,12.8169717789,83.8388137817,102.4593048096,0.0274270177,0.0255509317,0.0188831091,48.6046829224,36.0020561218,94.3736190796,0.0599822402,-0.0254423618,-0.0135549903,
123.413,-3.2610135078,1.3973847628,14.2976388931,0.0595428012,0.0407545269,-0.0010123849,-87.7325744629,60.7195243835,72.4278411865,0.0494821072,0.0668261051,0.0065113306,12.8018922806,83.8453979492,102.4424667358,0.0274393559,0.0216975510,0.0145913959,48.6034317017,35.9979324341,94.3759078979,0.0745725036,-0.0186264515,-0.0023656487,
123.423,-3.2606287003,1.3967547417,14.2987966537,0.0624614917,0.0436775237,0.0111945868,-87.6887054443,60.5277862549,72.5569763184,0.0502819419,0.0643508434,0.0089488626,12.8143730164,83.8485183716,102.4549255371,0.0191444159,0.0270572305,0.0224610567,48.6053695679,35.9949569702,94.3813781738,0.0637882948,-0.0162261128,-0.0072485805,
123.433,-3.2600109577,1.4000912905,14.2981071472,0.0503126755,0.0446432494,0.0111949444,-87.6499481201,60.3352241516,72.6836624146,0.0525296926,0.0628606677,0.0109373927,12.8140869141,83.8543853760,102.4546279907,0.0279444456,0.0261034966,0.0132816434,48.6088943481,35.9917564392,94.3884201050,0.0642313361,-0.0182366967,-0.0160217285,
123.443,-3.2595922947,1.3985124826,14.3011312485,0.0639570057,0.0436594412,0.0097290277,-87.6106643677,60.1413345337,72.8097152710,0.0454788208,0.0569896400,0.0075458884,12.7791929245,83.8584747314,102.4202957153,0.0235575438,0.0237420499,0.0206580758,48.6146545410,35.9859352112,94.3946075439,0.0709850788,-0.0168704391,-0.0130703449,
123.453,-3.2592000961,1.4005116224,14.3028335571,0.0576442331,0.0436525531,0.0111945271,-87.5687408447,59.9509429932,72.9394226074,0.0521204472,0.0696133971,0.0085245967,12.7448358536,83.8609619141,102.3853530884,0.0284450054,0.0223503709,0.0250797272,48.6139144897,35.9834251404,94.3991088867,0.0563012362,-0.0237187147,-0.0057711005,
123.463,-3.2586653233,1.3995678425,14.3033437729,0.0654402673,0.0421784222,0.0072869658,-87.5282821655,59.7589607239,73.0691375732,0.0494611859,0.0651659966,0.0085343719,12.7064943314,83.8663635254,102.3489074707,0.0250371099,0.0219533145,0.0246645808,48.6185951233,35.9771842957,94.4078674316,0.0718380809,-0.0150214434,-0.0106467605,
123.473,-3.2584490776,1.3978003263,14.3045759201,0.0600383282,0.0387567207,0.0121691823,-87.4835586548,59.5615081787,73.2046585083,0.0560211539,0.0632345080,0.0128935575,12.7014169693,83.8704833984,102.3461532593,0.0255330801,0.0288140476,0.0154532790,48.6179466248,35.9765167236,94.4124145508,0.0532739758,-0.0282040238,-0.0067514777,
123.483,-3.2572236061,1.3988033533,14.3057889938,0.0566378608,0.0509423837,0.0082621574,-87.4353637695,59.3655624390,73.3479614258,0.0479359031,0.0700615048,0.0206363797,12.6522245407,83.8771438599,102.2988357544,0.0245689154,0.0191643834,0.0150551200,48.6199836731,35.9713325500,94.4186096191,0.0688257217,-0.0170326233,-0.0062772036,
123.493,-3.2564463615,1.3993382454,14.3069963455,0.0561589152,0.0450694561,0.0092381239,-87.3909530640,59.1692771912,73.4932861328,0.0471618176,0.0715171099,0.0176665187,12.6034240723,83.8813095093,102.2530364990,0.0260415077,0.0236645341,0.0209627151,48.6210327148,35.9664230347,94.4266815186,0.0633852482,-0.0131738186,0.0020018220,
123.503,-3.2572052479,1.3983792067,14.3080682755,0.0678609312,0.0397116020,0.0097264051,-87.3563156128,58.9725875854,73.6322937012,0.0410028100,0.0641882420,0.0079434514,12.5722827911,83.8880691528,102.2261276245,0.0221478343,0.0266769528,0.0195975900,48.6234931946,35.9635581970,94.4341430664,0.0594385862,-0.0166367888,-0.0141049027,
123.513,-3.2574117184,1.4002234936,14.3091077805,0.0600806102,0.0416682810,0.0072865486,-87.3282089233,58.7813491821,73.7684249878,0.0456252694,0.0758169889,0.0099987984,12.5407018661,83.8933639526,102.1969985962,0.0245990753,0.0248018503,0.0284620523,48.6272697449,35.9578361511,94.4430770874,0.0652170777,-0.0093918443,-0.0101973414,
123.523,-3.2560532093,1.3997143507,14.3097095490,0.0595834479,0.0450625941,0.0058197379,-87.3069610596,58.5841293335,73.9027709961,0.0487189293,0.0694651604,0.0047861338,12.4574918747,83.8989486694,102.1169128418,0.0226563215,0.0166752934,0.0255911946,48.6287689209,35.9524154663,94.4505996704,0.0612342954,-0.0177484155,-0.0063123703,
123.533,-3.2562270164,1.3986145258,14.3095874786,0.0678650364,0.0440890901,0.0038664937,-87.2895355225,58.3827400208,74.0291137695,0.0498112440,0.0543814898,0.0030213594,12.4254646301,83.9014892578,102.0871505737,0.0236375928,0.0309038460,0.0314795971,48.6279029846,35.9456596375,94.4552383423,0.0606505275,-0.0202335715,-0.0049020052,
123.543,-3.2559239864,1.3985182047,14.3113727570,0.0605391376,0.0455486588,0.0063076019,-87.2711944580,58.1787071228,74.1450119019,0.0552632809,0.0495833158,-0.0065673590,12.3398609161,83.9099578857,102.0045700073,0.0275595188,0.0198619664,0.0179129839,48.6313705444,35.9368934631,94.4631347656,0.0717571378,-0.0174036026,-0.0122486949,
123.553,-3.2564833164,1.3973968029,14.3119268417,0.0639375374,0.0426287390,0.0077720881,-87.2454299927,57.9722862244,74.2551422119,0.0562877655,0.0477414727,-0.0001158714,12.2826728821,83.9180679321,101.9503173828,0.0236682892,0.0263445377,0.0170487165,48.6329689026,35.9297752380,94.4714813232,0.0726330876,-0.0169849992,-0.0103268623,
123.563,-3.2582163811,1.3968777657,14.3112697601,0.0595339537,0.0407058112,0.0107039213,-87.2228012085,57.7632331848,74.3499069214,0.0563002825,0.0508149266,-0.0058462620,12.2143487930,83.9245223999,101.8855819702,0.0197739601,0.0240521133,0.0239642859,48.6328926086,35.9253387451,94.4759597778,0.0588985085,-0.0219011903,-0.0079162717,
123.573,-3.2587473392,1.3987900019,14.3111610413,0.0551727861,0.0407150239,0.0024040937,-87.1891403198,57.5527572632,74.4433898926,0.0562881231,0.0529194474,0.0049198270,12.1566915512,83.9300765991,101.8291778564,0.0241787434,0.0212483406,0.0235449672,48.6344451904,35.9227142334,94.4846496582,0.0613028407,-0.0229124427,-0.0108473301,
123.583,-3.2580924034,1.3994212151,14.3117065430,0.0576252043,0.0426567160,0.0024037957,-87.1474456787,57.3383064270,74.5357208252,0.0547624230,0.0487244129,0.0024189949,12.1345787048,83.9341735840,101.8063201904,0.0324870944,0.0276513398,0.0182332993,48.6343879700,35.9216728210,94.4903793335,0.0583584309,-0.0214549899,-0.0035307407,
123.593,-3.2575442791,1.3977063894,14.3116731644,0.0658960640,0.0465534627,0.0077735782,-87.0928268433,57.1256027222,74.6334457397,0.0478702784,0.0523014665,0.0129771829,12.0944061279,83.9397659302,101.7662734985,0.0198020935,0.0189560950,0.0246585011,48.6335220337,35.9184570313,94.4952163696,0.0651488900,-0.0258662105,-0.0094211102,
123.603,-3.2568733692,1.3973932266,14.3114719391,0.0697968528,0.0426355302,0.0131439567,-87.0416412354,56.9152488708,74.7256698608,0.0463601351,0.0602324605,0.0098922253,12.0421752930,83.9448471069,101.7128601074,0.0261591077,0.0205348432,0.0203276873,48.6332550049,35.9102287292,94.4982070923,0.0728451014,-0.0181143880,-0.0016669631,
123.613,-3.2566657066,1.3981592655,14.3125963211,0.0595563129,0.0431201756,0.0067965984,-86.9946212769,56.7065467834,74.8153076172,0.0463193059,0.0666686296,0.0058667660,11.9837722778,83.9538574219,101.6532745361,0.0281288028,0.0196972191,0.0160598755,48.6356315613,35.9069290161,94.5037612915,0.0552203059,-0.0196267962,-0.0124064088,
123.623,-3.2537174225,1.3988431692,14.3131160736,0.0620096549,0.0484398939,0.0106996894,-86.9541931152,56.5024528503,74.9010925293,0.0424055457,0.0725449324,0.0009274483,11.9272327423,83.9592742920,101.5954818726,0.0203262568,0.0232379138,0.0244289041,48.6381912231,35.8995513916,94.5086441040,0.0658582449,-0.0192191005,-0.0119406581,
123.633,-3.2538316250,1.3986954689,14.3148546219,0.0629836321,0.0440473594,0.0097238421,-86.9157714844,56.2984542847,74.9840545654,0.0531305671,0.0681595802,0.0077224970,11.8943567276,83.9678497314,101.5617752075,0.0305958986,0.0291877389,0.0128411055,48.6386337280,35.8893470764,94.5137557983,0.0759678483,-0.0173485279,-0.0080991387,
123.643,-3.2507889271,1.3992432356,14.3148746490,0.0556689724,0.0488771573,0.0023962259,-86.8782272339,56.0982017517,75.0629577637,0.0516744852,0.0651780367,0.0091542006,11.8478384018,83.9707107544,101.5153121948,0.0310894251,0.0224463940,0.0226334929,48.6403770447,35.8851203918,94.5185470581,0.0578416586,-0.0208151340,-0.0125029683,
123.653,-3.2491261959,1.3985174894,14.3172073364,0.0654219389,0.0415239893,0.0170431137,-86.8418350220,55.9043807983,75.1351013184,0.0556422472,0.0684449673,0.0037629604,11.7902040482,83.9728851318,101.4568405151,0.0237691998,0.0230484009,0.0338824391,48.6407737732,35.8799705505,94.5240631104,0.0641164780,-0.0213467479,-0.0066753030,
123.663,-3.2506656647,1.3974509239,14.3183403015,0.0639384836,0.0391094275,0.0097198486,-86.8025360107,55.7168235779,75.2056808472,0.0586856008,0.0735661387,0.0071343184,11.7390031815,83.9751968384,101.4034652710,0.0237734318,0.0207078457,0.0241308212,48.6454429626,35.8715362549,94.5291976929,0.0693683028,-0.0102244616,-0.0013106465,
123.673,-3.2525560856,1.3958271742,14.3190088272,0.0570742115,0.0401189588,0.0063031912,-86.7650222778,55.5308380127,75.2719421387,0.0578293800,0.0649875402,0.0080796480,11.7031192780,83.9827499390,101.3667755127,0.0281817913,0.0227533281,0.0139932036,48.6503486633,35.8698921204,94.5349426270,0.0595794320,-0.0205370784,-0.0164073706,
123.683,-3.2545642853,1.3944077492,14.3195753098,0.0629088208,0.0396656916,0.0097221732,-86.7408981323,55.3469848633,75.3284378052,0.0579621792,0.0700515509,-0.0079334378,11.6760740280,83.9851608276,101.3387756348,0.0257447958,0.0213453174,0.0237836242,48.6508522034,35.8712005615,94.5389480591,0.0591096282,-0.0239495039,-0.0144391060,
123.693,-3.2546522617,1.3932536840,14.3214464188,0.0599590018,0.0484563187,0.0063039660,-86.7075805664,55.1618766785,75.3983306885,0.0522146225,0.0682863593,0.0135564208,11.6659984589,83.9869842529,101.3280181885,0.0281895399,0.0213706195,0.0203960538,48.6518859863,35.8687019348,94.5414810181,0.0678634048,-0.0181190372,-0.0134688616,
123.703,-3.2575590611,1.3893206120,14.3239097595,0.0677028745,0.0406945534,0.0072817802,-86.6802902222,54.9744148254,75.4680023193,0.0469231606,0.0655757785,0.0126405954,11.6677236557,83.9884872437,101.3280258179,0.0208680630,0.0238136649,0.0248140097,48.6527595520,35.8687667847,94.5432739258,0.0634697676,-0.0195915699,-0.0129705667,
123.713,-3.2587285042,1.3886762857,14.3238372803,0.0598791316,0.0363204032,0.0043531656,-86.6563720703,54.7857170105,75.5397949219,0.0464933515,0.0614124537,0.0117566586,11.6654434204,83.9917221069,101.3245544434,0.0218505263,0.0233409405,0.0248686671,48.6535491943,35.8637657166,94.5473709106,0.0687701702,-0.0137779713,-0.0066487193,
123.723,-3.2567324638,1.3890258074,14.3250093460,0.0589086711,0.0450746864,0.0077689290,-86.6274719238,54.6005020142,75.6181793213,0.0456016064,0.0776989460,0.0196116567,11.6661128998,83.9930496216,101.3239822388,0.0238060951,0.0277388692,0.0287975073,48.6566658020,35.8653221130,94.5532150269,0.0546320081,-0.0216076374,-0.0173468590,
123.733,-3.2562432289,1.3889783621,14.3256330490,0.0559781529,0.0440896042,0.0106983781,-86.6048202515,54.4137649536,75.6964569092,0.0363851190,0.0661724806,0.0143426657,11.6413316727,83.9969711304,101.2986602783,0.0238132477,0.0234029293,0.0264117122,48.6573410034,35.8633689880,94.5588989258,0.0526512265,-0.0186992884,-0.0085638165,
123.743,-3.2565767765,1.3879106045,14.3286514282,0.0623071790,0.0431188755,0.0136278272,-86.5890426636,54.2324905396,75.7705001831,0.0360047817,0.0726329684,0.0091465712,11.6004562378,84.0034408569,101.2564849854,0.0277312994,0.0259409249,0.0250390172,48.6640930176,35.8581809998,94.5670623779,0.0638083220,-0.0129428506,-0.0153635144,
123.753,-3.2572689056,1.3894729614,14.3291912079,0.0545219406,0.0421543345,0.0072817206,-86.5779724121,54.0471687317,75.8453445435,0.0428990722,0.0669397116,0.0103430152,11.5334720612,84.0095291138,101.1899795532,0.0243244171,0.0260834694,0.0202317238,48.6691589355,35.8523674011,94.5762481689,0.0583549738,-0.0149878263,-0.0080243349,
123.763,-3.2582924366,1.3889147043,14.3316078186,0.0579301678,0.0387542024,0.0043526888,-86.5699234009,53.8585128784,75.9184875488,0.0487740040,0.0651959181,0.0125427246,11.4675731659,84.0152816772,101.1269912720,0.0292177200,0.0252465010,0.0242105722,48.6751251221,35.8451194763,94.5867156982,0.0650883913,-0.0087515712,-0.0133808851,
123.773,-3.2568235397,1.3861830235,14.3328981400,0.0632535964,0.0475177467,0.0072797537,-86.5656738281,53.6643066406,75.9883728027,0.0526296496,0.0605958700,0.0069645643,11.4147663116,84.0215835571,101.0789413452,0.0341119766,0.0258520246,0.0208781958,48.6753730774,35.8362045288,94.5931320190,0.0737512708,-0.0200528502,-0.0085560083,
123.783,-3.2566351891,1.3872088194,14.3322124481,0.0559472777,0.0411667861,0.0004440546,-86.5518569946,53.4670448303,76.0660934448,0.0515615344,0.0565143824,0.0125147700,11.3618545532,84.0253829956,101.0284271240,0.0219118595,0.0230312943,0.0223873258,48.6744461060,35.8318214417,94.5983123779,0.0668534040,-0.0215425491,-0.0007824302,
123.793,-3.2579889297,1.3879340887,14.3333148956,0.0598661825,0.0397255085,0.0116758347,-86.5234222412,53.2678070068,76.1568069458,0.0475334525,0.0626980066,0.0257222056,11.3132562637,84.0303344727,100.9799270630,0.0233857036,0.0187416077,0.0224524140,48.6780052185,35.8311500549,94.6068572998,0.0600079298,-0.0201161504,-0.0163747668,
123.803,-3.2582032681,1.3882536888,14.3344612122,0.0588952005,0.0416823588,0.0043522120,-86.4996109009,53.0662460327,76.2458343506,0.0522605181,0.0620732903,0.0087007284,11.2658004761,84.0348358154,100.9331970215,0.0199759007,0.0198192894,0.0200688243,48.6789398193,35.8288879395,94.6124267578,0.0643704534,-0.0235601068,-0.0114963651,
123.813,-3.2592184544,1.3875459433,14.3356513977,0.0603476912,0.0431649014,0.0043530464,-86.4736328125,52.8653411865,76.3372802734,0.0452657938,0.0604538918,0.0111861825,11.2193756104,84.0400390625,100.8849334717,0.0253564119,0.0228503346,0.0235562921,48.6812477112,35.8246688843,94.6190872192,0.0638224483,-0.0182431340,-0.0139427781,
123.823,-3.2581825256,1.3864665031,14.3380584717,0.0642351061,0.0480296984,0.0097225904,-86.4472122192,52.6632423401,76.4253082275,0.0402017236,0.0568899512,0.0097577572,11.1829023361,84.0477371216,100.8471603394,0.0263469219,0.0248949528,0.0143942237,48.6865882874,35.8209915161,94.6263885498,0.0549813509,-0.0124617815,-0.0134216547,
123.833,-3.2578077316,1.3876892328,14.3385286331,0.0598619096,0.0416754782,0.0033751726,-86.4271774292,52.4570198059,76.5020828247,0.0428965092,0.0582623482,0.0015550256,11.1146898270,84.0520172119,100.7807159424,0.0239132643,0.0255205631,0.0261582732,48.6898918152,35.8182792664,94.6331329346,0.0515249968,-0.0252087712,-0.0119403601,
123.843,-3.2591793537,1.3872002363,14.3396606445,0.0618065037,0.0397462621,0.0067944527,-86.4058303833,52.2480812073,76.5769348145,0.0538526773,0.0630811453,0.0104246736,11.0587930679,84.0601272583,100.7270736694,0.0229513645,0.0276015699,0.0184628367,48.6939430237,35.8096275330,94.6403503418,0.0699572563,-0.0145708323,-0.0085377693,
123.853,-3.2615845203,1.3874944448,14.3407125473,0.0632764846,0.0383233093,0.0048436522,-86.3858642578,52.0352783203,76.6484298706,0.0515732765,0.0532968044,0.0119804144,10.9881525040,84.0679931641,100.6575698853,0.0258952379,0.0262898207,0.0224745870,48.6976051331,35.7999954224,94.6483459473,0.0727505684,-0.0146788955,-0.0139344335,
123.863,-3.2624979019,1.3855637312,14.3437519073,0.0627545118,0.0412689559,0.0019140244,-86.3677902222,51.8249969482,76.7210159302,0.0502867699,0.0605609417,0.0076971650,10.9051475525,84.0746688843,100.5741043091,0.0298135281,0.0157190859,0.0245101452,48.6967887878,35.7971954346,94.6538619995,0.0565976501,-0.0234818459,-0.0085915327,
123.873,-3.2605850697,1.3843032122,14.3449449539,0.0646856427,0.0490481630,0.0111890435,-86.3519287109,51.6152458191,76.7932357788,0.0558313727,0.0697638988,0.0073433518,10.8496284485,84.0809555054,100.5191421509,0.0264068842,0.0241400898,0.0202007294,48.7029647827,35.7958183289,94.6603012085,0.0541367531,-0.0172024369,-0.0148822069,
123.883,-3.2602996826,1.3817433119,14.3468818665,0.0607347265,0.0475784130,0.0102110505,-86.3436584473,51.4070930481,76.8640747070,0.0545469522,0.0657578111,-0.0002511144,10.7921714783,84.0848007202,100.4599075317,0.0298317671,0.0198614895,0.0236634016,48.7044563293,35.7894706726,94.6664428711,0.0657656789,-0.0162884593,-0.0095380545,
123.893,-3.2592723370,1.3825074434,14.3473491669,0.0617246255,0.0417011194,0.0106986761,-86.3455581665,51.2035903931,76.9298477173,0.0498850346,0.0729184747,-0.0033366680,10.7390708923,84.0886459351,100.4073944092,0.0269089937,0.0224107504,0.0237090588,48.7063903809,35.7827491760,94.6711044312,0.0705533028,-0.0173345804,-0.0076096654,
123.903,-3.2597692013,1.3851789236,14.3495454788,0.0617712364,0.0426862724,0.0087470412,-86.3502426147,51.0049591064,76.9933013916,0.0472199917,0.0682885051,0.0053317547,10.6855907440,84.0933609009,100.3527145386,0.0278940201,0.0210572183,0.0227934122,48.7117996216,35.7759284973,94.6792144775,0.0724098682,-0.0154843330,-0.0105277896,
123.913,-3.2610313892,1.3827919960,14.3501806259,0.0597764626,0.0358723812,0.0072825551,-86.3581771851,50.8120193481,77.0504989624,0.0499793887,0.0752954483,0.0106238127,10.6236381531,84.0965118408,100.2888565063,0.0254582763,0.0231317580,0.0247779489,48.7142448425,35.7690963745,94.6831741333,0.0742661953,-0.0194658637,-0.0012704730,
123.923,-3.2614462376,1.3830126524,14.3519935608,0.0573389083,0.0451569483,0.0077713728,-86.3709030151,50.6241912842,77.1011810303,0.0513218045,0.0714876652,0.0003494620,10.5759201050,84.1025238037,100.2379608154,0.0274221897,0.0237248838,0.0160744190,48.7184715271,35.7617034912,94.6888504028,0.0761146545,-0.0141909122,-0.0139706731,
123.933,-3.2615315914,1.3839926720,14.3525333405,0.0563794449,0.0422287174,0.0014241338,-86.3842239380,50.4391021729,77.1504974365,0.0565926433,0.0793553591,0.0086405873,10.5371885300,84.1056442261,100.1972885132,0.0254746675,0.0272218287,0.0195289850,48.7287673950,35.7509994507,94.7003860474,0.0793809891,-0.0168104768,-0.0041669607,
123.943,-3.2611606121,1.3851062059,14.3542671204,0.0583520010,0.0436870754,0.0033773780,-86.3995819092,50.2616996765,77.2009582520,0.0468044281,0.0734433532,0.0106143355,10.5262556076,84.1075134277,100.1831893921,0.0235248804,0.0248062015,0.0171172023,48.7334327698,35.7485122681,94.7054214478,0.0686035752,-0.0149201155,-0.0124350190,
123.953,-3.2612144947,1.3834582567,14.3548402786,0.0636943430,0.0422232114,0.0092361569,-86.4212951660,50.0909919739,77.2470169067,0.0453846455,0.0791587830,0.0077841878,10.4967164993,84.1077117920,100.1463851929,0.0240135193,0.0199770629,0.0307823420,48.7330436707,35.7433471680,94.7079010010,0.0763429999,-0.0159325004,-0.0007551908,
123.963,-3.2614364624,1.3835102320,14.3571834564,0.0622304007,0.0436919183,0.0048418045,-86.4379272461,49.9298706055,77.2978439331,0.0450422764,0.0764366388,0.0156489611,10.4764127731,84.1103057861,100.1224365234,0.0254830122,0.0229513049,0.0259363651,48.7385444641,35.7411003113,94.7134933472,0.0728931427,-0.0155128837,-0.0124304891,
123.973,-3.2570562363,1.3793357611,14.3598108292,0.0660638139,0.0597289987,-0.0015122890,-86.4503097534,49.7802619934,77.3509521484,0.0414056778,0.0784369111,0.0166401863,10.4604969025,84.1119384766,100.1033172607,0.0279273391,0.0293325782,0.0264464021,48.7409973145,35.7379722595,94.7157135010,0.0611300468,-0.0160480738,-0.0070541501,
123.983,-3.2574737072,1.3795273304,14.3615169525,0.0641140342,0.0450878330,0.0141134858,-86.4559860229,49.6407127380,77.4066390991,0.0505728722,0.0724813342,0.0131716728,10.4138851166,84.1109695435,100.0537185669,0.0254842043,0.0181830525,0.0308102369,48.7486724854,35.7378616333,94.7221527100,0.0596636534,-0.0112378597,-0.0177153349,
123.993,-3.2640743256,1.3795484304,14.3637952805,0.0563018993,0.0188356154,0.0170498490,-86.4606246948,49.5079689026,77.4608535767,0.0490704775,0.0688729286,0.0155566931,10.3512353897,84.1094055176,99.9873504639,0.0201103091,0.0212205648,0.0263687968,48.7564277649,35.7331619263,94.7289276123,0.0722923875,-0.0113463402,-0.0171760917,
124.003,-3.2651393414,1.3819528818,14.3648824692,0.0563438535,0.0427799001,0.0190046430,-86.4649047852,49.3806495667,77.5128173828,0.0534850955,0.0744662285,0.0106182694,10.3330097198,84.1110687256,99.9672241211,0.0201132894,0.0251645446,0.0254133940,48.7580299377,35.7302970886,94.7339248657,0.0722518563,-0.0211488605,-0.0147367716,
124.013,-3.2617270947,1.3868076801,14.3665914536,0.0520340279,0.0563922152,0.0150973201,-86.4722213745,49.2566833496,77.5583114624,0.0476801991,0.0751312971,0.0081592202,10.3146581650,84.1130371094,99.9494476318,0.0225582123,0.0256917775,0.0259284377,48.7627105713,35.7272949219,94.7395706177,0.0634201765,-0.0158445239,-0.0147071481,
124.023,-3.2611408234,1.3858985901,14.3702259064,0.0617837906,0.0441749953,0.0111903548,-86.4828796387,49.1354141235,77.5993041992,0.0502033234,0.0674597025,0.0003697872,10.2910051346,84.1149673462,99.9226379395,0.0220733881,0.0267167985,0.0244886279,48.7626647949,35.7286376953,94.7443084717,0.0492790937,-0.0182752609,-0.0039564967,
124.033,-3.2613286972,1.3846809864,14.3720235825,0.0602977052,0.0373423584,0.0097247362,-86.4772186279,49.0221138000,77.6492614746,0.0445135236,0.0669931173,0.0236510038,10.2534475327,84.1180267334,99.8857727051,0.0333093405,0.0199575126,0.0201323628,48.7648200989,35.7245979309,94.7488479614,0.0697296858,-0.0183262825,-0.0166559815,
124.043,-3.2604548931,1.3845261335,14.3726692200,0.0563887507,0.0475810431,0.0116770267,-86.4681625366,48.9170761108,77.6974105835,0.0423335433,0.0712962151,0.0141844749,10.2396001816,84.1169662476,99.8724517822,0.0269597769,0.0268150866,0.0308521390,48.7699470520,35.7264251709,94.7559127808,0.0551071167,-0.0198249817,-0.0161008239,
124.053,-3.2594299316,1.3856620789,14.3725166321,0.0622679442,0.0460983217,0.0058177710,-86.4619674683,48.8258247375,77.7442626953,0.0354265571,0.0768831372,0.0076917410,10.1848917007,84.1179351807,99.8193664551,0.0225669742,0.0264280140,0.0230381489,48.7739562988,35.7245864868,94.7636184692,0.0604521036,-0.0218297243,-0.0131408572,
124.063,-3.2608118057,1.3851342201,14.3741817474,0.0647001415,0.0329388119,0.0194901228,-86.4534835815,48.7443923950,77.7967529297,0.0432791710,0.0794082880,0.0128996372,10.1500911713,84.1202316284,99.7856674194,0.0259890556,0.0260091722,0.0211125016,48.7784385681,35.7214698792,94.7715377808,0.0584548712,-0.0170127153,-0.0140905380,
124.073,-3.2610723972,1.3852331638,14.3740863800,0.0617721826,0.0436855368,0.0102134347,-86.4450073242,48.6697273254,77.8478775024,0.0458371639,0.0764722228,0.0151835084,10.1128540039,84.1248321533,99.7512969971,0.0172082186,0.0290194750,0.0167829394,48.7805709839,35.7140274048,94.7763137817,0.0710447431,-0.0146481395,-0.0092349648,
124.083,-3.2602286339,1.3864988089,14.3727607727,0.0573997349,0.0412294008,0.0092362165,-86.4486923218,48.6019210815,77.8868865967,0.0450551510,0.0793138742,0.0005226135,10.0483169556,84.1296386719,99.6898040771,0.0191699266,0.0213371217,0.0217258930,48.7825317383,35.7081604004,94.7828903198,0.0758444071,-0.0142231584,-0.0121830106,
124.093,-3.2579936981,1.3865160942,14.3726863861,0.0617945641,0.0460732840,0.0028865933,-86.4488830566,48.5404548645,77.9266204834,0.0467866659,0.0766984820,0.0034046173,10.0117921829,84.1313095093,99.6561965942,0.0299150944,0.0262904763,0.0246724486,48.7835235596,35.7036361694,94.7892761230,0.0723623037,-0.0167084336,-0.0097610950,
124.103,-3.2573361397,1.3863929510,14.3732337952,0.0583744496,0.0382493287,0.0102100968,-86.4465026855,48.4845199585,77.9659500122,0.0471164584,0.0744966269,0.0087029338,9.9828252792,84.1326446533,99.6329193115,0.0264995098,0.0219514668,0.0261477828,48.7894515991,35.7049331665,94.7989807129,0.0582205057,-0.0162657499,-0.0155495405,
124.113,-3.2574257851,1.3884456158,14.3742446899,0.0613399521,0.0421570875,0.0028868914,-86.4429550171,48.4374809265,78.0003585815,0.0509666204,0.0731538534,0.0027645826,9.9587411880,84.1333770752,99.6129837036,0.0265008211,0.0234619081,0.0271309018,48.7916908264,35.7034645081,94.8071899414,0.0650357008,-0.0197157264,-0.0067456961,
124.123,-3.2587978840,1.3885458708,14.3747568130,0.0593885742,0.0377864577,-0.0000413060,-86.4422149658,48.4040565491,78.0303344727,0.0510677695,0.0779832602,0.0022404194,9.9325017929,84.1369247437,99.5910568237,0.0191829205,0.0235193670,0.0213226676,48.7933845520,35.7017211914,94.8154144287,0.0596398711,-0.0124207139,-0.0072275996,
124.133,-3.2576766014,1.3871641159,14.3753700256,0.0603410304,0.0421614982,0.0014213324,-86.4511947632,48.3806991577,78.0496978760,0.0483556390,0.0875710845,-0.0040220022,9.8897438049,84.1383666992,99.5525970459,0.0274862647,0.0206706226,0.0218222141,48.7951164246,35.6984901428,94.8233108521,0.0722894073,-0.0178326964,-0.0165079832,
124.143,-3.2563621998,1.3865747452,14.3746681213,0.0637487173,0.0450682975,0.0019087195,-86.4572982788,48.3633232117,78.0678253174,0.0501073003,0.0780363083,0.0062881708,9.8515338898,84.1438140869,99.5199356079,0.0182186365,0.0207549930,0.0136010647,48.7972450256,35.6934204102,94.8296432495,0.0697760582,-0.0115438104,-0.0082185864,
124.153,-3.2576024532,1.3883577585,14.3751668930,0.0559673235,0.0402070433,0.0097226501,-86.4614715576,48.3476943970,78.0779724121,0.0548088551,0.0650587678,0.0038827658,9.8348417282,84.1420135498,99.5068283081,0.0284693241,0.0251741707,0.0267491937,48.7991180420,35.6919860840,94.8359603882,0.0697557926,-0.0169433951,-0.0116262436,
124.163,-3.2555084229,1.3887925148,14.3775300980,0.0608577244,0.0474947803,0.0038619637,-86.4649276733,48.3373146057,78.0866928101,0.0473642349,0.0700790882,0.0092856288,9.8214864731,84.1411361694,99.4979019165,0.0245615244,0.0178713202,0.0218474269,48.7995452881,35.6940307617,94.8407592773,0.0585542917,-0.0208380222,-0.0086786151,
124.173,-3.2533588409,1.3902361393,14.3786745071,0.0594180673,0.0498986989,0.0092306137,-86.4699630737,48.3266372681,78.0934600830,0.0487052202,0.0619207621,0.0064055920,9.8250741959,84.1393966675,99.5052185059,0.0304177999,0.0217659771,0.0188889503,48.8008766174,35.6948623657,94.8468704224,0.0702848434,-0.0174260139,-0.0130530000,
124.183,-3.2534143925,1.3908412457,14.3798494339,0.0579637811,0.0464816876,0.0063019395,-86.4703445435,48.3195838928,78.1027603149,0.0481350422,0.0693371296,0.0073809624,9.8298749924,84.1354522705,99.5143585205,0.0269927979,0.0217459202,0.0305430293,48.8033599854,35.6986389160,94.8525848389,0.0605726838,-0.0208383203,-0.0169076324,
124.193,-3.2542817593,1.3919076920,14.3803234100,0.0604237989,0.0416139588,0.0038614273,-86.4715270996,48.3146476746,78.1102447510,0.0456363559,0.0654959083,0.0044609904,9.8517808914,84.1335144043,99.5406036377,0.0201534033,0.0226776302,0.0236819386,48.8035278320,35.7010917664,94.8576965332,0.0669551492,-0.0203328133,-0.0124947429,
124.203,-3.2540760040,1.3923894167,14.3808689117,0.0584790781,0.0430752039,0.0126510859,-86.4727020264,48.3112525940,78.1209640503,0.0436438322,0.0630995035,0.0108194351,9.8510894775,84.1317825317,99.5412750244,0.0264979601,0.0216968954,0.0221853256,48.8026771545,35.7010154724,94.8624801636,0.0669540763,-0.0208136439,-0.0051800609,
124.213,-3.2542908192,1.3922264576,14.3820505142,0.0604293607,0.0460086465,-0.0000445843,-86.4743957520,48.3134574890,78.1319198608,0.0426928401,0.0625838637,0.0074229240,9.8316488266,84.1302413940,99.5252456665,0.0211241245,0.0241695046,0.0197173953,48.8040161133,35.7044105530,94.8695449829,0.0513771772,-0.0154290795,-0.0149087310,
124.223,-3.2541904449,1.3938723803,14.3843536377,0.0589932352,0.0425888821,0.0106982589,-86.4721603394,48.3162612915,78.1432495117,0.0393074155,0.0649870634,0.0191180706,9.8141098022,84.1308746338,99.5117416382,0.0211252570,0.0198074579,0.0270408988,48.8014450073,35.7075042725,94.8746414185,0.0499561429,-0.0256353617,-0.0056380033,
124.233,-3.2533435822,1.3935202360,14.3860864639,0.0638699010,0.0430624187,0.0141154528,-86.4764556885,48.3208389282,78.1507949829,0.0476613641,0.0659072399,0.0098940730,9.7980566025,84.1288375854,99.5002746582,0.0274692774,0.0237372518,0.0162640810,48.8043136597,35.7044448853,94.8826141357,0.0757917762,-0.0149433613,-0.0100225210,
124.243,-3.2529182434,1.3933992386,14.3860664368,0.0580084175,0.0440315753,0.0028846264,-86.4790039063,48.3199920654,78.1602783203,0.0510694981,0.0644551516,0.0113877058,9.7885179520,84.1279678345,99.4962997437,0.0260028839,0.0237516463,0.0216159821,48.8038787842,35.7022247314,94.8874359131,0.0635532141,-0.0217922330,-0.0080889463,
124.253,-3.2534825802,1.3928771019,14.3878335953,0.0619055480,0.0425765775,0.0028845072,-86.4848480225,48.3155975342,78.1667633057,0.0446708202,0.0615868568,0.0094988942,9.7873373032,84.1281738281,99.5018539429,0.0299094915,0.0242425501,0.0230833292,48.8058242798,35.7049827576,94.8930816650,0.0548032522,-0.0173947811,-0.0178154111,
124.263,-3.2529644966,1.3920769691,14.3878288269,0.0604267493,0.0464738235,0.0043487549,-86.4804916382,48.3096771240,78.1727981567,0.0470435023,0.0597076416,0.0162795782,9.7571544647,84.1274337769,99.4773254395,0.0245370865,0.0164821446,0.0264797211,48.8049926758,35.7029457092,94.9002304077,0.0655165315,-0.0174025297,-0.0046540499,
124.273,-3.2531712055,1.3946211338,14.3889064789,0.0575414561,0.0459890775,0.0043499470,-86.4723358154,48.3062438965,78.1815948486,0.0450505018,0.0612112284,0.0156939626,9.7384910583,84.1269683838,99.4636688232,0.0264893770,0.0179793239,0.0245141387,48.8043365479,35.7049598694,94.9071884155,0.0577325821,-0.0203107595,-0.0153900981,
124.283,-3.2511801720,1.3948452473,14.3924474716,0.0619398952,0.0405832939,0.0067895055,-86.4634780884,48.3032188416,78.1882019043,0.0415974259,0.0622206926,0.0121709108,9.7118415833,84.1290435791,99.4444274902,0.0230751038,0.0209628344,0.0191695094,48.8077430725,35.7083320618,94.9175796509,0.0572921634,-0.0222697854,-0.0182607174,
124.293,-3.2506952286,1.3956528902,14.3942918777,0.0531649254,0.0439927988,0.0087425113,-86.4593124390,48.3005676270,78.1954040527,0.0435197949,0.0681116581,0.0135851502,9.7228364944,84.1299743652,99.4620971680,0.0260064602,0.0282698572,0.0226056576,48.8110008240,35.7091064453,94.9256668091,0.0597445369,-0.0208294988,-0.0201739073,
124.303,-3.2520608902,1.3957129717,14.3966817856,0.0580487885,0.0396220498,0.0087440014,-86.4611968994,48.2944755554,78.1968612671,0.0483318567,0.0696570873,0.0136021376,9.7221460342,84.1320495605,99.4685821533,0.0201507807,0.0302302241,0.0221522450,48.8174629211,35.7062072754,94.9380416870,0.0660511255,-0.0126111507,-0.0167062879,
124.313,-3.2512841225,1.3961074352,14.3984594345,0.0590322316,0.0449796058,0.0126497746,-86.4714584351,48.2889862061,78.1983795166,0.0433852673,0.0628996491,0.0088343024,9.7271146774,84.1339797974,99.4808807373,0.0250370502,0.0258323252,0.0216979384,48.8158988953,35.7077636719,94.9443969727,0.0538660884,-0.0228385329,-0.0079234838,
124.323,-3.2534058094,1.3965470791,14.3983335495,0.0605047494,0.0372040570,0.0082570910,-86.4908981323,48.2788047791,78.1989135742,0.0457084775,0.0630458593,0.0124695301,9.7113714218,84.1353149414,99.4718933105,0.0265042782,0.0248878300,0.0226919055,48.8173484802,35.7086715698,94.9521408081,0.0548555255,-0.0169857740,-0.0147378445,
124.333,-3.2554049492,1.3962891102,14.3982257843,0.0624533668,0.0421216972,-0.0049244165,-86.5111694336,48.2732353210,78.1981201172,0.0495500565,0.0699687600,0.0097705722,9.6979494095,84.1352462769,99.4662551880,0.0265041590,0.0268648863,0.0207338333,48.8176536560,35.7079010010,94.9602890015,0.0650985241,-0.0233422518,-0.0162050724,
124.343,-3.2562294006,1.3977861404,14.4005451202,0.0575966761,0.0392063335,0.0180263519,-86.5314102173,48.2667884827,78.1924438477,0.0489868522,0.0598129630,-0.0012302995,9.6637334824,84.1383285522,99.4401245117,0.0323690176,0.0176575780,0.0090551972,48.8149757385,35.7089080811,94.9646530151,0.0597416759,-0.0223329067,-0.0045076013,
124.353,-3.2574586868,1.4001569748,14.4022216797,0.0561732017,0.0402042605,0.0058215857,-86.5438766479,48.2587394714,78.1899642944,0.0503581762,0.0521138906,0.0135564804,9.6684074402,84.1386642456,99.4502792358,0.0226039886,0.0239979327,0.0251764059,48.8113174438,35.7083511353,94.9673843384,0.0670580268,-0.0252327323,-0.0069919229,
124.363,-3.2562930584,1.4009605646,14.4021139145,0.0591169074,0.0401839390,0.0048437715,-86.5601654053,48.2539062500,78.1808624268,0.0581145287,0.0687897205,0.0088589787,9.6909122467,84.1446533203,99.4777908325,0.0284740329,0.0244629085,0.0008689761,48.8122711182,35.7076950073,94.9753723145,0.0719315410,-0.0174342394,-0.0084510446,
124.373,-3.2554903030,1.3983004093,14.4032678604,0.0693244040,0.0430997051,0.0048421621,-86.5679550171,48.2490119934,78.1734542847,0.0502451062,0.0620227456,0.0089455843,9.7097978592,84.1450500488,99.5014877319,0.0206622481,0.0288246870,0.0204123259,48.8128929138,35.7074623108,94.9825134277,0.0733930469,-0.0164652467,-0.0084459782,
124.383,-3.2562699318,1.3984320164,14.4037961960,0.0595610701,0.0396953113,0.0082611442,-86.5774459839,48.2426223755,78.1625213623,0.0433349013,0.0621124506,0.0075859427,9.7308444977,84.1426086426,99.5261840820,0.0265172720,0.0263386369,0.0267259479,48.8122596741,35.7109260559,94.9867248535,0.0563523173,-0.0227803588,-0.0064761043,
124.393,-3.2581603527,1.3969216347,14.4056625366,0.0590464361,0.0421696827,0.0058204532,-86.5905609131,48.2340469360,78.1494293213,0.0486062765,0.0544205308,0.0043134689,9.7244043350,84.1412734985,99.5229263306,0.0245617628,0.0180454850,0.0188885927,48.8121566772,35.7138214111,94.9923400879,0.0598113537,-0.0198275447,-0.0088996887,
124.403,-3.2576336861,1.3971014023,14.4080762863,0.0575847290,0.0441136323,0.0072852969,-86.5928268433,48.2282142639,78.1433944702,0.0465854406,0.0681696534,0.0184954405,9.7189807892,84.1398010254,99.5218200684,0.0240708590,0.0209807754,0.0232575536,48.8131523132,35.7149124146,94.9975204468,0.0695924163,-0.0208050013,-0.0171821117,
124.413,-3.2582876682,1.3962186575,14.4079961777,0.0629404187,0.0402187891,0.0067971945,-86.5919113159,48.2267684937,78.1439971924,0.0441271663,0.0701406598,0.0155543089,9.7223138809,84.1373901367,99.5287017822,0.0284610987,0.0282922089,0.0232187510,48.8106956482,35.7167015076,95.0037155151,0.0554575920,-0.0261394382,-0.0098721981,
124.423,-3.2597415447,1.3960405588,14.4098367691,0.0565896556,0.0436620936,0.0077751279,-86.5938186646,48.2254600525,78.1474380493,0.0460650921,0.0701593161,0.0155750513,9.7302646637,84.1370620728,99.5408630371,0.0279722214,0.0248588920,0.0163789988,48.8114166260,35.7152061462,95.0086898804,0.0695965886,-0.0134623051,-0.0098744035,
124.433,-3.2595121861,1.3949980736,14.4116744995,0.0595011562,0.0431698486,0.0043564439,-86.5968322754,48.2213439941,78.1556854248,0.0425992608,0.0614258647,0.0200013518,9.7291498184,84.1356506348,99.5440673828,0.0250400305,0.0224155188,0.0227031112,48.8129348755,35.7132453918,95.0138320923,0.0783578753,-0.0173978209,-0.0137780905,
124.443,-3.2582838535,1.3968976736,14.4121675491,0.0556280464,0.0402187109,0.0121686459,-86.6024093628,48.2125015259,78.1656951904,0.0410315990,0.0586147308,0.0132234693,9.7501420975,84.1323776245,99.5699081421,0.0269873142,0.0272510648,0.0275363922,48.8122062683,35.7158317566,95.0194015503,0.0603281260,-0.0193243027,-0.0152329206,
124.453,-3.2576282024,1.3963479996,14.4132862091,0.0639192387,0.0426487066,0.0004489422,-86.6084213257,48.1979446411,78.1769485474,0.0423271060,0.0539249182,0.0157238245,9.7387523651,84.1318511963,99.5635604858,0.0264980793,0.0184811056,0.0221540332,48.8142471313,35.7193336487,95.0258255005,0.0540300608,-0.0173633695,-0.0190939903,
124.463,-3.2592732906,1.3964475393,14.4138383865,0.0595264472,0.0431656428,0.0038684607,-86.6168975830,48.1806869507,78.1862030029,0.0421262980,0.0653854609,0.0104375482,9.7382431030,84.1287994385,99.5692214966,0.0284457803,0.0199380815,0.0255206823,48.8134040833,35.7180366516,95.0306243896,0.0671952963,-0.0119943619,-0.0039750338,
124.473,-3.2594282627,1.3948062658,14.4144334793,0.0614509359,0.0397504121,0.0072859526,-86.6224212646,48.1604042053,78.1973800659,0.0409137011,0.0597928762,0.0090217590,9.7552928925,84.1261978149,99.5924224854,0.0235583186,0.0218532681,0.0254836679,48.8138771057,35.7189331055,95.0365219116,0.0647665858,-0.0158982277,-0.0176358819,
124.483,-3.2606470585,1.3945567608,14.4161872864,0.0633997023,0.0466075875,0.0111935139,-86.6235809326,48.1394233704,78.2113037109,0.0396927595,0.0639723539,0.0143898129,9.7746076584,84.1277389526,99.6181030273,0.0274673104,0.0223110020,0.0201421380,48.8123893738,35.7222709656,95.0437622070,0.0565131307,-0.0202532411,-0.0132348537,
124.493,-3.2617821693,1.3939378262,14.4172458649,0.0668068752,0.0383265913,0.0131470561,-86.6192016602,48.1188354492,78.2299575806,0.0418943167,0.0710718632,0.0172533989,9.7840280533,84.1287078857,99.6323547363,0.0186799765,0.0252267420,0.0211392045,48.8109245300,35.7179183960,95.0502777100,0.0784240365,-0.0129487514,-0.0059554577,
124.503,-3.2616133690,1.3929824829,14.4178028107,0.0633722395,0.0451596156,0.0082643032,-86.6204147339,48.0955581665,78.2458038330,0.0421112776,0.0645387173,0.0099253654,9.8018045425,84.1293106079,99.6562576294,0.0181927681,0.0247082114,0.0221310258,48.8120574951,35.7160377502,95.0579452515,0.0681435466,-0.0124853849,-0.0093740225,
124.513,-3.2625865936,1.3907371759,14.4190340042,0.0638213456,0.0432234965,0.0107052326,-86.6185226440,48.0713844299,78.2642745972,0.0423177481,0.0692453384,0.0123258233,9.7927379608,84.1275024414,99.6539382935,0.0289317369,0.0247194171,0.0279580951,48.8110694885,35.7152633667,95.0646133423,0.0603200197,-0.0188297629,-0.0098779202,
124.523,-3.2635147572,1.3890004158,14.4190206528,0.0637910366,0.0456811115,0.0067994595,-86.6244659424,48.0469436646,78.2761917114,0.0400795341,0.0651713610,0.0070055127,9.8060178757,84.1294403076,99.6725463867,0.0191695690,0.0325136185,0.0157871842,48.8109474182,35.7156524658,95.0716018677,0.0676497817,-0.0168724656,-0.0118294954,
124.533,-3.2639772892,1.3893675804,14.4207496643,0.0613560379,0.0427594781,0.0146122575,-86.6306152344,48.0198402405,78.2857513428,0.0461108685,0.0586905479,0.0031502247,9.7922983170,84.1298370361,99.6643524170,0.0201468468,0.0217970908,0.0245779753,48.8121910095,35.7132034302,95.0792312622,0.0685915947,-0.0178795457,-0.0147627592,
124.543,-3.2649080753,1.3911594152,14.4205961227,0.0599224567,0.0457053334,0.0043606758,-86.6360168457,47.9927139282,78.2927703857,0.0423761010,0.0653930306,0.0066106319,9.7823200226,84.1295013428,99.6623001099,0.0264939070,0.0262086391,0.0318939090,48.8141937256,35.7133674622,95.0862121582,0.0534572601,-0.0144789815,-0.0113222003,
124.553,-3.2645165920,1.3919889927,14.4224166870,0.0574955270,0.0500930287,0.0121722221,-86.6440658569,47.9652328491,78.2983932495,0.0440081954,0.0598947406,0.0052186847,9.7842521667,84.1292419434,99.6721267700,0.0245403051,0.0262046158,0.0226141214,48.8121948242,35.7144660950,95.0934448242,0.0573790669,-0.0183581114,-0.0054767728,
124.563,-3.2655632496,1.3914244175,14.4241294861,0.0623684898,0.0364394002,0.0116854310,-86.6484832764,47.9362449646,78.3065948486,0.0436693430,0.0641787052,0.0130611062,9.7923917770,84.1323776245,99.6869812012,0.0250341892,0.0281517804,0.0138772726,48.8135566711,35.7111740112,95.1022338867,0.0666097403,-0.0081421733,-0.0098788738,
124.573,-3.2654817104,1.3922557831,14.4252614975,0.0614064336,0.0491332673,0.0048492551,-86.6528854370,47.9091987610,78.3140716553,0.0409115553,0.0620899796,0.0160216689,9.7714891434,84.1334457397,99.6727523804,0.0235712528,0.0233097672,0.0260972977,48.8161125183,35.7101173401,95.1095886230,0.0661064386,-0.0184279680,-0.0132763386,
124.583,-3.2659595013,1.3896734715,14.4258270264,0.0667324737,0.0408408754,0.0033838749,-86.6558303833,47.8834915161,78.3226089478,0.0401225090,0.0673069954,0.0160364509,9.7568140030,84.1373901367,99.6642532349,0.0274845362,0.0213944316,0.0159054399,48.8167610168,35.7079429626,95.1158218384,0.0626577139,-0.0130798221,-0.0084022284,
124.593,-3.2645483017,1.3904036283,14.4263811111,0.0574678667,0.0452108048,0.0082659125,-86.6618194580,47.8561859131,78.3319320679,0.0451738834,0.0676639080,0.0131560564,9.7341918945,84.1376571655,99.6500396729,0.0284615755,0.0277833641,0.0242034197,48.8185691833,35.7051086426,95.1227111816,0.0699418187,-0.0165361762,-0.0157251954,
124.603,-3.2639396191,1.3885763884,14.4270181656,0.0598773919,0.0403174348,0.0048460960,-86.6666717529,47.8321685791,78.3398742676,0.0380566120,0.0674889088,0.0088005066,9.6991605759,84.1383895874,99.6223220825,0.0265097618,0.0249185860,0.0237164497,48.8204765320,35.7043380737,95.1318588257,0.0630949140,-0.0141184926,-0.0069211721,
124.613,-3.2646799088,1.3896728754,14.4273977280,0.0647793338,0.0398420244,0.0087538958,-86.6615142822,47.8079833984,78.3525009155,0.0416794419,0.0707271695,0.0194641352,9.6908349991,84.1396026611,99.6213912964,0.0299298763,0.0234720409,0.0222686529,48.8204536438,35.7015113831,95.1383438110,0.0601251125,-0.0136517286,-0.0044990182,
124.623,-3.2642242908,1.3899687529,14.4279642105,0.0589251220,0.0461817384,0.0063122511,-86.6603393555,47.7836265564,78.3601226807,0.0428586602,0.0676225424,0.0155258179,9.6969022751,84.1410675049,99.6350708008,0.0270028114,0.0327429473,0.0183906555,48.8218002319,35.6973190308,95.1463088989,0.0722727776,-0.0171142817,-0.0201373696,
124.633,-3.2653110027,1.3884748220,14.4291782379,0.0608521774,0.0408296064,0.0014295578,-86.6533660889,47.7607460022,78.3705978394,0.0430786610,0.0693777204,0.0154266953,9.6642656326,84.1415405273,99.6112365723,0.0250505209,0.0181540847,0.0227810144,48.8215866089,35.6978797913,95.1534805298,0.0600736737,-0.0229675770,-0.0128128529,
124.643,-3.2658596039,1.3892838955,14.4314565659,0.0618428588,0.0403508693,0.0082669854,-86.6519470215,47.7374839783,78.3793182373,0.0491532683,0.0701649189,0.0153925419,9.6648635864,84.1449584961,99.6190719604,0.0255448818,0.0254870951,0.0189331770,48.8231201172,35.6979141235,95.1631469727,0.0654452443,-0.0151689053,-0.0108422637,
124.653,-3.2653372288,1.3899418116,14.4319820404,0.0599012151,0.0442479923,0.0092424154,-86.6574859619,47.7204170227,78.3852691650,0.0406520963,0.0703886747,0.0037258863,9.6535644531,84.1446228027,99.6159820557,0.0245677233,0.0196467042,0.0242929459,48.8226776123,35.6971282959,95.1705245972,0.0625044107,-0.0190771818,-0.0108523965,
124.663,-3.2633135319,1.3876123428,14.4344825745,0.0623019747,0.0471424907,0.0131464601,-86.6587371826,47.7006874084,78.3986892700,0.0443266630,0.0662489533,0.0154446959,9.6306352615,84.1438446045,99.5990524292,0.0304257274,0.0231038332,0.0208570361,48.8226699829,35.6935844421,95.1771316528,0.0741729140,-0.0151979327,-0.0089228153,
124.673,-3.2625823021,1.3875896931,14.4362459183,0.0603484586,0.0427352190,0.0082628131,-86.6707992554,47.6808090210,78.4050369263,0.0387220383,0.0699313283,0.0004345179,9.6437683105,84.1442184448,99.6182861328,0.0231021643,0.0250344872,0.0203790069,48.8257675171,35.6970748901,95.1863784790,0.0551794767,-0.0132470131,-0.0122848153,
124.683,-3.2629559040,1.3911828995,14.4391298294,0.0521103665,0.0388353989,0.0043579936,-86.6765365601,47.6586837769,78.4150772095,0.0438330770,0.0707085133,0.0087859631,9.6637010574,84.1427383423,99.6443710327,0.0221229792,0.0264594257,0.0262197852,48.8282051086,35.6943588257,95.1947708130,0.0697894096,-0.0118256807,-0.0069053769,
124.693,-3.2616701126,1.3917988539,14.4402875900,0.0599336177,0.0490668863,0.0024045706,-86.6798858643,47.6325759888,78.4245758057,0.0401081443,0.0583512187,0.0112472773,9.6660461426,84.1421432495,99.6534271240,0.0260281563,0.0240120292,0.0218155384,48.8250656128,35.6929855347,95.2010498047,0.0697699189,-0.0205960870,-0.0010892153,
124.703,-3.2605881691,1.3913614750,14.4408636093,0.0618791059,0.0461183600,0.0170508027,-86.6802520752,47.6088829041,78.4332122803,0.0349466205,0.0640274286,0.0136753321,9.6879529953,84.1440811157,99.6839141846,0.0250550508,0.0259314775,0.0184370279,48.8226623535,35.6965522766,95.2052841187,0.0556603074,-0.0224993825,-0.0098794699,
124.713,-3.2591981888,1.3908548355,14.4414167404,0.0618702695,0.0451175943,0.0102139711,-86.6806259155,47.5813369751,78.4408416748,0.0380403399,0.0658469200,0.0141472816,9.6853799820,84.1453552246,99.6887359619,0.0265221596,0.0234983265,0.0199223757,48.8227119446,35.6982688904,95.2122879028,0.0551964045,-0.0195569992,-0.0084030628,
124.723,-3.2600147724,1.3885588646,14.4420299530,0.0637833327,0.0417139083,0.0082602501,-86.6812362671,47.5549354553,78.4500579834,0.0396826267,0.0647215843,0.0131584406,9.6713123322,84.1461944580,99.6813735962,0.0187111497,0.0240141451,0.0253029466,48.8220939636,35.6999511719,95.2198486328,0.0503373742,-0.0229562521,-0.0093744993,
124.733,-3.2619669437,1.3858870268,14.4462165833,0.0700843707,0.0417479761,0.0072848201,-86.6835327148,47.5290870667,78.4602432251,0.0398663282,0.0699382424,0.0131660700,9.6410160065,84.1416091919,99.6589355469,0.0270037651,0.0235670209,0.0325406790,48.8210372925,35.6989021301,95.2257308960,0.0561819077,-0.0190482140,-0.0054869652,
124.743,-3.2585961819,1.3834934235,14.4480695724,0.0641832352,0.0455955714,0.0033742785,-86.6922302246,47.5002670288,78.4674377441,0.0473390818,0.0712907314,0.0073880553,9.6335315704,84.1447525024,99.6564025879,0.0250562429,0.0240776837,0.0164778233,48.8226051331,35.6992492676,95.2325515747,0.0610696673,-0.0171070099,-0.0118151307,
124.753,-3.2573630810,1.3849879503,14.4473705292,0.0588382185,0.0489920229,0.0082564354,-86.7067642212,47.4756126404,78.4731369019,0.0397241116,0.0716172457,-0.0002717376,9.6227321625,84.1494445801,99.6512451172,0.0255528688,0.0202040672,0.0136232376,48.8229789734,35.6961746216,95.2383499146,0.0756745338,-0.0181107521,-0.0128087997,
124.763,-3.2583973408,1.3850111961,14.4485254288,0.0598151833,0.0431506634,0.0009332895,-86.7152786255,47.4562072754,78.4848175049,0.0448662043,0.0733371377,0.0129976869,9.6371574402,84.1502761841,99.6723709106,0.0206715465,0.0255517364,0.0190129280,48.8234596252,35.6936798096,95.2449569702,0.0775922537,-0.0166693926,-0.0128199458,
124.773,-3.2551701069,1.3851926327,14.4496469498,0.0612831935,0.0430944376,-0.0019994974,-86.7285385132,47.4438667297,78.4944839478,0.0378846526,0.0735044479,0.0004495978,9.6133136749,84.1500091553,99.6535034180,0.0231124759,0.0182694197,0.0185127258,48.8224639893,35.6917800903,95.2488403320,0.0658466220,-0.0215575099,-0.0045430064,
124.783,-3.2552776337,1.3849300146,14.4495840073,0.0607903302,0.0421197489,0.0072774291,-86.7440490723,47.4363555908,78.5019683838,0.0412139297,0.0731227398,0.0059984922,9.6307325363,84.1521224976,99.6789093018,0.0270224810,0.0260566771,0.0180647373,48.8228950500,35.6932907104,95.2540054321,0.0648913980,-0.0210616589,-0.0177113414,
124.793,-3.2556612492,1.3875920773,14.4512395859,0.0574188121,0.0431029350,0.0097209215,-86.7620925903,47.4276351929,78.5085067749,0.0396461487,0.0742233992,0.0062047243,9.6654014587,84.1523208618,99.7183609009,0.0240931511,0.0279486775,0.0171044469,48.8244781494,35.6949768066,95.2606124878,0.0678450465,-0.0171572566,-0.0191479921,
124.803,-3.2555987835,1.3860251904,14.4518594742,0.0612977222,0.0426136032,0.0102078915,-86.7749633789,47.4226684570,78.5111389160,0.0439820290,0.0699011087,0.0068413019,9.6742687225,84.1508178711,99.7327499390,0.0245787501,0.0264633298,0.0229389668,48.8252983093,35.6913337708,95.2667083740,0.0785355568,-0.0142631531,-0.0108630657,
124.813,-3.2564179897,1.3880859613,14.4535074234,0.0593805537,0.0416512676,0.0053270459,-86.7825241089,47.4251213074,78.5099563599,0.0366867185,0.0708515048,0.0020492673,9.6914224625,84.1514129639,99.7553710938,0.0226266980,0.0239931643,0.0170965195,48.8267631531,35.6941223145,95.2749404907,0.0580673218,-0.0166968703,-0.0196177959,
124.823,-3.2578265667,1.3886737823,14.4546213150,0.0603673682,0.0416757874,0.0121647120,-86.7849349976,47.4280815125,78.5065307617,0.0401396751,0.0678854585,0.0084272623,9.7036743164,84.1499099731,99.7732238770,0.0279951096,0.0254314244,0.0243967175,48.8260269165,35.6953620911,95.2819519043,0.0658974051,-0.0220516324,-0.0064340830,
124.833,-3.2578804493,1.3883488178,14.4563817978,0.0613382608,0.0421650112,0.0063051581,-86.7889251709,47.4381904602,78.5025253296,0.0392825007,0.0765472054,0.0050641894,9.6951475143,84.1488342285,99.7702941895,0.0294580460,0.0156786144,0.0248688459,48.8242034912,35.6908454895,95.2860412598,0.0751106739,-0.0162097216,-0.0079479218,
124.843,-3.2575230598,1.3880703449,14.4575071335,0.0632865280,0.0436236374,0.0087462664,-86.7962112427,47.4544563293,78.4978027344,0.0360565186,0.0787849426,0.0095561147,9.6868610382,84.1483001709,99.7688827515,0.0275039673,0.0244802535,0.0228990316,48.8224296570,35.6882629395,95.2909927368,0.0731209517,-0.0162130594,-0.0055432320,
124.853,-3.2566637993,1.3874655962,14.4580049515,0.0642525405,0.0411672778,0.0072802901,-86.8019332886,47.4754371643,78.4962539673,0.0446048379,0.0780313611,0.0145211816,9.6692886353,84.1491088867,99.7573699951,0.0216460228,0.0181668997,0.0160751939,48.8225364685,35.6902389526,95.2981033325,0.0643599033,-0.0235230923,-0.0152944922,
124.863,-3.2536909580,1.3899648190,14.4597063065,0.0579484925,0.0484396480,0.0082548261,-86.8085861206,47.5028190613,78.4973678589,0.0429746509,0.0781723261,0.0209670663,9.6612939835,84.1466979980,99.7562179565,0.0265245438,0.0235447884,0.0165160298,48.8204612732,35.6943016052,95.3025894165,0.0585581064,-0.0200546980,-0.0152894258,
124.873,-3.2530539036,1.3895442486,14.4596443176,0.0613591224,0.0425691903,0.0077657104,-86.8187179565,47.5330810547,78.4986038208,0.0384485722,0.0733958483,0.0103656054,9.6808576584,84.1431427002,99.7830505371,0.0255416632,0.0235002637,0.0296506882,48.8188819885,35.6912231445,95.3090515137,0.0751160383,-0.0151806474,-0.0075142980,
124.883,-3.2556781769,1.3899714947,14.4607934952,0.0589251667,0.0416383296,0.0165576935,-86.8301925659,47.5677375793,78.5011596680,0.0393450856,0.0773522258,0.0105258226,9.7112483978,84.1396026611,99.8227615356,0.0265119076,0.0239235461,0.0237385035,48.8184852600,35.6936454773,95.3155288696,0.0575723052,-0.0161349177,-0.0079905987,
124.893,-3.2568635941,1.3913775682,14.4618425369,0.0613911077,0.0426355079,0.0009344816,-86.8394775391,47.6082534790,78.5034179688,0.0373805761,0.0768375993,0.0135932565,9.7177324295,84.1361236572,99.8383865356,0.0186932087,0.0219491124,0.0251492262,48.8178367615,35.6924781799,95.3222579956,0.0722041130,-0.0156495571,-0.0021461248,
124.903,-3.2564480305,1.3903551102,14.4635992050,0.0638146698,0.0416517295,0.0072813034,-86.8556213379,47.6497230530,78.4977493286,0.0334738493,0.0685018897,0.0064880252,9.7371568680,84.1331787109,99.8682708740,0.0289418697,0.0263000727,0.0260804296,48.8178062439,35.6928863525,95.3303985596,0.0663505197,-0.0117398500,-0.0075143576,
124.913,-3.2531123161,1.3908439875,14.4635152817,0.0623583645,0.0498943962,0.0048367381,-86.8754806519,47.6969490051,78.4882583618,0.0398882031,0.0742542148,-0.0010579228,9.7419757843,84.1314468384,99.8839416504,0.0299153328,0.0267749727,0.0221484900,48.8213882446,35.6935729980,95.3394622803,0.0570829511,-0.0107915401,-0.0133315325,
124.923,-3.2539660931,1.3910578489,14.4646339417,0.0613855273,0.0416084826,0.0038607121,-86.8973159790,47.7499122620,78.4724884033,0.0424631238,0.0711441040,0.0031419396,9.7676038742,84.1316070557,99.9199981689,0.0279625058,0.0267293155,0.0216700435,48.8212852478,35.6919631958,95.3488540649,0.0721968412,-0.0200802088,-0.0138313174,
124.933,-3.2544794083,1.3914818764,14.4670028687,0.0589515269,0.0425939672,0.0097209811,-86.9189376831,47.8106422424,78.4537124634,0.0421988964,0.0772103667,0.0058790445,9.7637929916,84.1268310547,99.9289093018,0.0250242949,0.0242812335,0.0269616842,48.8252067566,35.6911239624,95.3595886230,0.0716966987,-0.0118224621,-0.0206310153,
124.943,-3.2556838989,1.3920489550,14.4700279236,0.0560317300,0.0445680693,-0.0029727221,-86.9364776611,47.8759613037,78.4359741211,0.0429640412,0.0739368200,0.0105236769,9.8021783829,84.1270065308,99.9790725708,0.0294191241,0.0232361257,0.0142804980,48.8249130249,35.6947059631,95.3687210083,0.0683294535,-0.0215580463,-0.0181688666,
124.953,-3.2538001537,1.3898568153,14.4700298309,0.0652708262,0.0469767116,0.0038604140,-86.9507904053,47.9446258545,78.4197998047,0.0466970205,0.0784293413,0.0141562819,9.8244485855,84.1249008179,100.0104904175,0.0191614628,0.0246548355,0.0157168508,48.8287811279,35.6933097839,95.3790588379,0.0722159147,-0.0147688389,-0.0176487565,
124.963,-3.2543449402,1.3895258904,14.4717969894,0.0613588020,0.0425916761,0.0063022375,-86.9664001465,48.0156936646,78.4048919678,0.0421562195,0.0770309567,0.0124344826,9.8761110306,84.1193313599,100.0707015991,0.0303819776,0.0279637575,0.0239403844,48.8280105591,35.6970443726,95.3848342896,0.0717805624,-0.0186393261,-0.0137256384,
124.973,-3.2553617954,1.3898773193,14.4735612869,0.0589235239,0.0430976711,0.0048385262,-86.9813079834,48.0868911743,78.3927307129,0.0444517136,0.0746530294,0.0150982738,9.9243698120,84.1167984009,100.1289215088,0.0264711976,0.0215218961,0.0229363441,48.8247909546,35.6968879700,95.3915939331,0.0751963854,-0.0127509832,-0.0054602623,
124.983,-3.2557682991,1.3896460533,14.4746503830,0.0652671456,0.0431047492,0.0087450743,-86.9954071045,48.1642646790,78.3826980591,0.0390054584,0.0780528784,0.0201977491,9.9631052017,84.1128082275,100.1781158447,0.0259757638,0.0233936012,0.0199519396,48.8243904114,35.7005729675,95.3996429443,0.0669478178,-0.0200432539,-0.0098344088,
124.993,-3.2536022663,1.3879712820,14.4765338898,0.0618199557,0.0499030016,0.0072773695,-87.0149765015,48.2483978271,78.3727569580,0.0394958258,0.0784369111,0.0112050176,9.9921216965,84.1089019775,100.2193832397,0.0249922276,0.0247947276,0.0223371983,48.8214225769,35.7072563171,95.4054946899,0.0553237796,-0.0199643373,-0.0093327761,
125.003,-3.2531170845,1.3860336542,14.4771432877,0.0622744299,0.0420820937,0.0014168024,-87.0371551514,48.3362693787,78.3590621948,0.0375865102,0.0763311386,0.0183576345,10.0253753662,84.1072463989,100.2642517090,0.0284072161,0.0266831219,0.0184140205,48.8200378418,35.7133750916,95.4129714966,0.0568753481,-0.0213694572,-0.0107716918,
125.013,-3.2521023750,1.3851493597,14.4814548492,0.0573761873,0.0435292795,0.0067864656,-87.0647354126,48.4275245667,78.3406906128,0.0430388451,0.0736946464,0.0094607472,10.0702905655,84.1025238037,100.3202209473,0.0269339085,0.0241467953,0.0217672586,48.8177947998,35.7183227539,95.4202499390,0.0574337244,-0.0174041986,-0.0097854137,
125.023,-3.2485058308,1.3839854002,14.4826364517,0.0641918182,0.0463963449,0.0072708130,-87.1015319824,48.5218582153,78.3127365112,0.0460834503,0.0671150684,0.0001830459,10.0878410339,84.0979690552,100.3477325439,0.0249726176,0.0182422996,0.0231617689,48.8182792664,35.7249526978,95.4291305542,0.0497151613,-0.0149164796,-0.0107125044,
125.033,-3.2473044395,1.3848968744,14.4843463898,0.0612780303,0.0444222689,0.0058049560,-87.1363601685,48.6170463562,78.2793121338,0.0418117046,0.0688217878,0.0060186982,10.1283807755,84.0928878784,100.3992233276,0.0239869356,0.0249902308,0.0211384892,48.8174018860,35.7275428772,95.4364624023,0.0648885965,-0.0187947154,-0.0116810799,
125.043,-3.2468085289,1.3837627172,14.4849557877,0.0597934015,0.0419722535,0.0106869340,-87.1709518433,48.7113189697,78.2430114746,0.0404570103,0.0607725978,0.0064785480,10.1395912170,84.0893783569,100.4210662842,0.0278868675,0.0176352262,0.0240126252,48.8146705627,35.7273406982,95.4420471191,0.0756279230,-0.0168176293,-0.0087820292,
125.053,-3.2459251881,1.3837329149,14.4867792130,0.0583280362,0.0453748330,0.0111739635,-87.2033920288,48.8030662537,78.2025222778,0.0376064181,0.0600773096,0.0088637471,10.1859340668,84.0838394165,100.4785308838,0.0254355073,0.0253470838,0.0249091983,48.8125152588,35.7324790955,95.4487838745,0.0625170469,-0.0148050785,-0.0097470880,
125.063,-3.2454447746,1.3855831623,14.4878568649,0.0578720383,0.0419484563,0.0058033466,-87.2344665527,48.8954200745,78.1587371826,0.0337842703,0.0588832498,0.0131855607,10.2377967834,84.0788040161,100.5412292480,0.0244498849,0.0310978591,0.0243555903,48.8096275330,35.7392311096,95.4554061890,0.0572416782,-0.0200973749,-0.0141269565,
125.073,-3.2460820675,1.3829559088,14.4897041321,0.0651504174,0.0444010161,0.0072677732,-87.2677764893,48.9904975891,78.1108856201,0.0378038883,0.0679065585,0.0170450807,10.2642202377,84.0771865845,100.5787887573,0.0244469643,0.0222560465,0.0214069486,48.8102645874,35.7400894165,95.4654235840,0.0758085251,-0.0152139068,-0.0180206299,
125.083,-3.2474801540,1.3827687502,14.4908685684,0.0607526191,0.0439370945,0.0067808032,-87.3101882935,49.0928916931,78.0575256348,0.0394636393,0.0734180212,0.0136879086,10.2779111862,84.0755233765,100.6054229736,0.0254205465,0.0246673822,0.0223583579,48.8078880310,35.7439498901,95.4743041992,0.0592616200,-0.0239512324,-0.0131372809,
125.093,-3.2474217415,1.3845270872,14.4938144684,0.0563887656,0.0424711928,0.0048285127,-87.3637771606,49.1977729797,77.9978637695,0.0440790653,0.0764586926,0.0065513849,10.2915391922,84.0741424561,100.6311721802,0.0239531994,0.0241509080,0.0247853994,48.8053207397,35.7472572327,95.4830093384,0.0568671227,-0.0229253173,-0.0116775632,
125.103,-3.2482047081,1.3833104372,14.4950218201,0.0602737889,0.0395551734,0.0126407743,-87.4190597534,49.3117103577,77.9386444092,0.0404941440,0.0779132843,0.0121321082,10.3142290115,84.0710983276,100.6669464111,0.0263891220,0.0245881975,0.0266904235,48.8025054932,35.7513694763,95.4905395508,0.0544838905,-0.0238440633,-0.0082619786,
125.113,-3.2479598522,1.3821674585,14.4987182617,0.0583007224,0.0429689065,0.0111755133,-87.4715118408,49.4312438965,77.8790359497,0.0369698405,0.0753827095,0.0162161589,10.3473482132,84.0686798096,100.7122573853,0.0278496146,0.0211034417,0.0139692426,48.7996711731,35.7490425110,95.4994583130,0.0739821792,-0.0165112615,-0.0073313117,
125.123,-3.2477457523,1.3811730146,14.4999303818,0.0592599362,0.0410120785,0.0058037639,-87.5222091675,49.5594406128,77.8190612793,0.0369582176,0.0781037807,0.0144237280,10.3704118729,84.0670318604,100.7485122681,0.0210106969,0.0220325291,0.0227336884,48.7983093262,35.7501602173,95.5082855225,0.0705800653,-0.0174665451,-0.0097796917,
125.133,-3.2480828762,1.3836625814,14.5009555817,0.0578385293,0.0390647650,0.0077583790,-87.5615234375,49.6932106018,77.7656250000,0.0399354100,0.0787885189,0.0164091587,10.4128122330,84.0608520508,100.8035736084,0.0263706446,0.0248671174,0.0236254334,48.7941513062,35.7547454834,95.5130462646,0.0569730997,-0.0193457007,-0.0024689436,
125.143,-3.2485375404,1.3819563389,14.5021848679,0.0617150068,0.0429789685,0.0048280358,-87.5978851318,49.8333282471,77.7105102539,0.0400502682,0.0769419670,0.0139678121,10.4379997253,84.0532760620,100.8418502808,0.0287983418,0.0218681097,0.0322937369,48.7952346802,35.7564506531,95.5219192505,0.0701808929,-0.0125067830,-0.0151412487,
125.153,-3.2468988895,1.3824034929,14.5021286011,0.0583048388,0.0439269841,0.0072687268,-87.6356582642,49.9805374146,77.6491470337,0.0343807340,0.0730441213,0.0071495771,10.4871912003,84.0456924438,100.9014129639,0.0273197889,0.0232205093,0.0282789469,48.7917671204,35.7618522644,95.5284881592,0.0580503345,-0.0187806487,-0.0166066885,
125.163,-3.2474937439,1.3832380772,14.5026407242,0.0592959635,0.0424724817,0.0097106695,-87.6747894287,50.1356468201,77.5834350586,0.0366070271,0.0739192367,0.0052316785,10.5247526169,84.0389862061,100.9524688721,0.0219365358,0.0241081119,0.0247619748,48.7895736694,35.7668838501,95.5365066528,0.0620278716,-0.0240926743,-0.0136666894,
125.173,-3.2464318275,1.3820532560,14.5044488907,0.0622049794,0.0439188555,0.0062912703,-87.7176666260,50.2928810120,77.5139083862,0.0408045650,0.0728095174,0.0082363486,10.5541114807,84.0339813232,100.9966735840,0.0219274759,0.0206212103,0.0217586160,48.7911605835,35.7696228027,95.5449218750,0.0654846430,-0.0133442283,-0.0199791193,
125.183,-3.2467212677,1.3810484409,14.5062522888,0.0616991669,0.0434356369,0.0097090602,-87.7668380737,50.4551925659,77.4374542236,0.0372401476,0.0799293518,0.0005691648,10.6164169312,84.0293197632,101.0718383789,0.0219190121,0.0273291469,0.0207248330,48.7884483337,35.7736816406,95.5515975952,0.0601710081,-0.0147526264,-0.0102150440,
125.193,-3.2451417446,1.3812097311,14.5092725754,0.0597488582,0.0478026532,0.0023832321,-87.8142623901,50.6299133301,77.3614196777,0.0367367268,0.0849227905,0.0085099339,10.6271009445,84.0234451294,101.0962371826,0.0258145928,0.0160608590,0.0274664164,48.7857322693,35.7822532654,95.5597915649,0.0563861132,-0.0219857693,-0.0116512775,
125.203,-3.2456002235,1.3832230568,14.5115919113,0.0578308590,0.0448809005,0.0145916343,-87.8672409058,50.8092575073,77.2819442749,0.0377418995,0.0766662359,0.0077213049,10.6641664505,84.0178375244,101.1468124390,0.0267809629,0.0252529979,0.0268968940,48.7857017517,35.7844619751,95.5688323975,0.0749720931,-0.0122029781,-0.0116367936,
125.213,-3.2455036640,1.3838553429,14.5139188766,0.0602832995,0.0404846705,0.0072675347,-87.9222946167,50.9960174561,77.2041778564,0.0324733257,0.0829513669,0.0128144622,10.7031965256,84.0111923218,101.1987686157,0.0218860507,0.0202783346,0.0199651122,48.7841796875,35.7924880981,95.5783996582,0.0540896654,-0.0199394822,-0.0086689591,
125.223,-3.2459964752,1.3831102848,14.5144977570,0.0602702983,0.0429346822,0.0018968582,-87.9842300415,51.1789741516,77.1212081909,0.0437564254,0.0780529976,0.0086994171,10.7647371292,84.0047760010,101.2745056152,0.0257806182,0.0264930129,0.0198770761,48.7838592529,35.7962913513,95.5879211426,0.0653739572,-0.0140479803,-0.0101118088,
125.233,-3.2472181320,1.3838474751,14.5174999237,0.0558886304,0.0400262550,0.0116636157,-88.0440750122,51.3633651733,77.0375366211,0.0433284640,0.0711736083,0.0109049082,10.8075342178,83.9984054565,101.3313827515,0.0247924328,0.0239532292,0.0227158070,48.7829322815,35.8005027771,95.5964660645,0.0678749084,-0.0110774040,-0.0140000582,
125.243,-3.2475678921,1.3842384815,14.5198888779,0.0588251390,0.0454034358,0.0023870468,-88.1039123535,51.5487136841,76.9497985840,0.0380199552,0.0706217289,0.0096875429,10.8693056107,83.9917831421,101.4063644409,0.0272217393,0.0326083899,0.0196986794,48.7826690674,35.8075866699,95.6049118042,0.0557681918,-0.0212744474,-0.0168844461,
125.253,-3.2510983944,1.3823229074,14.5204439163,0.0646510869,0.0386290438,0.0097139478,-88.1677551270,51.7397766113,76.8517303467,0.0347181559,0.0655914545,0.0070458055,10.8820028305,83.9858093262,101.4337615967,0.0218397379,0.0237769783,0.0259512663,48.7812004089,35.8151779175,95.6137084961,0.0509928465,-0.0207141042,-0.0153842568,
125.263,-3.2515988350,1.3848760128,14.5226001740,0.0622542314,0.0361962952,0.0106920600,-88.2264862061,51.9360847473,76.7504653931,0.0353703499,0.0697565079,0.0126469731,10.8982706070,83.9829177856,101.4672317505,0.0281820893,0.0237377584,0.0210250020,48.7807693481,35.8188629150,95.6241836548,0.0593457818,-0.0109161735,-0.0070633888,
125.273,-3.2512454987,1.3838167191,14.5244445801,0.0597943440,0.0435143858,0.0111790895,-88.2781295776,52.1362991333,76.6500701904,0.0350785851,0.0728811622,0.0186564922,10.9312763214,83.9814453125,101.5173721313,0.0276911259,0.0246490538,0.0151524544,48.7792739868,35.8235054016,95.6357650757,0.0574583411,-0.0167260170,-0.0094895363,
125.283,-3.2507748604,1.3838580847,14.5255508423,0.0617481880,0.0420413427,-0.0024924874,-88.3308486938,52.3426628113,76.5457382202,0.0328896046,0.0710304379,0.0149095058,10.9529628754,83.9766921997,101.5557861328,0.0218230486,0.0206877887,0.0253349543,48.7785072327,35.8198471069,95.6465988159,0.0798674822,-0.0147938132,-0.0075691938,
125.293,-3.2489330769,1.3860800266,14.5261087418,0.0544627383,0.0488451459,0.0106896162,-88.3821182251,52.5541229248,76.4424896240,0.0331858397,0.0769125223,0.0189569592,10.9629411697,83.9738006592,101.5828704834,0.0237708688,0.0216368735,0.0174788833,48.7786979675,35.8190155029,95.6576843262,0.0710666776,-0.0094308257,-0.0105021596,
125.303,-3.2476105690,1.3865717649,14.5271730423,0.0647252202,0.0449158438,0.0048294067,-88.4339065552,52.7666549683,76.3410491943,0.0339708924,0.0744704008,0.0103094578,10.9982814789,83.9706420898,101.6361465454,0.0247416496,0.0249792933,0.0213419199,48.7773590088,35.8251991272,95.6687164307,0.0569940209,-0.0176717043,-0.0129166245,
125.313,-3.2465624809,1.3878619671,14.5282688141,0.0598649234,0.0439209938,0.0067821741,-88.4816665649,52.9847488403,76.2468109131,0.0377331376,0.0753581524,0.0118712783,11.0235366821,83.9671325684,101.6784591675,0.0276648998,0.0210159421,0.0173902512,48.7801742554,35.8249893188,95.6806259155,0.0721277595,-0.0108634830,-0.0133756399,
125.323,-3.2472949028,1.3883972168,14.5293855667,0.0603625476,0.0419806130,0.0067832470,-88.5344696045,53.2048645020,76.1521377563,0.0375986695,0.0781630874,0.0076223016,11.0546054840,83.9589462280,101.7270202637,0.0217905045,0.0204432905,0.0304439664,48.7786331177,35.8261146545,95.6904678345,0.0740968585,-0.0181649327,-0.0094794035,
125.333,-3.2471320629,1.3868311644,14.5306119919,0.0613117814,0.0429543778,0.0072706342,-88.5886001587,53.4255294800,76.0541000366,0.0389229059,0.0736277699,0.0136348605,11.0933027267,83.9525985718,101.7821502686,0.0222671032,0.0257230699,0.0308439136,48.7770767212,35.8325767517,95.6999130249,0.0585632920,-0.0220068693,-0.0172642469,
125.343,-3.2488431931,1.3872129917,14.5311002731,0.0608301610,0.0385896377,0.0082489848,-88.6467056274,53.6445274353,75.9488906860,0.0304523706,0.0705717206,0.0113822222,11.1167249680,83.9474716187,101.8240127563,0.0203045607,0.0266393125,0.0249046683,48.7734069824,35.8390426636,95.7091445923,0.0537719727,-0.0243644118,-0.0118886828,
125.353,-3.2472307682,1.3861179352,14.5323143005,0.0617876202,0.0458858050,0.0067821145,-88.6991195679,53.8610229492,75.8409423828,0.0341513753,0.0607040524,0.0095525384,11.1625728607,83.9431991577,101.8876800537,0.0237146616,0.0211699605,0.0214334726,48.7735061646,35.8436737061,95.7198333740,0.0572554469,-0.0194469094,-0.0167393088,
125.363,-3.2469968796,1.3847922087,14.5328798294,0.0646941736,0.0453934707,0.0087342262,-88.7416839600,54.0763893127,75.7322082520,0.0397804379,0.0576767921,0.0046867132,11.2007160187,83.9393768311,101.9442520142,0.0251724720,0.0245051980,0.0140599608,48.7757453918,35.8461341858,95.7332534790,0.0694973469,-0.0150542259,-0.0157220960,
125.373,-3.2490155697,1.3845112324,14.5327806473,0.0607830212,0.0376161523,0.0053181052,-88.7638778687,54.2944335938,75.6320343018,0.0302885175,0.0668059587,0.0264648795,11.2289094925,83.9334640503,101.9914932251,0.0280912519,0.0224805176,0.0276433825,48.7736320496,35.8487777710,95.7445220947,0.0631870627,-0.0115963817,-0.0059616566,
125.383,-3.2487897873,1.3822046518,14.5346469879,0.0641607493,0.0473778993,0.0106881857,-88.7806701660,54.5148696899,75.5315780640,0.0374107361,0.0734497309,0.0144956708,11.2176322937,83.9320449829,101.9981384277,0.0222292542,0.0176137388,0.0207792521,48.7703933716,35.8544235229,95.7546386719,0.0515481234,-0.0227531791,-0.0132818818,
125.393,-3.2505142689,1.3814083338,14.5357723236,0.0626820028,0.0386188924,0.0014122725,-88.7953720093,54.7389640808,75.4319458008,0.0338155627,0.0731962919,0.0103172660,11.2382822037,83.9254226685,102.0365295410,0.0217287540,0.0263426900,0.0294650197,48.7689247131,35.8595275879,95.7676467896,0.0565031767,-0.0168409348,-0.0117985010,
125.403,-3.2507526875,1.3819942474,14.5375804901,0.0563445762,0.0435058475,0.0170373321,-88.8098068237,54.9660453796,75.3354034424,0.0404917002,0.0816806555,0.0159009695,11.2510547638,83.9263305664,102.0683517456,0.0261249542,0.0229042470,0.0148368478,48.7686805725,35.8608779907,95.7812194824,0.0614050627,-0.0182932019,-0.0113039017,
125.413,-3.2508447170,1.3822203875,14.5374336243,0.0656258613,0.0464371331,0.0102022886,-88.8378906250,55.1976127625,75.2311172485,0.0345043540,0.0803290606,0.0142962933,11.2615671158,83.9215164185,102.0972595215,0.0319754481,0.0233570337,0.0269669294,48.7692413330,35.8588333130,95.7938995361,0.0735831857,-0.0090367198,-0.0103349686,
125.423,-3.2514202595,1.3808691502,14.5380191803,0.0626726002,0.0425409339,0.0097134709,-88.8766708374,55.4221687317,75.1203689575,0.0460122824,0.0722343922,0.0093750358,11.2820425034,83.9143981934,102.1366958618,0.0226849318,0.0228075683,0.0283225775,48.7648315430,35.8664207458,95.8045578003,0.0526944399,-0.0235856771,-0.0059362650,
125.433,-3.2523264885,1.3810925484,14.5385675430,0.0592585318,0.0435332879,0.0087381601,-88.9222488403,55.6448478699,75.0044250488,0.0364929438,0.0656241775,0.0074455738,11.3048553467,83.9104995728,102.1792526245,0.0241425633,0.0217757225,0.0219177008,48.7636222839,35.8688201904,95.8166580200,0.0634706020,-0.0118372440,-0.0083743930,
125.443,-3.2537653446,1.3814976215,14.5397109985,0.0587773137,0.0416052118,0.0097162724,-88.9699249268,55.8637504578,74.8824310303,0.0396195054,0.0551536679,0.0084602833,11.3401718140,83.9069900513,102.2355270386,0.0270657539,0.0221869051,0.0233370066,48.7588768005,35.8705139160,95.8266296387,0.0615413785,-0.0166627765,-0.0035305619,
125.453,-3.2545466423,1.3831242323,14.5389995575,0.0558760092,0.0421070680,-0.0029776096,-89.0144958496,56.0846786499,74.7603454590,0.0354295373,0.0627105832,0.0104171634,11.3581609726,83.9044876099,102.2738647461,0.0290142298,0.0211687386,0.0189077258,48.7576713562,35.8760719299,95.8377685547,0.0625964999,-0.0170971155,-0.0127833486,
125.463,-3.2551546097,1.3831949234,14.5426158905,0.0602717698,0.0465121865,0.0048356056,-89.0744628906,56.3116683960,74.6352233887,0.0342155695,0.0823807716,0.0081248879,11.3632125854,83.9005889893,102.2998504639,0.0314484239,0.0196813643,0.0242150426,48.7552261353,35.8774681091,95.8487396240,0.0704287887,-0.0190166235,-0.0181710124,
125.473,-3.2536611557,1.3848989010,14.5431184769,0.0563952550,0.0411150344,0.0146000385,-89.1405029297,56.5389060974,74.5085067749,0.0368971229,0.0663942695,0.0073494315,11.3821277618,83.8951034546,102.3391036987,0.0265554190,0.0215810537,0.0290135741,48.7512283325,35.8778610229,95.8579788208,0.0635984540,-0.0194646120,-0.0157694817,
125.483,-3.2535018921,1.3809900284,14.5449981689,0.0675575212,0.0450186022,0.0087394118,-89.2197952271,56.7699203491,74.3755950928,0.0444845557,0.0757358670,0.0013226867,11.4020700455,83.8913116455,102.3781509399,0.0226421356,0.0205546618,0.0240744948,48.7481727600,35.8805885315,95.8699874878,0.0631487370,-0.0203917027,-0.0128536224,
125.493,-3.2543382645,1.3805310726,14.5479898453,0.0621784180,0.0435683355,0.0097161531,-89.3018493652,57.0077056885,74.2455215454,0.0374742746,0.0854573250,0.0124037862,11.4348020554,83.8895797729,102.4304885864,0.0245920420,0.0239062309,0.0157582164,48.7453308105,35.8791580200,95.8810195923,0.0724058151,-0.0154933333,-0.0094755292,
125.503,-3.2562744617,1.3816261292,14.5497140884,0.0563381538,0.0377426706,0.0053243041,-89.4057998657,57.2399978638,74.1128387451,0.0313742757,0.0708361864,0.0061037540,11.4528818130,83.8874282837,102.4714889526,0.0280060172,0.0199588835,0.0201218128,48.7427330017,35.8828697205,95.8929595947,0.0617160797,-0.0232531428,-0.0114314556,
125.513,-3.2569570541,1.3812510967,14.5502882004,0.0592612959,0.0421490930,0.0102075934,-89.5176315308,57.4673576355,73.9850540161,0.0310735106,0.0616486073,0.0130484700,11.4879074097,83.8836135864,102.5285263062,0.0279989243,0.0247640610,0.0195848346,48.7406997681,35.8856086731,95.9063339233,0.0622431040,-0.0114943385,-0.0094814897,
125.523,-3.2575073242,1.3800781965,14.5521306992,0.0621705167,0.0489946492,0.0063010454,-89.6358413696,57.6870384216,73.8577804565,0.0341057777,0.0437750816,0.0107616782,11.5173358917,83.8812103271,102.5776748657,0.0245764852,0.0232364833,0.0224859715,48.7410316467,35.8881835938,95.9206924438,0.0613029599,-0.0139191151,-0.0114136934,
125.533,-3.2558345795,1.3801927567,14.5532178879,0.0636373609,0.0440826938,-0.0020006895,-89.7554016113,57.9084320068,73.7347335815,0.0361649394,0.0634640455,0.0084739923,11.5429944992,83.8774337769,102.6247482300,0.0231046081,0.0256173313,0.0253622532,48.7431983948,35.8902626038,95.9365463257,0.0701214075,-0.0100170374,-0.0196773410,
125.543,-3.2542426586,1.3798217773,14.5549888611,0.0616777614,0.0435666926,0.0111805797,-89.8747329712,58.1176338196,73.6123046875,0.0317515135,0.0427960753,0.0086113214,11.5915279388,83.8762512207,102.6953201294,0.0221258402,0.0304057598,0.0195007324,48.7421264648,35.8896713257,95.9507446289,0.0745075941,-0.0188006163,-0.0118800402,
125.553,-3.2514114380,1.3793175220,14.5574665070,0.0577627160,0.0479119159,0.0048301220,-89.9862365723,58.3259201050,73.4897079468,0.0409901142,0.0636356473,0.0135474801,11.6131238937,83.8737487793,102.7372894287,0.0265157223,0.0205915272,0.0209324956,48.7395858765,35.8898506165,95.9622192383,0.0588851571,-0.0168224573,-0.0075118542,
125.563,-3.2511219978,1.3825600147,14.5597534180,0.0553778782,0.0454653911,0.0053195357,-90.0903472900,58.5182838440,73.3676834106,0.0393303037,0.0256215930,0.0130329132,11.6322965622,83.8719940186,102.7774581909,0.0274890065,0.0215263367,0.0228632092,48.7386436462,35.8932456970,95.9743118286,0.0550268888,-0.0211820006,-0.0114048719,
125.573,-3.2512764931,1.3827863932,14.5609178543,0.0592880845,0.0440032296,0.0062962770,-90.1920242310,58.7145309448,73.2396163940,0.0425788164,0.0725027323,0.0080916286,11.6514053345,83.8688888550,102.8137588501,0.0274832249,0.0209921598,0.0208675265,48.7362594604,35.8960418701,95.9877319336,0.0589726567,-0.0186969042,-0.0104348660,
125.583,-3.2493562698,1.3834612370,14.5608015060,0.0617412664,0.0449463278,0.0058065057,-90.2860260010,58.9034881592,73.1107330322,0.0462399125,0.0657750964,0.0089299083,11.6469945908,83.8659515381,102.8292007446,0.0265011787,0.0175719261,0.0227676034,48.7326049805,35.8968429565,95.9982604980,0.0624019504,-0.0191450119,-0.0065621138,
125.593,-3.2486486435,1.3832408190,14.5619745255,0.0588077307,0.0405394770,0.0092235208,-90.3726882935,59.0836601257,72.9845046997,0.0483481288,0.0596599579,0.0072530508,11.6730690002,83.8620452881,102.8717117310,0.0196579695,0.0262993872,0.0261327028,48.7297782898,35.9012565613,96.0090255737,0.0595346689,-0.0205494761,-0.0148629546,
125.603,-3.2480752468,1.3846069574,14.5624990463,0.0573667288,0.0444357060,0.0077588558,-90.4522399902,59.2624397278,72.8586349487,0.0440877080,0.0589315295,0.0055044889,11.6789379120,83.8615112305,102.8924789429,0.0225866437,0.0179856718,0.0105000734,48.7279930115,35.9023132324,96.0197219849,0.0698035359,-0.0136888027,-0.0080388188,
125.613,-3.2470843792,1.3857862949,14.5636816025,0.0539693311,0.0414887220,0.0116645694,-90.5241165161,59.4381523132,72.7398071289,0.0383269191,0.0670330524,0.0095398426,11.6871986389,83.8582534790,102.9160842896,0.0264868140,0.0228418410,0.0207027197,48.7247695923,35.9027633667,96.0285568237,0.0732278824,-0.0136551857,-0.0095348358,
125.623,-3.2464728355,1.3850812912,14.5655603409,0.0563984364,0.0444077812,0.0111753941,-90.5866928101,59.6112365723,72.6307601929,0.0315582156,0.0580794811,0.0164165497,11.7092475891,83.8560409546,102.9529800415,0.0230647326,0.0208400488,0.0187214613,48.7210502625,35.9036102295,96.0370712280,0.0717749596,-0.0145906210,-0.0085920691,
125.633,-3.2475442886,1.3849502802,14.5667572021,0.0583492815,0.0429616049,0.0048284531,-90.6574783325,59.7837905884,72.5187149048,0.0321012139,0.0701239109,0.0008990765,11.7659645081,83.8545837402,103.0262374878,0.0201323032,0.0275650918,0.0182301402,48.7167892456,35.9080924988,96.0448455811,0.0557250381,-0.0223288536,-0.0115368962,
125.643,-3.2467415333,1.3843444586,14.5672540665,0.0641980842,0.0409945101,0.0058041215,-90.7234649658,59.9535598755,72.4152832031,0.0326120853,0.0646268129,0.0121896267,11.8050432205,83.8541946411,103.0794906616,0.0235495567,0.0255379379,0.0197044015,48.7168426514,35.9076385498,96.0575180054,0.0659725666,-0.0145203471,-0.0090979934,
125.653,-3.2461936474,1.3826203346,14.5696172714,0.0685625300,0.0463560931,0.0077562332,-90.7795333862,60.1219978333,72.3162231445,0.0321271420,0.0659827590,0.0219227076,11.8190727234,83.8525390625,103.1100540161,0.0250113010,0.0264826119,0.0255416632,48.7190055847,35.9074096680,96.0703964233,0.0674341917,-0.0130774379,-0.0120062828,
125.663,-3.2470097542,1.3822915554,14.5695333481,0.0631856993,0.0439289138,0.0077564120,-90.8419265747,60.2890167236,72.2076950073,0.0355287194,0.0717490911,0.0033856034,11.8051557541,83.8513946533,103.1114501953,0.0269622803,0.0216219127,0.0235651135,48.7181968689,35.9052581787,96.0811386108,0.0717982650,-0.0160161257,-0.0086113811,
125.673,-3.2457895279,1.3812875748,14.5700378418,0.0656095892,0.0424428396,0.0062906742,-90.9021987915,60.4577178955,72.1048965454,0.0321014524,0.0848099291,0.0180273056,11.8095493317,83.8526000977,103.1318359375,0.0201286077,0.0230827332,0.0196803808,48.7167243958,35.9012413025,96.0910949707,0.0741829276,-0.0131036043,-0.0115839243,
125.683,-3.2472567558,1.3784651756,14.5712928772,0.0655603409,0.0458864346,0.0033602715,-90.9752807617,60.6251373291,72.0000610352,0.0423275232,0.0895829201,0.0068947077,11.7868862152,83.8505630493,103.1258163452,0.0279372931,0.0216525793,0.0254943371,48.7109603882,35.9022407532,96.0996170044,0.0610134602,-0.0281788707,-0.0062673688,
125.693,-3.2486498356,1.3771969080,14.5724554062,0.0626085252,0.0395630784,0.0126391649,-91.0618286133,60.7896156311,71.8890686035,0.0447086692,0.0782802105,0.0066135526,11.7801027298,83.8490295410,103.1341934204,0.0186570883,0.0226372182,0.0205877423,48.7072982788,35.9025955200,96.1083297729,0.0619950294,-0.0188645124,-0.0087448955,
125.703,-3.2496833801,1.3772952557,14.5723495483,0.0616336800,0.0410459265,0.0062921643,-91.1558151245,60.9540748596,71.7694549561,0.0426878333,0.0752725601,0.0044345856,11.8020744324,83.8474349976,103.1699218750,0.0254900455,0.0221016109,0.0215415955,48.7033538818,35.9049110413,96.1176910400,0.0610511899,-0.0207630992,-0.0068185329,
125.713,-3.2498841286,1.3769242764,14.5735139847,0.0591857992,0.0395845845,0.0048277378,-91.2544250488,61.1207313538,71.6404876709,0.0470260382,0.0834559202,0.0013089180,11.8245525360,83.8446960449,103.2082138062,0.0284146070,0.0235156715,0.0210205317,48.6972045898,35.9091033936,96.1240539551,0.0572041869,-0.0196968913,-0.0034371018,
125.723,-3.2505021095,1.3781039715,14.5740365982,0.0582298227,0.0444781333,0.0141060352,-91.3574600220,61.2846336365,71.5049285889,0.0518220067,0.0784917474,0.0074898601,11.8775568008,83.8417663574,103.2756652832,0.0249911547,0.0199880004,0.0190362930,48.6937026978,35.9103775024,96.1327056885,0.0718706250,-0.0162364841,-0.0107903481,
125.733,-3.2512254715,1.3777183294,14.5746135712,0.0591996536,0.0420493409,0.0072706938,-91.4746170044,61.4564628601,71.3564834595,0.0434933305,0.0880463719,-0.0052667260,11.9390935898,83.8348999023,103.3538208008,0.0298610926,0.0242439210,0.0252960324,48.6934814453,35.9126396179,96.1440582275,0.0738557577,-0.0142638087,-0.0083355308,
125.743,-3.2535011768,1.3780612946,14.5757017136,0.0611587614,0.0386710018,0.0102028847,-91.5852203369,61.6319503784,71.2086029053,0.0395816565,0.0775209963,0.0121833682,12.0013303757,83.8294982910,103.4305801392,0.0366868973,0.0162957609,0.0203461647,48.6907730103,35.9229621887,96.1513137817,0.0564235449,-0.0180655718,-0.0112248063,
125.753,-3.2532486916,1.3792771101,14.5768423080,0.0577620119,0.0455025136,-0.0000508428,-91.7001876831,61.8198890686,71.0495376587,0.0377174616,0.0868163407,0.0057278275,12.0865736008,83.8243484497,103.5294189453,0.0195873976,0.0249075592,0.0193200707,48.6867904663,35.9336967468,96.1581344604,0.0565752387,-0.0247817039,-0.0082643628,
125.763,-3.2526049614,1.3784496784,14.5792598724,0.0611655414,0.0445147641,0.0087372661,-91.8214111328,62.0116729736,70.8869628906,0.0358752608,0.0867679119,0.0032155514,12.1726722717,83.8163223267,103.6291732788,0.0185957551,0.0232528150,0.0187323093,48.6831779480,35.9431915283,96.1651687622,0.0591508746,-0.0217452049,-0.0136097074,
125.773,-3.2563657761,1.3777881861,14.5815973282,0.0626188442,0.0377443507,0.0058109164,-91.9444198608,62.2088203430,70.7208786011,0.0291839838,0.0836991370,0.0055854917,12.2524251938,83.8084945679,103.7225646973,0.0293232203,0.0245400369,0.0254699588,48.6799011230,35.9511833191,96.1733856201,0.0602403283,-0.0197001100,-0.0131021738,
125.783,-3.2556791306,1.3799165487,14.5821065903,0.0548434779,0.0426151454,0.0126470327,-92.0660476685,62.4128303528,70.5560150146,0.0264440179,0.0741703510,0.0142744780,12.2971601486,83.8041915894,103.7814025879,0.0219908953,0.0263940096,0.0215116739,48.6787681580,35.9562034607,96.1807479858,0.0661705732,-0.0123267174,-0.0077093244,
125.793,-3.2568864822,1.3801273108,14.5832262039,0.0592416860,0.0382416472,0.0033710003,-92.1874084473,62.6203193665,70.3870925903,0.0378808975,0.0855764151,0.0180628300,12.3487043381,83.8038406372,103.8453445435,0.0215019584,0.0233664215,0.0146909356,48.6811103821,35.9633712769,96.1914978027,0.0594359636,-0.0147346854,-0.0178896189,
125.803,-3.2568640709,1.3786245584,14.5843858719,0.0631217211,0.0382412896,0.0043469667,-92.3022994995,62.8307762146,70.2151718140,0.0371227264,0.0788637102,0.0193433166,12.4015102386,83.7972335815,103.9135513306,0.0224660635,0.0295905173,0.0331550241,48.6802024841,35.9681892395,96.2016601563,0.0585274100,-0.0156657696,-0.0095658898,
125.813,-3.2557013035,1.3783643246,14.5843753815,0.0587226450,0.0465218239,0.0097169876,-92.4220199585,63.0483665466,70.0391159058,0.0285964608,0.0832628012,0.0147836208,12.4328994751,83.7923049927,103.9639587402,0.0248981714,0.0236545801,0.0257638693,48.6784057617,35.9687309265,96.2126464844,0.0668358207,-0.0107621551,-0.0110467076,
125.823,-3.2547464371,1.3793116808,14.5873775482,0.0572743341,0.0455286056,0.0106925368,-92.5402069092,63.2676429749,69.8644332886,0.0293479562,0.0832331181,0.0189858675,12.4752283096,83.7893371582,104.0240325928,0.0336816311,0.0274706781,0.0237800479,48.6774253845,35.9660263062,96.2229995728,0.0755866766,-0.0083323717,-0.0120515823,
125.833,-3.2550642490,1.3792198896,14.5884981155,0.0621555410,0.0435810126,-0.0039553642,-92.6621017456,63.4843788147,69.6802291870,0.0334845781,0.0680972338,0.0158801675,12.4847192764,83.7848510742,104.0520553589,0.0224426985,0.0215768218,0.0290796161,48.6798591614,35.9688186646,96.2361068726,0.0609777570,-0.0112631917,-0.0144481659,
125.843,-3.2548646927,1.3804931641,14.5896177292,0.0577832237,0.0430892371,0.0067873597,-92.7947845459,63.7111968994,69.4872512817,0.0352448821,0.0835545063,0.0118582845,12.4822607040,83.7825241089,104.0692672729,0.0273211002,0.0220611393,0.0241569877,48.6798515320,35.9711837769,96.2481384277,0.0658938885,-0.0180809498,-0.0139440298,
125.853,-3.2552430630,1.3825904131,14.5919246674,0.0573315397,0.0430957675,0.0082533360,-92.9384002686,63.9342002869,69.2902145386,0.0394033194,0.0702502131,0.0093715191,12.4909038544,83.7798385620,104.0969238281,0.0195035338,0.0244763494,0.0255805254,48.6788253784,35.9708671570,96.2598114014,0.0619832277,-0.0136792660,-0.0056563020,
125.863,-3.2558054924,1.3815926313,14.5919113159,0.0587789752,0.0406641848,-0.0015121698,-93.0985641479,64.1640167236,69.0777206421,0.0426234007,0.0841672719,-0.0022900105,12.5010852814,83.7767562866,104.1261215210,0.0243805051,0.0229811668,0.0279758573,48.6776542664,35.9722518921,96.2703247070,0.0585848093,-0.0175638795,-0.0120069385,
125.873,-3.2557992935,1.3824508190,14.5943441391,0.0553759784,0.0465234332,0.0126484036,-93.2490310669,64.3928298950,68.8717269897,0.0297081470,0.0575680137,0.0147637129,12.5032281876,83.7756500244,104.1473236084,0.0238901377,0.0249258280,0.0206320286,48.6761627197,35.9698829651,96.2834701538,0.0717349648,-0.0146384835,-0.0125270486,
125.883,-3.2559790611,1.3819482327,14.5955619812,0.0578086153,0.0416437611,0.0141130686,-93.4154129028,64.6288757324,68.6486053467,0.0461294651,0.0830848515,0.0060318112,12.5134620667,83.7693862915,104.1753311157,0.0272962451,0.0204896331,0.0312782526,48.6767883301,35.9741783142,96.2979812622,0.0595886111,-0.0190057755,-0.0168858767,
125.893,-3.2557423115,1.3807766438,14.5961627960,0.0597412996,0.0411513820,0.0053234100,-93.5943679810,64.8728866577,68.4126510620,0.0352507830,0.0801409781,-0.0021490455,12.5292558670,83.7657089233,104.2087783813,0.0253361464,0.0145860314,0.0199882388,48.6731605530,35.9777603149,96.3074951172,0.0567094684,-0.0208975077,-0.0081108212,
125.903,-3.2551152706,1.3832784891,14.5972356796,0.0558786988,0.0401638374,0.0150890350,-93.7773895264,65.1200027466,68.1692733765,0.0395151973,0.0615110993,0.0067617297,12.5835390091,83.7613067627,104.2820281982,0.0277692080,0.0232571959,0.0150589347,48.6665153503,35.9793167114,96.3155670166,0.0596612096,-0.0198469758,-0.0086596012,
125.913,-3.2571392059,1.3826668262,14.5984096527,0.0602625608,0.0416639596,0.0116733909,-93.9807510376,65.3872451782,67.9125976563,0.0365848541,0.1167613566,0.0025888681,12.6328649521,83.7540512085,104.3475189209,0.0282437205,0.0226485431,0.0281404853,48.6640853882,35.9841651917,96.3251419067,0.0616827607,-0.0246697664,-0.0145114660,
125.923,-3.2578446865,1.3828928471,14.5995426178,0.0617313460,0.0441176482,0.0146035552,-94.2029037476,65.6514053345,67.6432342529,0.0487492681,0.0997731686,0.0019415021,12.6706380844,83.7472381592,104.4037628174,0.0345784426,0.0205993950,0.0275587440,48.6580276489,35.9894294739,96.3322982788,0.0593156815,-0.0240843892,-0.0052627921,
125.933,-3.2543239594,1.3840242624,14.6007156372,0.0583331212,0.0504039451,0.0082528591,-94.4107208252,65.9035034180,67.3697814941,0.0461599231,0.0497681499,0.0045918226,12.7299261093,83.7405319214,104.4815673828,0.0296828747,0.0268094242,0.0230751038,48.6569595337,35.9947891235,96.3431320190,0.0637859106,-0.0181738138,-0.0120737553,
125.943,-3.2553405762,1.3837335110,14.6013278961,0.0568632036,0.0430974402,0.0116717815,-94.6408462524,66.1635437012,67.0838623047,0.0318902135,0.0674845576,0.0112650394,12.7962760925,83.7323379517,104.5664215088,0.0296672583,0.0242120326,0.0244337916,48.6567001343,35.9966125488,96.3561859131,0.0667412877,-0.0059503913,-0.0052283406,
125.953,-3.2542643547,1.3844619989,14.6048784256,0.0602938831,0.0416138358,0.0102061629,-94.8787002563,66.4196395874,66.7921600342,0.0297811627,0.0715750456,0.0208930969,12.8557548523,83.7283935547,104.6431808472,0.0194058418,0.0270141661,0.0234167576,48.6543083191,35.9987640381,96.3675994873,0.0706779957,-0.0171419382,-0.0120751858,
125.963,-3.2546303272,1.3832418919,14.6067514420,0.0583194681,0.0430850759,0.0146006942,-95.1253128052,66.6742858887,66.4916992188,0.0271555185,0.0629767776,0.0095518827,12.8862352371,83.7255172729,104.6915283203,0.0262362957,0.0215744972,0.0170346498,48.6536674500,35.9985580444,96.3788986206,0.0706750751,-0.0107899308,-0.0130598545,
125.973,-3.2579512596,1.3825280666,14.6097393036,0.0607484207,0.0392366983,0.0048380494,-95.3723297119,66.9339141846,66.1761932373,0.0279637575,0.0747945011,0.0050059557,12.9109573364,83.7206420898,104.7341918945,0.0198793411,0.0234621167,0.0335651636,48.6538658142,35.9980239868,96.3898849487,0.0706675053,-0.0176318288,-0.0179442167,
125.983,-3.2573509216,1.3835115433,14.6108427048,0.0588124543,0.0402027816,0.0072792768,-95.6177368164,67.1940002441,65.8499832153,0.0380335450,0.0714574158,0.0038291216,12.9495944977,83.7160873413,104.7902145386,0.0257300138,0.0194653273,0.0198345184,48.6500587463,36.0028572083,96.3979415894,0.0555990338,-0.0190239549,-0.0101392865,
125.993,-3.2578914165,1.3820986748,14.6114606857,0.0607409291,0.0426536389,0.0097202659,-95.8628158569,67.4638824463,65.5214309692,0.0378959775,0.0869949162,0.0108980536,12.9809932709,83.7078552246,104.8387145996,0.0227845907,0.0237694383,0.0260623693,48.6481285095,36.0084266663,96.4093093872,0.0654433370,-0.0228692889,-0.0164695978,
126.003,-3.2585349083,1.3805809021,14.6138877869,0.0631558523,0.0465711355,-0.0024864674,-96.1123275757,67.7310409546,65.1897430420,0.0460206270,0.0771715343,0.0130791664,13.0288333893,83.7028121948,104.9021530151,0.0271694660,0.0226818919,0.0172059536,48.6469116211,36.0109748840,96.4193801880,0.0728034973,-0.0145376325,-0.0071882010,
126.013,-3.2583181858,1.3809607029,14.6150436401,0.0587679483,0.0431493819,0.0067909956,-96.3633117676,67.9947738647,64.8394241333,0.0399426818,0.0688550472,0.0113311410,13.0773162842,83.6954345703,104.9654769897,0.0222725272,0.0181676745,0.0175971985,48.6439628601,36.0169143677,96.4263229370,0.0601920485,-0.0144642591,-0.0076670647,
126.023,-3.2578384876,1.3825649023,14.6179561615,0.0573310927,0.0372816101,0.0175329447,-96.6147842407,68.2533874512,64.4611358643,0.0386947393,0.0596342683,0.0100447536,13.1546726227,83.6872634888,105.0573196411,0.0266513824,0.0189652443,0.0223768353,48.6424674988,36.0228271484,96.4340591431,0.0602754951,-0.0192875862,-0.0139905810,
126.033,-3.2589294910,1.3839980364,14.6184072495,0.0612623505,0.0451130792,0.0033748746,-96.8611907959,68.5038528442,64.0536041260,0.0393289328,0.0583499968,0.0087042451,13.2428026199,83.6808013916,105.1588897705,0.0183382034,0.0343974531,0.0271918774,48.6414489746,36.0254135132,96.4434967041,0.0710542202,-0.0148636103,-0.0105658770,
126.043,-3.2580044270,1.3864434958,14.6201248169,0.0559339225,0.0455851816,0.0063042045,-97.1486053467,68.7552566528,63.6232490540,0.0428809524,0.0921658874,0.0012354255,13.3053092957,83.6751632690,105.2404785156,0.0236984491,0.0259559155,0.0251748562,48.6440391541,36.0302162170,96.4547424316,0.0691688657,-0.0133859515,-0.0163652301,
126.053,-3.2582805157,1.3865860701,14.6224508286,0.0622840710,0.0411954634,0.0150938630,-97.4575881958,68.9956665039,63.1946601868,0.0370689631,0.0773015916,0.0095068812,13.3534660339,83.6726226807,105.3066635132,0.0217404366,0.0199946761,0.0148996711,48.6419868469,36.0338592529,96.4653167725,0.0623843670,-0.0133387446,-0.0065966249,
126.063,-3.2577733994,1.3888050318,14.6235113144,0.0589048155,0.0441162661,0.0111876726,-97.7878189087,69.2302780151,62.7547225952,0.0409702659,0.0786165297,-0.0026305318,13.4134283066,83.6632690430,105.3857955933,0.0217224360,0.0217967033,0.0211197734,48.6407508850,36.0365142822,96.4753112793,0.0677928925,-0.0133067966,-0.0095214248,
126.073,-3.2587399483,1.3868393898,14.6240758896,0.0647298992,0.0412034653,0.0072821975,-98.1154174805,69.4610748291,62.3193664551,0.0453207493,0.0780308843,0.0164288282,13.4750661850,83.6558456421,105.4667892456,0.0270792246,0.0187198520,0.0224887729,48.6397361755,36.0390739441,96.4869613647,0.0785712600,-0.0127892494,-0.0148858428,
126.083,-3.2579493523,1.3866777420,14.6258573532,0.0608208254,0.0450959392,0.0077695251,-98.4575576782,69.6893157959,61.8696136475,0.0384101868,0.0774623156,0.0125874877,13.5728559494,83.6469497681,105.5856781006,0.0290151834,0.0214276314,0.0189696550,48.6366958618,36.0460586548,96.4964065552,0.0684158802,-0.0205196142,-0.0178005099,
126.093,-3.2586786747,1.3856527805,14.6251792908,0.0632443503,0.0421789810,0.0048400164,-98.8099365234,69.9132003784,61.3994827271,0.0368296504,0.0735262632,0.0097478628,13.6793441772,83.6361846924,105.7097015381,0.0299709439,0.0206927359,0.0203059912,48.6319541931,36.0539360046,96.5032043457,0.0699918866,-0.0199264288,-0.0099846125,
126.103,-3.2583353519,1.3841886520,14.6251192093,0.0651719272,0.0436378829,0.0116750002,-99.1622009277,70.1352767944,60.9127235413,0.0235053301,0.0681432784,0.0146772861,13.7799768448,83.6267089844,105.8285827637,0.0275111794,0.0180203319,0.0211722851,48.6308135986,36.0606651306,96.5124130249,0.0676454306,-0.0120514631,-0.0114162564,
126.113,-3.2576546669,1.3864037991,14.6268472672,0.0544683896,0.0426494069,0.0019096136,-99.5251693726,70.3529129028,60.3975372314,0.0208830237,0.0633007586,0.0049850941,13.8874549866,83.6205291748,105.9516906738,0.0201749802,0.0236487389,0.0191677213,48.6267623901,36.0674095154,96.5202865601,0.0677406192,-0.0124498606,-0.0036000013,
126.123,-3.2582101822,1.3884260654,14.6267480850,0.0549919531,0.0426590368,0.0092352033,-99.8850479126,70.5664901733,59.8723411560,0.0270126462,0.0658388734,0.0074470043,13.9776458740,83.6194839478,106.0592041016,0.0279854536,0.0278663337,0.0152873397,48.6240501404,36.0732612610,96.5305480957,0.0604988933,-0.0148210526,-0.0118910074,
126.133,-3.2567143440,1.3878746033,14.6273117065,0.0618182682,0.0455626808,0.0043507218,-100.2414932251,70.7772750854,59.3285903931,0.0248122811,0.0630458295,0.0108271837,14.0336294174,83.6168136597,106.1318206787,0.0245622993,0.0267716944,0.0221066475,48.6216201782,36.0754394531,96.5415573120,0.0654124618,-0.0123400092,-0.0055533051,
126.143,-3.2561209202,1.3900344372,14.6289634705,0.0613676757,0.0465288535,0.0106986165,-100.6173934937,70.9910354614,58.7579269409,0.0328699946,0.0782418549,0.0010782480,14.0528001785,83.6132736206,106.1679458618,0.0230906010,0.0159777701,0.0269382000,48.6227226257,36.0794677734,96.5544891357,0.0478911400,-0.0132958889,-0.0094210505,
126.153,-3.2549695969,1.3902642727,14.6301841736,0.0550240278,0.0421142615,0.0072795749,-101.0264663696,71.2039794922,58.1596641541,0.0399333835,0.0870579183,-0.0060917735,14.0745401382,83.6120529175,106.2063751221,0.0289475918,0.0208146870,0.0298622251,48.6221275330,36.0810394287,96.5646667480,0.0596320629,-0.0132781267,-0.0123460889,
126.163,-3.2559907436,1.3866229057,14.6326313019,0.0666792393,0.0387141705,0.0072792768,-101.4520797729,71.4147644043,57.5508003235,0.0401357412,0.0924618840,0.0048489571,14.0953617096,83.6095657349,106.2411041260,0.0245482326,0.0188103616,0.0239667892,48.6197624207,36.0855865479,96.5742340088,0.0582313538,-0.0229866505,-0.0133167505,
126.173,-3.2544262409,1.3848451376,14.6344375610,0.0642068163,0.0435697623,0.0043469071,-101.9074401855,71.6222457886,56.9276885986,0.0412836671,0.0973863006,0.0032113791,14.1357059479,83.6076889038,106.2988052368,0.0235680342,0.0162844956,0.0141931176,48.6207618713,36.0859146118,96.5849990845,0.0660485029,-0.0132277608,-0.0157454014,
126.183,-3.2566184998,1.3859629631,14.6337013245,0.0578786656,0.0392134041,0.0043501854,-102.3843994141,71.8240661621,56.3079719543,0.0365289450,0.0979694426,0.0123931766,14.1903324127,83.6017456055,106.3696289063,0.0269744396,0.0225021541,0.0204665661,48.6162681580,36.0894432068,96.5926895142,0.0646334291,-0.0204829574,-0.0055150986,
126.193,-3.2555146217,1.3849499226,14.6360874176,0.0637203678,0.0440770052,0.0023949146,-102.8977127075,72.0179824829,55.6709518433,0.0409972072,0.0917890668,0.0026925206,14.2394094467,83.5967864990,106.4331665039,0.0298944712,0.0145750344,0.0189452171,48.6151390076,36.0923690796,96.6016921997,0.0700458288,-0.0165435672,-0.0128314495,
126.203,-3.2543067932,1.3857827187,14.6384096146,0.0617817715,0.0464973561,0.0087419748,-103.4176940918,72.2101593018,55.0366859436,0.0366562605,0.0953793526,0.0159202218,14.2859840393,83.5914535522,106.4943466187,0.0279309750,0.0120218992,0.0208332539,48.6125411987,36.0970382690,96.6099319458,0.0754827261,-0.0218544006,-0.0152685642,
126.213,-3.2557013035,1.3871830702,14.6382741928,0.0569233894,0.0377325527,0.0014197230,-103.9565963745,72.3980102539,54.3954544067,0.0322816968,0.0950943232,0.0086919665,14.3613739014,83.5857086182,106.5872116089,0.0303611755,0.0221067667,0.0188220739,48.6095809937,36.1015281677,96.6194152832,0.0726163387,-0.0139796734,-0.0123395920,
