Time(sec),Gyr1_X(deg/sec),Gyr1_Y(deg/sec),Gyr1_Z(deg/sec),Acc1_X(m/s^2),Acc1_Y(m/s^2),Acc1_Z(m/s^2),Gyr2_X(deg/sec),Gyr2_Y(deg/sec),Gyr2_Z(deg/sec),Acc2_X(m/s^2),Acc2_Y(m/s^2),Acc2_Z(m/s^2),Gyr_X(deg/sec),Gyr_Y(deg/sec),Gyr_Z(deg/sec),Acc_X(m/s^2),Acc_Y(m/s^2),Acc_Z(m/s^2),Gyr_X(deg/sec),Gyr_Y(deg/sec),Gyr_Z(deg/sec),Acc_X(m/s^2),Acc_Y(m/s^2),Acc_Z(m/s^2),
146.013,-3.2379767895,1.3964197636,16.9771442413,0.0663618967,0.0374235660,0.0077533126,-116.8809127808,74.4176635742,48.8597526550,0.0272102952,0.0652092844,0.0052155256,15.8110332489,83.4295578003,125.2312240601,0.0237053633,0.0234888792,0.0262887478,48.5199089050,36.1536331177,112.2686462402,0.0577259064,-0.0151824951,-0.0163512826,
146.023,-3.2365221977,1.3962591887,16.9776935577,0.0604997203,0.0432576016,0.0057992339,-116.8775863647,74.4190521240,48.8676528931,0.0257519484,0.0583594888,0.0120270252,15.8253459930,83.4268112183,125.2547760010,0.0266295671,0.0254012346,0.0242982507,48.5177230835,36.1521568298,112.2763061523,0.0596582294,-0.0181030035,-0.0027117729,
146.033,-3.2346844673,1.3962525129,16.9789180756,0.0580581985,0.0466435589,0.0092152953,-116.8788757324,74.4169921875,48.8713951111,0.0301368237,0.0588757098,0.0037472844,15.8094348907,83.4244842529,125.2481918335,0.0207655430,0.0200504065,0.0291339755,48.5189590454,36.1505775452,112.2832336426,0.0694015622,-0.0166618824,-0.0124750733,
146.043,-3.2369434834,1.3957902193,16.9806785583,0.0619563833,0.0408235453,0.0101939440,-116.8778915405,74.4167785645,48.8787994385,0.0281826854,0.0583923310,0.0115572214,15.8132600784,83.4265670776,125.2630386353,0.0276056528,0.0259120166,0.0198929906,48.5176887512,36.1527671814,112.2901535034,0.0567371249,-0.0190746188,-0.0075911880,
146.053,-3.2377924919,1.3991395235,16.9817447662,0.0527374782,0.0393734165,0.0097079873,-116.8706893921,74.4201736450,48.8901100159,0.0223392248,0.0642178655,0.0173605680,15.8135147095,83.4292907715,125.2725448608,0.0202868581,0.0215300024,0.0170097351,48.5193786621,36.1508407593,112.3001098633,0.0659872890,-0.0161754489,-0.0114917755,
146.063,-3.2383923531,1.4005146027,16.9834156036,0.0620388165,0.0423135199,0.0126388073,-116.8755264282,74.4213562012,48.8909072876,0.0301572680,0.0617472976,0.0022354126,15.7945003510,83.4299697876,125.2641754150,0.0227296352,0.0186401308,0.0238441229,48.5167427063,36.1532325745,112.3062210083,0.0567437410,-0.0224801898,-0.0090631843,
146.073,-3.2375485897,1.3987447023,16.9858474731,0.0644493401,0.0452285483,0.0082423091,-116.8622360229,74.4226150513,48.9086875916,0.0379756689,0.0583385676,0.0192596912,15.7983188629,83.4283065796,125.2772216797,0.0280973911,0.0244842768,0.0238188505,48.5180740356,36.1567115784,112.3149490356,0.0519098639,-0.0210008621,-0.0143955946,
146.083,-3.2368702888,1.3986451626,16.9888610840,0.0610296354,0.0466815755,0.0131251216,-116.8582458496,74.4242019653,48.9156265259,0.0306589007,0.0602765828,0.0099537373,15.8028030396,83.4259109497,125.2908554077,0.0295574665,0.0273942053,0.0320832729,48.5218734741,36.1573448181,112.3255310059,0.0626610518,-0.0146839023,-0.0128868222,
146.093,-3.2381486893,1.3978458643,16.9894485474,0.0605274066,0.0423093364,0.0038480759,-116.8574676514,74.4266052246,48.9198532104,0.0248107910,0.0607304126,0.0104204416,15.8437738419,83.4228744507,125.3422698975,0.0217388868,0.0282766521,0.0227791071,48.5225334167,36.1571388245,112.3335266113,0.0607049465,-0.0132266879,-0.0094630122,
146.103,-3.2386906147,1.3985064030,16.9924163818,0.0580975264,0.0403656401,0.0053139925,-116.8546295166,74.4295043945,48.9273986816,0.0292189121,0.0616696179,0.0123396516,15.8474025726,83.4243621826,125.3539733887,0.0207653046,0.0214405656,0.0188993812,48.5258140564,36.1546897888,112.3434066772,0.0714126229,-0.0132762790,-0.0177458525,
146.113,-3.2394270897,1.3988913298,16.9929504395,0.0585925244,0.0398901775,0.0058031678,-116.8475952148,74.4318847656,48.9398307800,0.0326480269,0.0606731474,0.0137570500,15.8386526108,83.4238204956,125.3532257080,0.0261353254,0.0224316418,0.0198618770,48.5242958069,36.1515312195,112.3501281738,0.0699033141,-0.0142629147,-0.0026466250,
146.123,-3.2391242981,1.3995028734,16.9903182983,0.0634860098,0.0374434777,0.0023851991,-116.8561553955,74.4335098267,48.9378128052,0.0355853438,0.0611177683,0.0054798722,15.8242158890,83.4222717285,125.3479385376,0.0305267572,0.0234294832,0.0227592587,48.5205802917,36.1530685425,112.3555908203,0.0562530756,-0.0200757980,-0.0031636357,
146.133,-3.2388541698,1.4000757933,16.9908046722,0.0625194386,0.0432981364,0.0141038895,-116.8560714722,74.4368743896,48.9430236816,0.0243706107,0.0630212277,0.0147314668,15.8272209167,83.4208450317,125.3601913452,0.0207582712,0.0243934095,0.0242018700,48.5199813843,36.1554069519,112.3636245728,0.0553094745,-0.0146811008,-0.0070606470,
146.143,-3.2386116982,1.4012855291,16.9925994873,0.0561928898,0.0452470109,0.0136156082,-116.8604888916,74.4369583130,48.9444274902,0.0307186246,0.0600811541,0.0093783736,15.8393754959,83.4223937988,125.3797531128,0.0212496519,0.0243769288,0.0198397636,48.5207672119,36.1507110596,112.3730697632,0.0742862821,-0.0113066435,-0.0105019212,
146.153,-3.2387542725,1.3988900185,16.9937820435,0.0683581233,0.0462261140,0.0038493872,-116.8543930054,74.4400253296,48.9556694031,0.0292682052,0.0585832000,0.0156769156,15.8339242935,83.4226379395,125.3831253052,0.0256446600,0.0170643926,0.0232584476,48.5206909180,36.1517524719,112.3817062378,0.0606290698,-0.0200870037,-0.0095191598,
146.163,-3.2395386696,1.3964047432,16.9944019318,0.0644085109,0.0418453030,0.0072666407,-116.8524932861,74.4397659302,48.9633216858,0.0331732035,0.0590791106,0.0122531652,15.8211078644,83.4187011719,125.3784179688,0.0236836672,0.0200008154,0.0295342803,48.5210952759,36.1509742737,112.3888702393,0.0669657588,-0.0166788101,-0.0104968548,
146.173,-3.2401883602,1.3967977762,16.9956398010,0.0546497442,0.0442980230,0.0141036510,-116.8547058105,74.4412841797,48.9669837952,0.0263443589,0.0605171621,0.0107861757,15.8337688446,83.4188766479,125.3997802734,0.0280785561,0.0238831639,0.0231966376,48.5232048035,36.1511154175,112.3980636597,0.0611084104,-0.0152325630,-0.0153564215,
146.183,-3.2405409813,1.3957731724,16.9974479675,0.0614678040,0.0433276221,0.0014084578,-116.8589019775,74.4412002563,48.9681587219,0.0268322825,0.0590443462,0.0064097047,15.8332176208,83.4173278809,125.4091644287,0.0270988941,0.0209472775,0.0261003375,48.5251655579,36.1503067017,112.4068450928,0.0679329038,-0.0162336826,-0.0133880973,
146.193,-3.2403020859,1.3971686363,16.9991989136,0.0575859025,0.0452765599,0.0101977587,-116.8658523560,74.4402847290,48.9660949707,0.0282928348,0.0580669343,0.0025396943,15.8509693146,83.4163208008,125.4355545044,0.0275851488,0.0248141587,0.0202344060,48.5250549316,36.1500587463,112.4144897461,0.0703707933,-0.0176994205,-0.0104612112,
146.203,-3.2378969193,1.3971987963,17.0004081726,0.0600278378,0.0486526228,0.0077536702,-116.8649520874,74.4393997192,48.9729232788,0.0356128812,0.0600353777,0.0108433962,15.8286571503,83.4158401489,125.4244079590,0.0236779451,0.0185079873,0.0231440663,48.5266113281,36.1475830078,112.4236373901,0.0664296746,-0.0167564750,-0.0104615688,
146.213,-3.2378551960,1.3957310915,17.0009994507,0.0629319102,0.0447456799,0.0058005452,-116.8661956787,74.4393157959,48.9763908386,0.0234054923,0.0595451444,0.0079195499,15.8394088745,83.4162521362,125.4444656372,0.0217256546,0.0214185417,0.0192506313,48.5221862793,36.1514358521,112.4286880493,0.0489058495,-0.0235213637,-0.0036460757,
146.223,-3.2363393307,1.3974807262,17.0032501221,0.0629624426,0.0432543904,0.0116586089,-116.8683013916,74.4405059814,48.9796257019,0.0307352543,0.0585464686,0.0084075332,15.8179388046,83.4154205322,125.4317855835,0.0183060169,0.0185270309,0.0294790268,48.5222282410,36.1494979858,112.4363250732,0.0684098005,-0.0152359605,-0.0090302825,
146.233,-3.2355661392,1.3978983164,17.0043315887,0.0629697293,0.0407995023,0.0082402229,-116.8699111938,74.4402618408,48.9838790894,0.0287809968,0.0575701892,0.0089044571,15.8228120804,83.4172744751,125.4459762573,0.0231925249,0.0219440162,0.0192579627,48.5201416016,36.1506118774,112.4417190552,0.0635427237,-0.0196022391,-0.0119736195,
146.243,-3.2368006706,1.3987897635,17.0047969818,0.0610321574,0.0403327085,0.0038474202,-116.8633041382,74.4406585693,48.9949569702,0.0278062820,0.0522076935,0.0132681727,15.8288841248,83.4180450439,125.4607162476,0.0246589184,0.0209592879,0.0202511549,48.5179023743,36.1525421143,112.4466552734,0.0572222471,-0.0210315585,-0.0071026087,
146.253,-3.2357587814,1.3995767832,17.0077247620,0.0620224513,0.0437325090,0.0077529550,-116.8658142090,74.4393463135,48.9986419678,0.0321946740,0.0531980842,0.0093825459,15.8237714767,83.4201278687,125.4624710083,0.0261279345,0.0209787786,0.0153988004,48.5143203735,36.1540031433,112.4524841309,0.0523599982,-0.0180569887,-0.0076179504,
146.263,-3.2344686985,1.3989670277,17.0082931519,0.0625000894,0.0446866080,0.0175170302,-116.8648147583,74.4389495850,49.0056152344,0.0312162638,0.0522299856,0.0069398880,15.8140163422,83.4204025269,125.4613342285,0.0271050334,0.0214874148,0.0212573409,48.5118560791,36.1558189392,112.4576339722,0.0572684407,-0.0199730992,-0.0076315403,
146.273,-3.2335278988,1.4000238180,17.0100536346,0.0586122833,0.0456467606,0.0053095818,-116.8598709106,74.4415130615,49.0141296387,0.0292751193,0.0644088984,0.0210599303,15.7883672714,83.4203109741,125.4461288452,0.0271048546,0.0205609798,0.0236847997,48.5103607178,36.1569976807,112.4644088745,0.0607029796,-0.0194618702,-0.0105693936,
146.283,-3.2343604565,1.3981486559,17.0131225586,0.0624858141,0.0437081791,-0.0000618100,-116.8660354614,74.4423980713,49.0139350891,0.0322089791,0.0614528209,0.0074070692,15.7790184021,83.4230499268,125.4456100464,0.0266220570,0.0196145177,0.0203026533,48.5082588196,36.1589088440,112.4700775146,0.0563353896,-0.0213804841,-0.0125312805,
146.293,-3.2349863052,1.3955640793,17.0143795013,0.0629290044,0.0422543064,0.0126336813,-116.8671264648,74.4440841675,49.0181121826,0.0297754407,0.0594721884,0.0098403692,15.7815027237,83.4217376709,125.4572067261,0.0275959969,0.0235106051,0.0222392082,48.5072097778,36.1604614258,112.4764480591,0.0583103299,-0.0125696659,-0.0081374645,
146.303,-3.2360303402,1.3931254148,17.0162467957,0.0623981692,0.0408077054,0.0087265372,-116.8747329712,74.4447250366,49.0157051086,0.0278253555,0.0628643632,0.0088908076,15.7708549500,83.4232330322,125.4560089111,0.0290638208,0.0181668997,0.0173732042,48.5069618225,36.1590957642,112.4842834473,0.0665919185,-0.0150193572,-0.0066844225,
146.313,-3.2364950180,1.3939404488,17.0173206329,0.0614358261,0.0408157855,0.0043333769,-116.8731231689,74.4454193115,49.0234947205,0.0312465429,0.0594391674,0.0157147646,15.7758512497,83.4247817993,125.4701614380,0.0251606703,0.0220707357,0.0134960413,48.5067062378,36.1622734070,112.4935302734,0.0495468974,-0.0154806972,-0.0091067553,
146.323,-3.2383716106,1.3946284056,17.0190277100,0.0599829853,0.0379187614,0.0077530742,-116.8727798462,74.4456634521,49.0305366516,0.0341773629,0.0589480400,0.0083872676,15.7522096634,83.4220657349,125.4546508789,0.0280849338,0.0186861753,0.0241794586,48.5054855347,36.1628074646,112.5011520386,0.0549254417,-0.0110706687,-0.0017917752,
146.333,-3.2391681671,1.3940435648,17.0220222473,0.0604610629,0.0393975042,0.0097073913,-116.8893890381,74.4464492798,49.0199470520,0.0273451209,0.0603658259,0.0001502037,15.7490940094,83.4225158691,125.4607467651,0.0241795778,0.0221126080,0.0158856511,48.5067749023,36.1620903015,112.5120620728,0.0641927719,-0.0091350675,-0.0032477379,
146.343,-3.2380821705,1.3947703838,17.0238227844,0.0555909351,0.0418199711,0.0087296963,-116.8967285156,74.4470901489,49.0176010132,0.0283246636,0.0608291626,0.0026175380,15.7487449646,83.4188766479,125.4697113037,0.0290551186,0.0225847661,0.0304743052,48.5080337524,36.1609458923,112.5208206177,0.0695477128,-0.0130619407,-0.0134962797,
146.353,-3.2361323833,1.3980352879,17.0243339539,0.0527182110,0.0471570194,0.0023815632,-116.8905792236,74.4461364746,49.0275764465,0.0312498808,0.0535321236,0.0128528476,15.7477207184,83.4188766479,125.4772338867,0.0275902748,0.0250283182,0.0231501460,48.5087127686,36.1619720459,112.5281524658,0.0583317280,-0.0145251751,-0.0095759034,
146.363,-3.2358314991,1.3990262747,17.0254878998,0.0566417538,0.0412923843,0.0072645545,-116.8972625732,74.4484252930,49.0285720825,0.0317488909,0.0608085841,0.0104220510,15.7570953369,83.4181060791,125.4965209961,0.0280770063,0.0240294337,0.0226524472,48.5115127563,36.1607971191,112.5402755737,0.0700339079,-0.0135838389,-0.0115075111,
146.373,-3.2362589836,1.3994256258,17.0266056061,0.0610432513,0.0408115387,0.0126361847,-116.9036636353,74.4481048584,49.0265083313,0.0297942758,0.0603107661,0.0016623735,15.7506923676,83.4199523926,125.4998016357,0.0217330456,0.0240510106,0.0138926506,48.5120010376,36.1647529602,112.5492858887,0.0549529195,-0.0218586922,-0.0129402280,
146.383,-3.2377316952,1.3998582363,17.0277423859,0.0586093962,0.0393723361,0.0077551603,-116.9036102295,74.4488983154,49.0319366455,0.0302862525,0.0583464950,0.0094684958,15.7512197495,83.4182586670,125.5102615356,0.0295421481,0.0235530436,0.0246036053,48.5108795166,36.1661758423,112.5569229126,0.0574143529,-0.0213489532,-0.0114775896,
146.393,-3.2384512424,1.4006869793,17.0276679993,0.0591121353,0.0442676619,0.0072673559,-116.8945007324,74.4486694336,49.0459022522,0.0307734609,0.0539743602,0.0172446370,15.7479085922,83.4181594849,125.5167388916,0.0261240005,0.0225832760,0.0211856365,48.5100975037,36.1667633057,112.5638275146,0.0701180100,-0.0198722482,-0.0144115090,
146.403,-3.2413272858,1.4020869732,17.0294227600,0.0552303083,0.0408997647,0.0038530827,-116.8941040039,74.4494781494,49.0511054993,0.0351718068,0.0573813021,0.0162602067,15.7400064468,83.4173889160,125.5194168091,0.0266107321,0.0240592957,0.0270246863,48.5140380859,36.1675071716,112.5730895996,0.0647573471,-0.0145323277,-0.0177829266,
146.413,-3.2416958809,1.4018232822,17.0317764282,0.0610850863,0.0389530659,0.0019002557,-116.8896255493,74.4511108398,49.0606536865,0.0249255300,0.0602960587,0.0157408118,15.7373456955,83.4215621948,125.5259323120,0.0256425142,0.0187134445,0.0095168948,48.5129623413,36.1676521301,112.5807266235,0.0584117174,-0.0203805566,-0.0075394511,
146.423,-3.2428054810,1.4024963379,17.0322246552,0.0620733947,0.0384840965,0.0116678476,-116.8925476074,74.4545898438,49.0636901855,0.0312894583,0.0656092316,0.0118204951,15.7369937897,83.4209060669,125.5341873169,0.0275943279,0.0260347426,0.0236636400,48.5134925842,36.1696166992,112.5875701904,0.0535566211,-0.0184171200,-0.0070319176,
146.433,-3.2446177006,1.4030762911,17.0320930481,0.0601303875,0.0360742509,0.0116688013,-116.8980941772,74.4535827637,49.0626869202,0.0327495933,0.0582881868,-0.0003557205,15.7580137253,83.4205169678,125.5642242432,0.0256404281,0.0298985243,0.0178113580,48.5163536072,36.1684379578,112.5976257324,0.0740478039,-0.0174763799,-0.0153105259,
146.443,-3.2433192730,1.4033113718,17.0320453644,0.0591579266,0.0448406823,0.0106918216,-116.8900604248,74.4530334473,49.0752334595,0.0303056240,0.0514769107,0.0113335252,15.7584848404,83.4219207764,125.5732421875,0.0241783857,0.0245328546,0.0149044991,48.5188522339,36.1706542969,112.6077651978,0.0540595055,-0.0135763288,-0.0162454844,
146.453,-3.2425682545,1.4019286633,17.0338249207,0.0630400479,0.0384799875,0.0102018118,-116.8858108521,74.4561614990,49.0847091675,0.0327616334,0.0641352832,0.0166631937,15.7633037567,83.4188766479,125.5848617554,0.0280785561,0.0230447948,0.0260887742,48.5207633972,36.1679763794,112.6179656982,0.0725764632,-0.0087321401,-0.0118496418,
146.463,-3.2421915531,1.4011986256,17.0337390900,0.0644921511,0.0438445322,0.0053185821,-116.8737258911,74.4545745850,49.1023025513,0.0288479924,0.0563716441,0.0200423598,15.7675065994,83.4160537720,125.5976943970,0.0290494561,0.0254644454,0.0236013532,48.5206794739,36.1656723022,112.6258773804,0.0730322599,-0.0180262923,-0.0133303404,
146.473,-3.2429265976,1.4026274681,17.0348110199,0.0591459945,0.0399510488,-0.0000512004,-116.8681106567,74.4528350830,49.1138916016,0.0346992016,0.0573862642,0.0112429857,15.7841138840,83.4201889038,125.6240692139,0.0236866474,0.0244747996,0.0144022703,48.5195465088,36.1628608704,112.6332321167,0.0715278387,-0.0121782422,-0.0075030923,
146.483,-3.2445061207,1.4038287401,17.0364990234,0.0606317967,0.0409551002,0.0165523291,-116.8626708984,74.4536743164,49.1242904663,0.0283554792,0.0603149980,0.0092607737,15.7886409760,83.4209060669,125.6367187500,0.0310122967,0.0220274031,0.0202739239,48.5184516907,36.1576690674,112.6405334473,0.0763375163,-0.0141609907,0.0002632737,
146.493,-3.2435457706,1.4044427872,17.0357742310,0.0616190732,0.0438680425,-0.0000499487,-116.8590927124,74.4531631470,49.1329498291,0.0303062201,0.0510527641,0.0102261901,15.7909955978,83.4197769165,125.6463775635,0.0241740942,0.0249475837,0.0226995349,48.5169487000,36.1551513672,112.6468505859,0.0650715232,-0.0166078210,-0.0061174631,
146.503,-3.2424483299,1.4068989754,17.0367927551,0.0601970851,0.0418957397,0.0106923580,-116.8570709229,74.4516906738,49.1388320923,0.0346938372,0.0564498752,0.0112055540,15.7834634781,83.4206314087,125.6487808228,0.0290586352,0.0200835764,0.0207566619,48.5195693970,36.1588401794,112.6560363770,0.0577992797,-0.0234398246,-0.0187599063,
146.513,-3.2416265011,1.4073339701,17.0367183685,0.0606929511,0.0452993773,0.0131331682,-116.8541183472,74.4505004883,49.1451416016,0.0298054814,0.0540325940,0.0092490911,15.7726240158,83.4217376709,125.6478271484,0.0251545906,0.0230393410,0.0232092738,48.5184097290,36.1644439697,112.6624221802,0.0481126308,-0.0121553540,-0.0138515234,
146.523,-3.2419519424,1.4064850807,17.0378055573,0.0670257956,0.0413988158,-0.0010269880,-116.8489303589,74.4505233765,49.1530990601,0.0298056006,0.0633204877,0.0145981908,15.7740478516,83.4225769043,125.6572799683,0.0222265720,0.0210874975,0.0188300610,48.5222434998,36.1634559631,112.6729431152,0.0598174334,-0.0082924366,-0.0143057108,
146.533,-3.2426667213,1.4048360586,17.0396080017,0.0640673414,0.0418995917,0.0126448274,-116.8523483276,74.4489974976,49.1541442871,0.0258921981,0.0628479123,0.0038818717,15.7811803818,83.4195327759,125.6747894287,0.0212439299,0.0278952420,0.0246427655,48.5212860107,36.1621475220,112.6797561646,0.0739591718,-0.0161061287,-0.0104188919,
146.543,-3.2438020706,1.4052338600,17.0407829285,0.0587031841,0.0448490456,0.0067868233,-116.8545303345,74.4504394531,49.1569976807,0.0307817459,0.0594040751,0.0126692653,15.7706155777,83.4207839966,125.6734390259,0.0222229958,0.0249919891,0.0251456499,48.5184669495,36.1633567810,112.6878662109,0.0603043437,-0.0219298601,-0.0045806170,
146.553,-3.2449288368,1.4049552679,17.0406723022,0.0655342638,0.0448686816,0.0175300241,-116.8522644043,74.4511871338,49.1627159119,0.0249258876,0.0613507181,0.0111892223,15.7610263824,83.4197998047,125.6720352173,0.0271038413,0.0162174404,0.0251255631,48.5187530518,36.1645317078,112.6953277588,0.0627623200,-0.0194820166,-0.0079876781,
146.563,-3.2468242645,1.4035156965,17.0412464142,0.0630677417,0.0400189236,0.0121597052,-116.8495559692,74.4518814087,49.1693916321,0.0312767625,0.0598812699,0.0126374364,15.7514266968,83.4169692993,125.6717834473,0.0251450539,0.0206176341,0.0294682384,48.5142631531,36.1674575806,112.7000045776,0.0574324131,-0.0262535214,-0.0070385337,
146.573,-3.2476963997,1.4058179855,17.0417137146,0.0562719740,0.0414989032,0.0092326403,-116.8578643799,74.4506454468,49.1674118042,0.0317592621,0.0598821044,0.0004745722,15.7479190826,83.4164962769,125.6775207520,0.0305151939,0.0225752294,0.0226218104,48.5142440796,36.1641998291,112.7087097168,0.0764294863,-0.0150479674,-0.0085257292,
146.583,-3.2495722771,1.4069395065,17.0434684753,0.0562915429,0.0400667153,0.0067930818,-116.8455047607,74.4518890381,49.1840438843,0.0283471346,0.0589131117,0.0214093924,15.7366352081,83.4154815674,125.6744461060,0.0314897299,0.0196624994,0.0274797082,48.5159606934,36.1634025574,112.7195281982,0.0730002522,-0.0155584216,-0.0148608088,
146.593,-3.2502813339,1.4050130844,17.0446891785,0.0626055896,0.0420322381,0.0082579851,-116.8477172852,74.4511260986,49.1870117188,0.0337146521,0.0574552566,0.0097056627,15.7221488953,83.4157485962,125.6684646606,0.0256308913,0.0216461718,0.0191795826,48.5189170837,36.1631431580,112.7306976318,0.0690904260,-0.0160763264,-0.0143431425,
146.603,-3.2514457703,1.4020885229,17.0458736420,0.0679256469,0.0405877493,0.0004450083,-116.8417739868,74.4526443481,49.1968994141,0.0273740888,0.0603743196,0.0140638351,15.7417888641,83.4144744873,125.6972351074,0.0290462971,0.0323430598,0.0235596895,48.5197601318,36.1655006409,112.7398757935,0.0549634695,-0.0180191398,-0.0109002590,
146.613,-3.2502071857,1.4024783373,17.0451660156,0.0625613630,0.0469138175,0.0043503642,-116.8495483398,74.4553070068,49.1924057007,0.0303162336,0.0681309998,0.0126114488,15.7241239548,83.4126815796,125.6902236938,0.0231833458,0.0128388703,0.0264537334,48.5208702087,36.1632957458,112.7492065430,0.0700690746,-0.0141403079,-0.0084622502,
146.623,-3.2502849102,1.4043612480,17.0468235016,0.0601528026,0.0420323163,0.0097223520,-116.8557586670,74.4542388916,49.1920166016,0.0351940393,0.0583674908,0.0067861676,15.7045097351,83.4109573364,125.6787643433,0.0241564512,0.0216581821,0.0337375998,48.5219955444,36.1595611572,112.7577667236,0.0724578500,-0.0161327124,-0.0094523430,
146.633,-3.2493169308,1.4048621655,17.0492057800,0.0586967021,0.0434802845,0.0102099776,-116.8530654907,74.4563140869,49.1998939514,0.0312975049,0.0593192428,0.0135951638,15.7145051956,83.4112243652,125.6962509155,0.0231804252,0.0226162374,0.0220282078,48.5219345093,36.1587829590,112.7650527954,0.0695171952,-0.0156498551,-0.0133642554,
146.643,-3.2459576130,1.4052573442,17.0509796143,0.0587036014,0.0434217602,0.0028827190,-116.8518829346,74.4569320679,49.2054901123,0.0293473005,0.0598002672,0.0135854483,15.7207756042,83.4093475342,125.7123565674,0.0222001076,0.0240605772,0.0288387537,48.5235633850,36.1555099487,112.7743530273,0.0724008083,-0.0088544488,-0.0133698583,
146.653,-3.2468423843,1.4026768208,17.0534687042,0.0630531013,0.0434372276,0.0097183585,-116.8690643311,74.4559936523,49.1938972473,0.0312960148,0.0583136529,-0.0029370189,15.7244567871,83.4099426270,125.7246398926,0.0265958309,0.0264969766,0.0234770775,48.5209083557,36.1528091431,112.7811660767,0.0728510022,-0.0156862736,-0.0041385889,
146.663,-3.2485358715,1.4000939131,17.0558891296,0.0649611652,0.0385839753,0.0033708811,-116.8639602661,74.4577560425,49.2022209167,0.0293511748,0.0641573668,0.0175359845,15.7347431183,83.4117355347,125.7440872192,0.0300173759,0.0235558748,0.0113071203,48.5232391357,36.1519241333,112.7908554077,0.0635612011,-0.0118086934,-0.0119324923,
146.673,-3.2506549358,1.4026546478,17.0569438934,0.0576816201,0.0435036421,0.0106989145,-116.8675613403,74.4570922852,49.2027053833,0.0254417658,0.0592769980,0.0068141222,15.7261781693,83.4122390747,125.7448654175,0.0236707330,0.0201566815,0.0210746527,48.5215148926,36.1579742432,112.7979049683,0.0494862795,-0.0239529014,-0.0089797974,
146.683,-3.2494673729,1.4050030708,17.0580959320,0.0562577546,0.0508071221,0.0097216964,-116.8603210449,74.4573440552,49.2145500183,0.0366734266,0.0553823709,0.0126411915,15.7164745331,83.4152755737,125.7419433594,0.0212354064,0.0206779242,0.0133065581,48.5227890015,36.1554107666,112.8059387207,0.0714228153,-0.0112892985,-0.0143548846,
146.693,-3.2508101463,1.4065682888,17.0586318970,0.0562850647,0.0464359373,-0.0044358969,-116.8673019409,74.4584197998,49.2124099731,0.0264245868,0.0616992861,0.0053380132,15.7123613358,83.4142608643,125.7468338013,0.0290458798,0.0289825499,0.0220786929,48.5230216980,36.1584815979,112.8137207031,0.0524231195,-0.0156623125,-0.0133547783,
146.703,-3.2510735989,1.4064863920,17.0585708618,0.0601898842,0.0415577218,0.0082587600,-116.8586578369,74.4617385864,49.2261123657,0.0283932090,0.0602029115,0.0179719925,15.7103462219,83.4135818481,125.7539825439,0.0275796652,0.0255652368,0.0235306621,48.5209121704,36.1616592407,112.8194503784,0.0553975701,-0.0219657421,-0.0060312748,
146.713,-3.2516267300,1.4059650898,17.0604038239,0.0577393845,0.0425439328,0.0063066483,-116.8545608521,74.4634628296,49.2358894348,0.0284012556,0.0611622781,0.0164768696,15.7377319336,83.4142913818,125.7894592285,0.0295342207,0.0245382786,0.0176977515,48.5208473206,36.1614799500,112.8256759644,0.0622309446,-0.0131775737,-0.0011506677,
146.723,-3.2509417534,1.4054138660,17.0616664886,0.0577297658,0.0469265431,0.0063053370,-116.8625259399,74.4632873535,49.2329711914,0.0308418274,0.0611479431,0.0096756816,15.7382869720,83.4128646851,125.7992401123,0.0275782347,0.0230656266,0.0235335231,48.5206985474,36.1623191833,112.8331832886,0.0578482747,-0.0195173621,-0.0021230578,
146.733,-3.2513277531,1.4057899714,17.0628089905,0.0587128922,0.0410738848,0.0048413277,-116.8561401367,74.4660949707,49.2440757751,0.0284135342,0.0596547574,0.0213464499,15.7309856415,83.4136428833,125.8017654419,0.0207438469,0.0206423104,0.0157306790,48.5205307007,36.1657905579,112.8410339355,0.0539909601,-0.0258366466,-0.0133313537,
146.743,-3.2508246899,1.4069616795,17.0645198822,0.0606864616,0.0439947769,0.0150952339,-116.8569488525,74.4676971436,49.2488288879,0.0264679193,0.0625586808,0.0076658130,15.7276058197,83.4124450684,125.8075256348,0.0300188065,0.0274788439,0.0210781097,48.5203056335,36.1636047363,112.8486099243,0.0739796758,-0.0131560564,-0.0026066303,
146.753,-3.2530279160,1.4074968100,17.0656700134,0.0582543910,0.0411034636,0.0077731013,-116.8502807617,74.4684371948,49.2618370056,0.0318424702,0.0596316606,0.0159330964,15.7343921661,83.4138183594,125.8221054077,0.0261152983,0.0264958739,0.0157356262,48.5184364319,36.1642684937,112.8551864624,0.0627585649,-0.0165514350,-0.0099456906,
146.763,-3.2507340908,1.4070397615,17.0675220490,0.0597112551,0.0503408536,0.0077712536,-116.8496246338,74.4702072144,49.2675628662,0.0352687240,0.0600950271,0.0139638782,15.7522220612,83.4134521484,125.8492355347,0.0290442705,0.0245056152,0.0162254572,48.5179214478,36.1647682190,112.8636169434,0.0622773170,-0.0165427923,-0.0045771599,
146.773,-3.2504165173,1.4056332111,17.0686912537,0.0650578141,0.0434994213,0.0077698827,-116.8336029053,74.4713211060,49.2893447876,0.0299028158,0.0566943139,0.0192595124,15.7496299744,83.4151840210,125.8540725708,0.0212352276,0.0206127763,0.0206484199,48.5201148987,36.1606559753,112.8743057251,0.0763795376,-0.0087824464,-0.0119059682,
146.783,-3.2521057129,1.4032775164,17.0693492889,0.0615987442,0.0430406258,0.0014229417,-116.8399810791,74.4712142944,49.2881278992,0.0303906202,0.0605885237,0.0090330243,15.7583951950,83.4156036377,125.8727264404,0.0236774683,0.0249921679,0.0274963379,48.5194473267,36.1616935730,112.8812179565,0.0568629503,-0.0141393542,-0.0031172633,
146.793,-3.2520186901,1.4022160769,17.0705261230,0.0615802184,0.0405977257,0.0043522120,-116.8449935913,74.4723892212,49.2895202637,0.0347906351,0.0620257258,0.0114864707,15.7620296478,83.4164428711,125.8850402832,0.0251439810,0.0220590830,0.0162808895,48.5182609558,36.1604309082,112.8881225586,0.0636810660,-0.0151144862,-0.0046027303,
146.803,-3.2526636124,1.4036550522,17.0697212219,0.0611170456,0.0381675139,0.0067948699,-116.8403549194,74.4687576294,49.2995223999,0.0269611478,0.0508589596,0.0061234832,15.7515830994,83.4142913818,125.8830947876,0.0192803144,0.0259757936,0.0240522027,48.5205001831,36.1595230103,112.8981246948,0.0665979385,-0.0141659379,-0.0158160925,
146.813,-3.2513985634,1.4007906914,17.0722141266,0.0659498796,0.0488877371,0.0033739805,-116.8335342407,74.4677352905,49.3113479614,0.0318391919,0.0567484647,0.0163565874,15.7424306870,83.4135131836,125.8820724487,0.0202553272,0.0186658800,0.0235460401,48.5195693970,36.1608314514,112.9056320190,0.0646632910,-0.0185416937,-0.0104458928,
146.823,-3.2519400120,1.4024344683,17.0732555389,0.0586543418,0.0362018161,0.0077699423,-116.8337936401,74.4680862427,49.3159637451,0.0250049233,0.0606487393,0.0075658560,15.7385654449,83.4123916626,125.8861846924,0.0231827497,0.0250160992,0.0298739672,48.5230827332,36.1623115540,112.9156875610,0.0573599339,-0.0107504725,-0.0162577629,
146.833,-3.2506325245,1.4037475586,17.0755596161,0.0601420961,0.0425266661,0.0102109909,-116.8187713623,74.4667892456,49.3367538452,0.0279285312,0.0577701926,0.0187432766,15.7423200607,83.4100036621,125.8980407715,0.0197600126,0.0230446458,0.0273956656,48.5254745483,36.1618270874,112.9251098633,0.0715132356,-0.0195657611,-0.0133065581,
146.843,-3.2499897480,1.4025593996,17.0773639679,0.0620744899,0.0425154977,0.0023969412,-116.8247375488,74.4660491943,49.3360862732,0.0332961679,0.0548389405,0.0046136379,15.7271690369,83.4109878540,125.8915710449,0.0314807296,0.0206374526,0.0210557580,48.5274276733,36.1647605896,112.9357452393,0.0593475103,-0.0137017965,-0.0118004680,
146.853,-3.2511353493,1.4034101963,17.0784683228,0.0591596477,0.0405823104,0.0038635731,-116.8266906738,74.4661254883,49.3393592834,0.0284137130,0.0567867756,0.0085274577,15.7421407700,83.4144744873,125.9144744873,0.0280697346,0.0235539079,0.0123322010,48.5281715393,36.1661834717,112.9442214966,0.0618090034,-0.0166276693,-0.0147137046,
146.863,-3.2509319782,1.4033722878,17.0808162689,0.0625769570,0.0430201739,0.0058163404,-116.8196716309,74.4661026001,49.3515892029,0.0303667188,0.0572904646,0.0138692856,15.7425708771,83.4127426147,125.9218215942,0.0212303400,0.0206152797,0.0235341191,48.5293312073,36.1677398682,112.9525833130,0.0618309379,-0.0141849518,-0.0185962319,
146.873,-3.2524592876,1.4037053585,17.0813293457,0.0586765185,0.0371873975,0.0028884411,-116.8162841797,74.4682006836,49.3595428467,0.0318413973,0.0616605580,0.0138393044,15.7373933792,83.4086914063,125.9272308350,0.0290347338,0.0215834379,0.0342075825,48.5318946838,36.1662635803,112.9610214233,0.0686460733,-0.0117789507,-0.0171148181,
146.883,-3.2535276413,1.4044281244,17.0818176270,0.0596656948,0.0386708304,0.0092375278,-116.8208465576,74.4668426514,49.3585319519,0.0303701758,0.0587417781,0.0050796866,15.7333812714,83.4065246582,125.9338073730,0.0241475701,0.0206046999,0.0287986398,48.5318450928,36.1672096252,112.9686431885,0.0623117089,-0.0176303983,-0.0107604265,
146.893,-3.2519724369,1.4051232338,17.0818271637,0.0552832894,0.0479210690,0.0067948103,-116.8234939575,74.4666213989,49.3599662781,0.0279277563,0.0587389320,0.0065573454,15.7096576691,83.4050674438,125.9201049805,0.0251212120,0.0162498951,0.0243668556,48.5312576294,36.1644935608,112.9745178223,0.0710625648,-0.0166695118,-0.0059035420,
146.903,-3.2523508072,1.4046720266,17.0824279785,0.0591816679,0.0454862602,-0.0000409484,-116.8327026367,74.4685516357,49.3548851013,0.0328195691,0.0645504594,0.0070695877,15.7243375778,83.4061965942,125.9428863525,0.0348891020,0.0211091340,0.0190224051,48.5296173096,36.1661376953,112.9812393188,0.0652263165,-0.0229890347,-0.0098148584,
146.913,-3.2524936199,1.4050841331,17.0829105377,0.0606537014,0.0376762450,0.0063070655,-116.8344497681,74.4713897705,49.3569412231,0.0289266109,0.0596207380,0.0119380951,15.7092638016,83.4073867798,125.9365234375,0.0251258612,0.0187028944,0.0190340877,48.5297698975,36.1655502319,112.9890289307,0.0710774064,-0.0166473985,-0.0137241483,
146.923,-3.2553329468,1.4051108360,17.0839996338,0.0601658858,0.0323546045,0.0116809011,-116.8454208374,74.4720382690,49.3506927490,0.0333241224,0.0591004789,0.0041667223,15.7089118958,83.4063796997,125.9430770874,0.0212175846,0.0196753442,0.0234113932,48.5280838013,36.1659774780,112.9967498779,0.0603411794,-0.0161400437,-0.0000666380,
146.933,-3.2566902637,1.4046016932,17.0851974487,0.0596687235,0.0440970175,0.0048462152,-116.8450775146,74.4718017578,49.3564529419,0.0303933620,0.0551984608,0.0061202049,15.7139902115,83.4054870605,125.9568634033,0.0343993902,0.0216143727,0.0224229097,48.5313606262,36.1657524109,113.0069656372,0.0603380799,-0.0132427216,-0.0166356564,
146.943,-3.2579433918,1.4042524099,17.0862731934,0.0635688752,0.0358180739,0.0097300410,-116.8440933228,74.4744491577,49.3614540100,0.0294291377,0.0619967282,0.0119553804,15.7111158371,83.4057235718,125.9602355957,0.0275639296,0.0211328566,0.0229136348,48.5282630920,36.1646156311,113.0131759644,0.0691111088,-0.0166404247,-0.0044682026,
146.953,-3.2567179203,1.4043422937,17.0874595642,0.0621055998,0.0509334430,0.0116815567,-116.8391113281,74.4737319946,49.3730354309,0.0274726748,0.0590883791,0.0119399428,15.7145051956,83.4035797119,125.9741439819,0.0241416693,0.0255108476,0.0321575403,48.5316658020,36.1668815613,113.0242843628,0.0603539944,-0.0142135024,-0.0185781121,
146.963,-3.2562391758,1.4039454460,17.0891971588,0.0635635182,0.0440891683,0.0019156337,-116.8388366699,74.4742279053,49.3789405823,0.0221039057,0.0620111972,0.0148648024,15.7098493576,83.4038467407,125.9788131714,0.0251187682,0.0196618438,0.0209288597,48.5310249329,36.1667518616,113.0315246582,0.0671880841,-0.0229973793,-0.0102839470,
146.973,-3.2540111542,1.4043720961,17.0890197754,0.0669889301,0.0460034795,0.0082613826,-116.8329772949,74.4749526978,49.3911628723,0.0284549594,0.0571298897,0.0148347020,15.7162199020,83.4037933350,125.9943923950,0.0270717740,0.0240435302,0.0184897184,48.5321464539,36.1646118164,113.0395278931,0.0764352679,-0.0152119398,-0.0137052536,
146.983,-3.2511322498,1.4052067995,17.0913524628,0.0616324022,0.0459533073,0.0048409104,-116.8273849487,74.4752578735,49.4007873535,0.0323626399,0.0556719154,0.0104144812,15.6993513107,83.4056015015,125.9855270386,0.0207277536,0.0216435194,0.0180216432,48.5303573608,36.1658096313,113.0460815430,0.0608271360,-0.0239750147,-0.0137156844,
146.993,-3.2495820522,1.4056861401,17.0930900574,0.0606642030,0.0434848815,0.0063043237,-116.8311843872,74.4730911255,49.4006080627,0.0323525071,0.0542318821,0.0026342869,15.6974544525,83.4056320190,125.9922027588,0.0270754695,0.0226238966,0.0170443654,48.5308837891,36.1648902893,113.0547409058,0.0705798268,-0.0191042423,-0.0151814222,
147.003,-3.2497696877,1.4065854549,17.0942649841,0.0548205227,0.0395818762,0.0072811246,-116.8351440430,74.4725952148,49.3986587524,0.0279556513,0.0571602881,0.0075375438,15.6940050125,83.4068222046,125.9979553223,0.0270778537,0.0211713910,0.0112030506,48.5299568176,36.1667594910,113.0629119873,0.0579108000,-0.0185929537,-0.0083426833,
147.013,-3.2490236759,1.4067995548,17.0954055786,0.0616601929,0.0449399725,0.0116756558,-116.8390121460,74.4733200073,49.4002418518,0.0289356112,0.0595826507,0.0060833097,15.6816043854,83.4064331055,125.9943313599,0.0236591101,0.0192407072,0.0263262391,48.5290641785,36.1691093445,113.0693511963,0.0574557185,-0.0185664296,-0.0107772946,
147.023,-3.2501378059,1.4058723450,17.0966224670,0.0592026077,0.0405648723,0.0111875534,-116.8418655396,74.4706649780,49.4012451172,0.0269700885,0.0596165508,0.0022090673,15.6964607239,83.4051284790,126.0184860229,0.0309807062,0.0240883827,0.0272895098,48.5301017761,36.1689529419,113.0765686035,0.0672190785,-0.0161360502,-0.0166271925,
147.033,-3.2495455742,1.4078087807,17.0971450806,0.0572832711,0.0488552861,0.0004457235,-116.8536834717,74.4715499878,49.3948554993,0.0347867012,0.0644611716,0.0046933293,15.6855230331,83.4045867920,126.0156478882,0.0265851021,0.0172722340,0.0214188695,48.5324478149,36.1649780273,113.0862503052,0.0730224848,-0.0088642836,-0.0127227902,
147.043,-3.2495260239,1.4086198807,17.0994968414,0.0597388297,0.0444603972,0.0097236633,-116.8586425781,74.4726409912,49.3960418701,0.0313738585,0.0634575337,0.0066587925,15.6927890778,83.4045028687,126.0304107666,0.0236552358,0.0240926147,0.0219057798,48.5298576355,36.1698913574,113.0928115845,0.0535604358,-0.0214975476,-0.0136936307,
147.053,-3.2486307621,1.4101541042,17.1012210846,0.0592773221,0.0454213209,0.0111882091,-116.8620147705,74.4735183716,49.3995056152,0.0313779116,0.0658791959,0.0081312656,15.6997318268,83.4073257446,126.0471420288,0.0197546482,0.0221394897,0.0136578679,48.5332145691,36.1666259766,113.1041564941,0.0735339522,-0.0108118653,-0.0112386346,
147.063,-3.2502768040,1.4106262922,17.1018028259,0.0583089925,0.0474031158,0.0063072443,-116.8617324829,74.4738082886,49.4064483643,0.0347972512,0.0634337813,0.0105692744,15.6922082901,83.4075698853,126.0502166748,0.0270793438,0.0211779177,0.0195131302,48.5327987671,36.1669006348,113.1122970581,0.0593776703,-0.0098292828,-0.0068466663,
147.073,-3.2491271496,1.4113316536,17.1029567719,0.0597861446,0.0464065075,0.0072829723,-116.8678741455,74.4744796753,49.4073524475,0.0323590040,0.0624339879,0.0101016164,15.6885509491,83.4091491699,126.0550994873,0.0246410966,0.0226579010,0.0224699378,48.5340232849,36.1639328003,113.1210021973,0.0734960437,-0.0132815838,-0.0136898756,
147.083,-3.2480034828,1.4117270708,17.1047248840,0.0588164777,0.0419923887,0.0063050389,-116.8709945679,74.4731140137,49.4108390808,0.0250284076,0.0600066036,0.0081717968,15.6614933014,83.4088745117,126.0392608643,0.0202460289,0.0188033283,0.0278210640,48.5335922241,36.1621475220,113.1297760010,0.0651701093,-0.0123147964,-0.0068706274,
147.093,-3.2448334694,1.4104746580,17.1059665680,0.0602594726,0.0448668897,0.0087434649,-116.8784332275,74.4748306274,49.4099235535,0.0338254571,0.0604528487,0.0062369108,15.6586208344,83.4074478149,126.0450668335,0.0270791054,0.0236848593,0.0263295770,48.5319252014,36.1621055603,113.1346588135,0.0622398257,-0.0181588531,-0.0078651309,
147.103,-3.2446334362,1.4097990990,17.1059341431,0.0622008108,0.0453517027,0.0063011646,-116.8795700073,74.4740753174,49.4143753052,0.0299156904,0.0560675263,0.0125950575,15.6545534134,83.4089050293,126.0490341187,0.0202460885,0.0227232575,0.0239112377,48.5330009460,36.1648674011,113.1443328857,0.0534896851,-0.0166827440,-0.0127177835,
147.113,-3.2429604530,1.4093388319,17.1058368683,0.0636576265,0.0419046022,0.0082525015,-116.8797225952,74.4745178223,49.4200820923,0.0299177766,0.0550840646,0.0091742277,15.6388616562,83.4075088501,126.0432357788,0.0265909433,0.0212827325,0.0272975564,48.5322608948,36.1649742126,113.1523132324,0.0681396127,-0.0156984925,-0.0107717514,
147.123,-3.2425644398,1.4085530043,17.1075592041,0.0651087612,0.0394563153,0.0067865849,-116.8759918213,74.4769287109,49.4282531738,0.0279759169,0.0574975163,0.0140232444,15.6400175095,83.4069747925,126.0511474609,0.0334258080,0.0232312977,0.0219189525,48.5342483521,36.1640129089,113.1614913940,0.0700791478,-0.0167010427,-0.0127103925,
147.133,-3.2404150963,1.4076683521,17.1087837219,0.0611870699,0.0477196723,0.0106909275,-116.8806381226,74.4764633179,49.4270896912,0.0255323052,0.0584714562,0.0057455301,15.6392831802,83.4080352783,126.0590972900,0.0261037350,0.0222606957,0.0160748363,48.5334625244,36.1626892090,113.1690292358,0.0671308637,-0.0132859349,-0.0097980499,
147.143,-3.2409846783,1.4063912630,17.1099357605,0.0645827577,0.0404054075,0.0072724223,-116.8881072998,74.4784164429,49.4241142273,0.0289593935,0.0652616918,0.0106447339,15.6464204788,83.4072647095,126.0748748779,0.0226842165,0.0207785666,0.0189971924,48.5340728760,36.1662597656,113.1774673462,0.0574155450,-0.0176585317,-0.0117203593,
147.153,-3.2405087948,1.4059234858,17.1117305756,0.0596917830,0.0418619812,0.0062958598,-116.8845977783,74.4783325195,49.4309387207,0.0309121609,0.0594113916,0.0135602951,15.6440114975,83.4072647095,126.0823593140,0.0236607790,0.0232242346,0.0199702978,48.5354995728,36.1713333130,113.1867446899,0.0560222268,-0.0200741291,-0.0155769587,
147.163,-3.2395677567,1.4057368040,17.1135330200,0.0587119646,0.0413573012,0.0062939525,-116.8953475952,74.4773559570,49.4248046875,0.0353021026,0.0608683527,0.0062884092,15.6335306168,83.4038772583,126.0802993774,0.0300016403,0.0242065489,0.0238187313,48.5351676941,36.1734657288,113.1935119629,0.0560522079,-0.0151718259,-0.0131245255,
147.173,-3.2386102676,1.4054480791,17.1153259277,0.0591952056,0.0413406342,0.0101997852,-116.8927917480,74.4752273560,49.4322204590,0.0328507423,0.0491869152,0.0111769438,15.6368169785,83.4043502808,126.0925216675,0.0275611877,0.0202951431,0.0282188058,48.5364379883,36.1700897217,113.2015991211,0.0755359530,-0.0083737373,-0.0082512498,
147.183,-3.2390480042,1.4052805901,17.1177101135,0.0611454099,0.0428131074,0.0131297112,-116.8970031738,74.4758300781,49.4328079224,0.0294356346,0.0618639141,0.0072835088,15.6449470520,83.4048919678,126.1102676392,0.0241442919,0.0285834372,0.0243300796,48.5398292542,36.1695785522,113.2102432251,0.0657631159,-0.0049914122,-0.0150548220,
147.193,-3.2378785610,1.4027230740,17.1177196503,0.0645187572,0.0423045121,0.0067797899,-116.8979187012,74.4722518921,49.4370498657,0.0235595107,0.0526382476,0.0073145628,15.6493558884,83.4054260254,126.1246261597,0.0265867710,0.0232051909,0.0175010562,48.5392608643,36.1691055298,113.2186126709,0.0677095652,-0.0186616778,-0.0131108761,
147.203,-3.2406895161,1.4019408226,17.1176242828,0.0625519753,0.0369824097,0.0058058500,-116.9005508423,74.4719543457,49.4408531189,0.0303940773,0.0599614382,0.0107457638,15.6399879456,83.4070281982,126.1225814819,0.0212188959,0.0222549438,0.0194780827,48.5395126343,36.1715927124,113.2263793945,0.0555375814,-0.0201096535,-0.0140679479,
147.213,-3.2396206856,1.4013864994,17.1194667816,0.0601009019,0.0481942706,0.0092224479,-116.9003753662,74.4724960327,49.4455795288,0.0318614244,0.0540942401,0.0087878108,15.6312351227,83.4083404541,126.1218566895,0.0246394873,0.0208133161,0.0160768032,48.5394287109,36.1735229492,113.2346878052,0.0575178862,-0.0181409121,-0.0121029019,
147.223,-3.2400825024,1.4026710987,17.1206302643,0.0576819107,0.0472257212,0.0048289299,-116.9014511108,74.4716796875,49.4481620789,0.0264865160,0.0560572147,0.0127046704,15.6264886856,83.4091491699,126.1258010864,0.0280590653,0.0208262801,0.0209701657,48.5414924622,36.1730194092,113.2424926758,0.0662998557,-0.0118163228,-0.0164787769,
147.233,-3.2387673855,1.4051052332,17.1229209900,0.0582126640,0.0447613448,0.0058050752,-116.8946228027,74.4733581543,49.4579086304,0.0328420401,0.0619058311,0.0126634240,15.6453428268,83.4107131958,126.1520690918,0.0251325369,0.0247026384,0.0166110992,48.5402221680,36.1676635742,113.2465286255,0.0803845525,-0.0177052021,-0.0057865977,
147.243,-3.2388463020,1.4063806534,17.1234512329,0.0577466339,0.0442744046,0.0097119808,-116.8908233643,74.4760360718,49.4660873413,0.0265069008,0.0643153042,0.0184865594,15.6347513199,83.4139938354,126.1513900757,0.0285570621,0.0188789964,0.0176354051,48.5434913635,36.1695556641,113.2564010620,0.0564854145,-0.0157679319,-0.0198992491,
147.253,-3.2405316830,1.4053528309,17.1246700287,0.0591935441,0.0408858247,0.0004357100,-116.8927001953,74.4796066284,49.4684295654,0.0348243713,0.0647465289,0.0096783638,15.6451539993,83.4143218994,126.1698532104,0.0251397491,0.0227665901,0.0191121101,48.5429801941,36.1712684631,113.2627258301,0.0638337731,-0.0230742097,-0.0106157660,
147.263,-3.2401096821,1.4053736925,17.1258373260,0.0601704717,0.0438081622,0.0111778975,-116.8937377930,74.4794311523,49.4712638855,0.0348235369,0.0574228019,0.0106605887,15.6232833862,83.4146499634,126.1549224854,0.0212341547,0.0164631307,0.0234995484,48.5424766541,36.1686134338,113.2697143555,0.0720971227,-0.0147892237,-0.0111274719,
147.273,-3.2411899567,1.4049167633,17.1276473999,0.0596742183,0.0428504273,0.0067837238,-116.8815078735,74.4816818237,49.4895591736,0.0289746523,0.0593675822,0.0223111510,15.6286058426,83.4157867432,126.1701965332,0.0251426697,0.0208523870,0.0191262364,48.5416374207,36.1693382263,113.2778320313,0.0574589372,-0.0206351876,-0.0174791813,
147.283,-3.2409191132,1.4052339792,17.1287822723,0.0591914691,0.0389394462,0.0131317973,-116.8833389282,74.4819412231,49.4929695129,0.0343469381,0.0583835095,0.0096215010,15.6183042526,83.4164962769,126.1698303223,0.0334448814,0.0189228654,0.0166915059,48.5402793884,36.1708717346,113.2864303589,0.0599219203,-0.0215871930,-0.0106467009,
147.293,-3.2409913540,1.4038903713,17.1299896240,0.0625859946,0.0443118364,0.0048300028,-116.8755798340,74.4836425781,49.5059928894,0.0304486752,0.0559332371,0.0129941106,15.6362829208,83.4161376953,126.1951980591,0.0295379162,0.0237686634,0.0181596279,48.5446891785,36.1683769226,113.2963409424,0.0750234723,-0.0099288821,-0.0174533129,
147.303,-3.2407531738,1.4054337740,17.1317100525,0.0591949560,0.0452842116,0.0097134113,-116.8750381470,74.4852905273,49.5110397339,0.0294798017,0.0588398278,0.0124911666,15.6569719315,83.4164428711,126.2257995605,0.0178197622,0.0237295628,0.0211057663,48.5385818481,36.1707458496,113.2993164063,0.0540607572,-0.0254786015,-0.0062712431,
147.313,-3.2406933308,1.4079027176,17.1321773529,0.0558200702,0.0404002964,0.0136206150,-116.8720855713,74.4873504639,49.5210494995,0.0304659605,0.0646738261,0.0153927803,15.6643514633,83.4154205322,126.2429656982,0.0241653919,0.0256636441,0.0196285844,48.5402183533,36.1679382324,113.3096389771,0.0676931143,-0.0094021559,-0.0072491765,
147.323,-3.2399637699,1.4069154263,17.1316509247,0.0567794032,0.0472235456,0.0072719455,-116.8799514771,74.4857177734,49.5220069885,0.0319231749,0.0573576093,0.0086020827,15.6765880585,83.4195938110,126.2656021118,0.0236854553,0.0251705348,0.0128675103,48.5420570374,36.1695098877,113.3207931519,0.0559964776,-0.0167315006,-0.0121024847,
147.333,-3.2399792671,1.4076499939,17.1316261292,0.0553273782,0.0423409902,0.0131315589,-116.8883819580,74.4839401245,49.5215797424,0.0304500461,0.0529723763,0.0091390610,15.6757087708,83.4164428711,126.2745666504,0.0212377310,0.0246694386,0.0279520154,48.5433692932,36.1661109924,113.3316879272,0.0754799247,-0.0104222298,-0.0145528316,
147.343,-3.2394852638,1.4074074030,17.1333866119,0.0631356463,0.0462386422,0.0048302412,-116.8948822021,74.4844665527,49.5209579468,0.0255696774,0.0592977703,0.0057444572,15.6774091721,83.4183425903,126.2842483521,0.0271009207,0.0241865516,0.0211480856,48.5419921875,36.1664886475,113.3385314941,0.0642547011,-0.0196838975,-0.0111472011,
147.353,-3.2389771938,1.4058765173,17.1346626282,0.0587144010,0.0442766994,-0.0024949908,-116.8952255249,74.4841766357,49.5253257751,0.0314277411,0.0578369200,0.0091658831,15.6787271500,83.4148025513,126.2960357666,0.0270938277,0.0236793756,0.0259734392,48.5391693115,36.1646499634,113.3446044922,0.0735061765,-0.0152771473,-0.0019117594,
147.363,-3.2364873886,1.4058991671,17.1352672577,0.0577382334,0.0447216071,0.0062915683,-116.9050445557,74.4854736328,49.5195808411,0.0260626674,0.0617028773,0.0048027039,15.6769323349,83.4170913696,126.3041076660,0.0227038860,0.0212524533,0.0181993246,48.5398025513,36.1672897339,113.3536987305,0.0520589948,-0.0128213167,-0.0087233782,
147.373,-3.2355921268,1.4077069759,17.1376857758,0.0519104004,0.0432411283,0.0082445145,-116.9060058594,74.4863815308,49.5202293396,0.0319262743,0.0631521046,0.0101708770,15.6808443069,83.4167938232,126.3154907227,0.0270978212,0.0227078795,0.0221010447,48.5377731323,36.1679382324,113.3593750000,0.0584157705,-0.0215863585,-0.0097165704,
147.383,-3.2363209724,1.4084303379,17.1387977600,0.0597355217,0.0398358330,0.0077571869,-116.9018249512,74.4861450195,49.5266876221,0.0280189514,0.0607229322,0.0106434226,15.6829433441,83.4176254272,126.3254241943,0.0300291777,0.0271024704,0.0196760893,48.5355453491,36.1667785645,113.3657150269,0.0671884418,-0.0176684260,-0.0063305497,
147.393,-3.2359416485,1.4078280926,17.1399669647,0.0621664189,0.0437354892,0.0058036447,-116.8944473267,74.4880676270,49.5393409729,0.0294927359,0.0607100576,0.0149925947,15.7102098465,83.4188766479,126.3601150513,0.0266137123,0.0260778666,0.0167798400,48.5363044739,36.1652832031,113.3752517700,0.0686322451,-0.0113392472,-0.0034025908,
147.403,-3.2371089458,1.4059760571,17.1405658722,0.0621341094,0.0383847840,0.0058036447,-116.8871765137,74.4890594482,49.5529136658,0.0290091038,0.0616871566,0.0100718141,15.6902103424,83.4176254272,126.3493576050,0.0275877714,0.0212286413,0.0270033479,48.5368385315,36.1670570374,113.3831939697,0.0593799353,-0.0206078887,-0.0121738911,
147.413,-3.2409429550,1.4063831568,17.1410102844,0.0631177723,0.0374750011,0.0145969987,-116.8968887329,74.4882583618,49.5484542847,0.0314467549,0.0558192134,0.0032826662,15.6800699234,83.4183120728,126.3479461670,0.0285657048,0.0188103616,0.0196851492,48.5338935852,36.1680984497,113.3890838623,0.0584179759,-0.0225255489,-0.0048736930,
147.423,-3.2399454117,1.4051706791,17.1422843933,0.0577255227,0.0438053086,0.0009236336,-116.8881607056,74.4917526245,49.5610542297,0.0334162116,0.0621328801,0.0178681612,15.6716756821,83.4185485840,126.3475646973,0.0285661817,0.0217574835,0.0211490989,48.5361442566,36.1688423157,113.3983993530,0.0672175288,-0.0205876827,-0.0170519948,
147.433,-3.2382874489,1.4031201601,17.1441020966,0.0655022413,0.0437764712,0.0131278634,-116.8812789917,74.4930191040,49.5710372925,0.0339103937,0.0523630530,0.0144118071,15.6806001663,83.4193572998,126.3639297485,0.0241732597,0.0236968398,0.0201904774,48.5359077454,36.1665649414,113.4041824341,0.0740214586,-0.0152319074,-0.0102340579,
147.443,-3.2399666309,1.4040932655,17.1463699341,0.0611246936,0.0364814773,0.0043410063,-116.8773727417,74.4948959351,49.5781555176,0.0319660306,0.0591794103,0.0148694515,15.6687059402,83.4202804565,126.3594207764,0.0261282325,0.0217711627,0.0197105408,48.5374221802,36.1655616760,113.4130630493,0.0676596761,-0.0147655010,-0.0126663446,
147.453,-3.2418129444,1.4044027328,17.1455879211,0.0650363415,0.0404198840,0.0058074594,-116.8702697754,74.4992218018,49.5898742676,0.0285682678,0.0620590597,0.0157834291,15.6678113937,83.4206924438,126.3684082031,0.0261290669,0.0232396126,0.0241111517,48.5380401611,36.1679763794,113.4207305908,0.0584163070,-0.0196355581,-0.0126435161,
147.463,-3.2423157692,1.4041014910,17.1485557556,0.0616131164,0.0404286534,0.0097146630,-116.8640213013,74.5003967285,49.6008834839,0.0329682231,0.0576604754,0.0191666484,15.6952171326,83.4206085205,126.4056243896,0.0256406069,0.0261155665,0.0182666779,48.5368385315,36.1677742004,113.4276733398,0.0681790113,-0.0210907459,-0.0097279549,
147.473,-3.2431533337,1.4010688066,17.1491584778,0.0664430112,0.0394667536,0.0102021098,-116.8698577881,74.5032119751,49.6020431519,0.0251688957,0.0654180944,0.0128218532,15.6957330704,83.4217147827,126.4168472290,0.0246662498,0.0173300505,0.0221890211,48.5360984802,36.1685447693,113.4348297119,0.0579360127,-0.0205895901,-0.0077770948,
147.483,-3.2424347401,1.4009958506,17.1497097015,0.0600940883,0.0428722091,0.0028772354,-116.8616790771,74.5013885498,49.6153182983,0.0359025598,0.0586273223,0.0167078376,15.7031192780,83.4185791016,126.4340591431,0.0275896788,0.0231611729,0.0255625248,48.5399398804,36.1657371521,113.4464187622,0.0686386824,-0.0103931427,-0.0160563588,
147.493,-3.2415664196,1.4010391235,17.1496925354,0.0576534346,0.0433453582,0.0097123384,-116.8632202148,74.5005950928,49.6208152771,0.0266215205,0.0571702123,0.0089077353,15.6977987289,83.4164428711,126.4387512207,0.0261205435,0.0197434127,0.0225930810,48.5382804871,36.1694831848,113.4552307129,0.0535547137,-0.0201143622,-0.0136070848,
147.503,-3.2408807278,1.4008744955,17.1508026123,0.0649747849,0.0447982624,0.0072701573,-116.8574371338,74.5016784668,49.6320953369,0.0276031494,0.0625378489,0.0122933984,15.7085409164,83.4164428711,126.4573669434,0.0310033560,0.0270465314,0.0216223001,48.5399169922,36.1690788269,113.4644775391,0.0647794604,-0.0201328397,-0.0135926604,
147.513,-3.2438483238,1.3990616798,17.1520843506,0.0581072159,0.0404554717,0.0141083002,-116.8612670898,74.5017623901,49.6335144043,0.0310214758,0.0600874424,0.0093790889,15.7063398361,83.4159622192,126.4655227661,0.0285609961,0.0255843103,0.0221037269,48.5425300598,36.1728897095,113.4736938477,0.0579972267,-0.0206161141,-0.0193985701,
147.523,-3.2461957932,1.4015882015,17.1512737274,0.0571747310,0.0365900546,0.0023929477,-116.8502807617,74.5026473999,49.6498298645,0.0266311169,0.0576556474,0.0225099921,15.7120199203,83.4169082642,126.4812698364,0.0246566534,0.0192291141,0.0182127357,48.5429382324,36.1752128601,113.4818954468,0.0551003218,-0.0210902095,-0.0110775232,
147.533,-3.2471721172,1.4037721157,17.1535301208,0.0591659658,0.0410015397,0.0082544088,-116.8547744751,74.5038833618,49.6506462097,0.0373790264,0.0629988313,0.0093358755,15.7462520599,83.4136962891,126.5239181519,0.0290447474,0.0308665633,0.0250173211,48.5410575867,36.1790275574,113.4885177612,0.0595485568,-0.0229963660,-0.0120479465,
147.543,-3.2463047504,1.4043825865,17.1539859772,0.0640594214,0.0434278287,0.0014175177,-116.8565826416,74.5059127808,49.6539840698,0.0256697536,0.0600349903,0.0112811327,15.7428150177,83.4122085571,126.5286026001,0.0236706734,0.0235416889,0.0293833017,48.5396461487,36.1777839661,113.4943237305,0.0683200955,-0.0132272243,-0.0086534023,
147.553,-3.2460451126,1.4037102461,17.1563816071,0.0625828505,0.0453764461,0.0038587451,-116.8508148193,74.5083541870,49.6640510559,0.0325170755,0.0556161702,0.0161214471,15.7380523682,83.4135513306,126.5318603516,0.0251381993,0.0201395750,0.0152439475,48.5436401367,36.1755485535,113.5043106079,0.0746362209,-0.0137700438,-0.0149741769,
147.563,-3.2453277111,1.4001606703,17.1576309204,0.0664271712,0.0404812172,0.0150869489,-116.8523712158,74.5108566284,49.6672019958,0.0300873518,0.0624113530,0.0102495551,15.7167549133,83.4138717651,126.5206832886,0.0246505737,0.0113937259,0.0162140131,48.5419654846,36.1764030457,113.5106048584,0.0580466986,-0.0166773796,-0.0086380243,
147.573,-3.2456774712,1.3994075060,17.1575813293,0.0625077784,0.0434170179,0.0072742105,-116.8485717773,74.5101776123,49.6747093201,0.0271544456,0.0546166897,0.0043795705,15.7185049057,83.4148864746,126.5304641724,0.0319768190,0.0226255655,0.0211149454,48.5423545837,36.1778907776,113.5181503296,0.0634388328,-0.0215523839,-0.0135071278,
147.583,-3.2449560165,1.4023725986,17.1579570770,0.0601181090,0.0429160930,0.0014159679,-116.8467178345,74.5110931396,49.6808586121,0.0300884247,0.0604664534,0.0165718794,15.7245273590,83.4166717529,126.5445480347,0.0197733641,0.0221338570,0.0177300572,48.5384674072,36.1746559143,113.5242004395,0.0741354227,-0.0205644369,-0.0008744597,
147.593,-3.2431728840,1.4015364647,17.1579799652,0.0605918020,0.0487444326,0.0053191781,-116.8486175537,74.5142974854,49.6832733154,0.0276619792,0.0643212348,0.0082547665,15.7120914459,83.4168472290,126.5413208008,0.0231916904,0.0231354535,0.0245615840,48.5384445190,36.1733512878,113.5318069458,0.0667927861,-0.0161798596,-0.0062550902,
147.603,-3.2454378605,1.4006495476,17.1596679688,0.0654591396,0.0365768783,0.0067867041,-116.8341217041,74.5168457031,49.7012939453,0.0266972780,0.0579648763,0.0223350525,15.7001180649,83.4168472290,126.5374145508,0.0270979404,0.0207172930,0.0226010680,48.5388412476,36.1757965088,113.5407562256,0.0541319847,-0.0146996975,-0.0096514225,
147.613,-3.2446374893,1.3993192911,17.1602439880,0.0625062361,0.0409574918,0.0072731972,-116.8267059326,74.5199966431,49.7139816284,0.0301299095,0.0642829090,0.0188623071,15.6981983185,83.4157485962,126.5449600220,0.0256308913,0.0177862644,0.0250232816,48.5369186401,36.1735267639,113.5475845337,0.0682601333,-0.0195823312,-0.0048053861,
147.623,-3.2441017628,1.3999196291,17.1613521576,0.0620284341,0.0443661101,-0.0000513196,-116.8284225464,74.5196990967,49.7169876099,0.0306168199,0.0584229976,0.0144771934,15.6890354156,83.4134521484,126.5439987183,0.0231848955,0.0177938342,0.0279110074,48.5346336365,36.1761856079,113.5542068481,0.0512077212,-0.0195403099,-0.0067635775,
147.633,-3.2438704967,1.4008657932,17.1630649567,0.0610683821,0.0453386270,0.0033668280,-116.8391876221,74.5205383301,49.7114715576,0.0379449129,0.0603410751,0.0057267547,15.6710433960,83.4128646851,126.5359954834,0.0222071409,0.0178262293,0.0234964490,48.5341072083,36.1715240479,113.5614776611,0.0721381903,-0.0122472644,-0.0077785254,
147.643,-3.2444486618,1.4025033712,17.1641902924,0.0567024201,0.0424189717,0.0131339431,-116.8498764038,74.5197372437,49.7061614990,0.0223162174,0.0564245582,0.0013830066,15.6617355347,83.4105987549,126.5359573364,0.0256205797,0.0222285688,0.0254071951,48.5329437256,36.1703033447,113.5691452026,0.0696795583,-0.0195699930,-0.0063335299,
147.653,-3.2444138527,1.4022870064,17.1659622192,0.0610931776,0.0424183682,0.0102036595,-116.8522796631,74.5207290649,49.7096786499,0.0286684632,0.0573810488,0.0165220499,15.6740674973,83.4106597900,126.5573577881,0.0280621052,0.0261109769,0.0151613355,48.5332298279,36.1678924561,113.5758972168,0.0696455240,-0.0103139877,-0.0122064352,
147.663,-3.2413039207,1.4007557631,17.1677894592,0.0635078698,0.0467587672,0.0087358952,-116.8597106934,74.5200881958,49.7088012695,0.0301303267,0.0607929528,0.0063041449,15.6702241898,83.4123535156,126.5616607666,0.0226944089,0.0183138251,0.0166519880,48.5319862366,36.1705780029,113.5835494995,0.0604060292,-0.0229769349,-0.0122011900,
147.673,-3.2418260574,1.3997689486,17.1696224213,0.0595843978,0.0404202305,0.0126413107,-116.8479614258,74.5221786499,49.7241287231,0.0359994769,0.0593215674,0.0223525167,15.6742105484,83.4120864868,126.5738754272,0.0266001225,0.0187929571,0.0259266496,48.5300254822,36.1698188782,113.5896530151,0.0647898912,-0.0210113525,-0.0049028993,
147.683,-3.2418262959,1.3995426893,17.1712799072,0.0673929527,0.0423733629,0.0058059692,-116.8431549072,74.5237045288,49.7334442139,0.0301471949,0.0632146299,0.0159731507,15.6779556274,83.4123535156,126.5885772705,0.0236709714,0.0256232023,0.0176340342,48.5298576355,36.1673126221,113.5975723267,0.0745202303,-0.0151696801,-0.0102928281,
147.693,-3.2423844337,1.4005843401,17.1723880768,0.0586220622,0.0404299386,0.0077600479,-116.8359375000,74.5221176147,49.7461128235,0.0320929289,0.0588595867,0.0203495622,15.6494140625,83.4132232666,126.5682067871,0.0266023874,0.0178699493,0.0220242143,48.5285034180,36.1678924561,113.6040725708,0.0593916774,-0.0161291361,-0.0024906993,
147.703,-3.2420299053,1.3983168602,17.1729984283,0.0659067184,0.0457949080,0.0102000237,-116.8384246826,74.5249786377,49.7480812073,0.0340594053,0.0646710545,0.0144789815,15.6427049637,83.4112548828,126.5688629150,0.0236687660,0.0222690105,0.0263847113,48.5266647339,36.1696166992,113.6106414795,0.0584394336,-0.0200048685,-0.0098226070,
147.713,-3.2404155731,1.3968576193,17.1748237610,0.0634398460,0.0457668193,0.0136156678,-116.8459777832,74.5256271362,49.7444953918,0.0306444168,0.0597620159,0.0062047839,15.6311092377,83.4115524292,126.5659561157,0.0261107683,0.0208283067,0.0215005875,48.5275535583,36.1710128784,113.6195602417,0.0628535748,-0.0160962343,-0.0102920532,
147.723,-3.2409772873,1.3966131210,17.1777343750,0.0634355843,0.0360109881,0.0062920451,-116.8473281860,74.5282745361,49.7475891113,0.0282153487,0.0665560663,0.0164442658,15.6372976303,83.4115524292,126.5811996460,0.0261107683,0.0281402171,0.0185735226,48.5288314819,36.1682701111,113.6276473999,0.0759985447,-0.0117348433,-0.0112738013,
147.733,-3.2414469719,1.3950176239,17.1776657104,0.0653608739,0.0409020185,0.0048265457,-116.8370285034,74.5302352905,49.7615814209,0.0292010307,0.0602009594,0.0202928185,15.6344709396,83.4082183838,126.5882339478,0.0270806551,0.0237360597,0.0277951956,48.5297241211,36.1660614014,113.6357955933,0.0691314936,-0.0132250190,-0.0068849921,
147.743,-3.2388739586,1.3933982849,17.1776657104,0.0633794963,0.0472048931,0.0067771673,-116.8444747925,74.5306854248,49.7600784302,0.0321328044,0.0606662631,0.0056720972,15.6695985794,83.4094085693,126.6330413818,0.0217119455,0.0324615538,0.0205091238,48.5279121399,36.1669120789,113.6417007446,0.0588896275,-0.0151546597,-0.0044568181,
147.753,-3.2406690121,1.3946697712,17.1793575287,0.0599837080,0.0404001959,0.0048254132,-116.8410644531,74.5335006714,49.7682533264,0.0277513862,0.0586782545,0.0188199878,15.6668262482,83.4073867798,126.6382598877,0.0236610174,0.0241568387,0.0243803263,48.5247879028,36.1693344116,113.6482772827,0.0603885651,-0.0214545131,-0.0074030161,
147.763,-3.2399978638,1.3953534365,17.1810703278,0.0599956363,0.0403884836,0.0077553988,-116.8323364258,74.5320816040,49.7811164856,0.0248150826,0.0557888597,0.0114702582,15.6539974213,83.4073562622,126.6359481812,0.0246375203,0.0192994177,0.0224213600,48.5222434998,36.1695137024,113.6540985107,0.0652738810,-0.0194761753,-0.0079169869,
147.773,-3.2393019199,1.3974142075,17.1828212738,0.0551487803,0.0447708443,0.0067789555,-116.8413925171,74.5344467163,49.7779541016,0.0341034532,0.0654989332,0.0075837970,15.6693449020,83.4086685181,126.6612167358,0.0246401429,0.0246459544,0.0200075507,48.5234336853,36.1689376831,113.6621017456,0.0623360276,-0.0097261071,-0.0059549212,
147.783,-3.2390904427,1.3996402025,17.1839313507,0.0566524640,0.0452553853,0.0087324977,-116.8478927612,74.5344772339,49.7757949829,0.0311738849,0.0571846515,0.0105403662,15.6573896408,83.4082183838,126.6583938599,0.0290337801,0.0212501585,0.0165793300,48.5259475708,36.1694030762,113.6732788086,0.0633192062,-0.0199999213,-0.0186209679,
147.793,-3.2383356094,1.4025435448,17.1849460602,0.0606093705,0.0471952930,0.0058039427,-116.8384094238,74.5326080322,49.7884101868,0.0301886201,0.0557673275,0.0070970058,15.6631937027,83.4084548950,126.6728057861,0.0256162882,0.0256336629,0.0204895139,48.5222358704,36.1718368530,113.6801528931,0.0555409789,-0.0223879218,-0.0074127316,
147.803,-3.2383177280,1.4040131569,17.1860351563,0.0591701679,0.0403590128,0.0048270822,-116.8356094360,74.5318298340,49.7952995300,0.0257905126,0.0626207739,0.0119739771,15.6526203156,83.4073867798,126.6714935303,0.0251258612,0.0227200985,0.0277916789,48.5208320618,36.1707000732,113.6880722046,0.0750562549,-0.0218952298,-0.0162245035,
147.813,-3.2405500412,1.4039409161,17.1877861023,0.0606337562,0.0408861786,0.0116658211,-116.8385467529,74.5311126709,49.7977027893,0.0321348310,0.0616489649,0.0090620518,15.6611871719,83.4085159302,126.6894836426,0.0265929699,0.0197784603,0.0209773779,48.5195922852,36.1719474792,113.6945877075,0.0614019632,-0.0248037577,-0.0108578801,
147.823,-3.2405073643,1.4037812948,17.1901683807,0.0611192510,0.0423502773,0.0131301880,-116.8403930664,74.5319061279,49.8011703491,0.0360447764,0.0582154393,0.0085753798,15.6474876404,83.4065551758,126.6844863892,0.0207296610,0.0202847719,0.0297275782,48.5193367004,36.1696434021,113.7024154663,0.0716233850,-0.0165183544,-0.0079467893,
147.833,-3.2395977974,1.4049371481,17.1913318634,0.0582097322,0.0477055088,0.0072706342,-116.8384017944,74.5330276489,49.8082351685,0.0287257433,0.0625972003,0.0153944492,15.6276226044,83.4054870605,126.6726531982,0.0246337652,0.0208071768,0.0228634477,48.5196228027,36.1725234985,113.7113494873,0.0599452257,-0.0194284916,-0.0132951140,
147.843,-3.2415084839,1.4066587687,17.1929817200,0.0606811754,0.0399262495,0.0087382197,-116.8289566040,74.5324325562,49.8241615295,0.0262815952,0.0553018302,0.0134065747,15.6065597534,83.4028930664,126.6595916748,0.0236520171,0.0218131542,0.0281803012,48.5189552307,36.1726913452,113.7193374634,0.0619006753,-0.0125851035,-0.0084182620,
147.853,-3.2424845695,1.4050419331,17.1946926117,0.0679771826,0.0389667228,0.0058088303,-116.8213500977,74.5310134888,49.8361396790,0.0360406041,0.0563158840,0.0163152814,15.5999603271,83.4024505615,126.6622695923,0.0304870605,0.0213360190,0.0267057419,48.5169296265,36.1726913452,113.7271957397,0.0599475503,-0.0135427713,-0.0055099726,
147.863,-3.2436335087,1.4024889469,17.1941471100,0.0625615418,0.0448461808,0.0155744553,-116.8125228882,74.5321044922,49.8501548767,0.0248152018,0.0568062216,0.0143170357,15.5855026245,83.4036102295,126.6576843262,0.0236534476,0.0238107443,0.0237853527,48.5188140869,36.1692848206,113.7362976074,0.0774776936,-0.0145632029,-0.0138140917,
147.873,-3.2444200516,1.4036935568,17.1940498352,0.0576997511,0.0419301689,0.0043452382,-116.8242492676,74.5318832397,49.8439941406,0.0345798135,0.0650857687,0.0031371713,15.5609922409,83.4031600952,126.6432037354,0.0231642723,0.0150679946,0.0232775211,48.5176124573,36.1723136902,113.7446517944,0.0531063080,-0.0179464817,-0.0123412609,
147.883,-3.2442257404,1.4026827812,17.1939754486,0.0654946119,0.0453447700,0.0058094263,-116.8379211426,74.5263748169,49.8344764709,0.0330893397,0.0543971956,-0.0016469955,15.5566787720,83.4021835327,126.6458282471,0.0265802741,0.0199545324,0.0252109170,48.5157203674,36.1755332947,113.7498092651,0.0570579171,-0.0222985148,-0.0128274560,
147.893,-3.2444386482,1.4055770636,17.1956520081,0.0543146469,0.0394890383,0.0048344135,-116.8344802856,74.5217971802,49.8384971619,0.0413687825,0.0574025065,0.0139982700,15.5793905258,83.4004898071,126.6765365601,0.0290182829,0.0228322148,0.0173846483,48.5123519897,36.1796875000,113.7544860840,0.0561398864,-0.0232115984,-0.0103932619,
147.903,-3.2460093498,1.4073541164,17.1961784363,0.0558104925,0.0434226021,0.0038601756,-116.8585357666,74.5160217285,49.8189659119,0.0257168412,0.0603681356,0.0077948570,15.5937595367,83.4015045166,126.6994552612,0.0299968719,0.0257382989,0.0159440637,48.5089683533,36.1844940186,113.7605819702,0.0552309752,-0.0241194963,-0.0099078417,
147.913,-3.2462263107,1.4088311195,17.1972103119,0.0631604791,0.0439146273,-0.0019987822,-116.8746414185,74.5092010498,49.8029098511,0.0325210094,0.0550649464,0.0098668337,15.6330299377,83.4029846191,126.7461471558,0.0212107897,0.0266444087,0.0194072723,48.5113143921,36.1873168945,113.7696304321,0.0601536036,-0.0192367435,-0.0206060410,
147.923,-3.2461745739,1.4092066288,17.1995544434,0.0612139143,0.0424488820,0.0082555413,-116.8824691772,74.5059280396,49.7943153381,0.0266463757,0.0594917089,0.0187133551,15.6386938095,83.4033126831,126.7593154907,0.0216997266,0.0188224316,0.0159981847,48.5108413696,36.1920013428,113.7760467529,0.0607078671,-0.0250556469,-0.0122783184,
147.933,-3.2467017174,1.4093428850,17.2001533508,0.0573100373,0.0448994562,0.0053266287,-116.9013595581,74.4988250732,49.7784996033,0.0266132355,0.0571165532,0.0110337138,15.6472845078,83.4033432007,126.7740859985,0.0231646299,0.0217356086,0.0164927244,48.5124664307,36.1922225952,113.7833404541,0.0680352449,-0.0109089613,-0.0049354434,
147.943,-3.2467432022,1.4100519419,17.1994514465,0.0592755377,0.0424587615,0.0033738017,-116.9067916870,74.4964675903,49.7754669189,0.0256257057,0.0639762580,0.0140039921,15.6622190475,83.4037551880,126.7971954346,0.0202357769,0.0226848125,0.0233436823,48.5101661682,36.1892471313,113.7899627686,0.0694581866,-0.0148166418,-0.0025385022,
147.953,-3.2439460754,1.4085121155,17.2012233734,0.0680377334,0.0477811694,0.0136242509,-116.9043502808,74.4947280884,49.7794609070,0.0261058807,0.0630307645,0.0208427906,15.6747608185,83.4058380127,126.8172454834,0.0265876055,0.0197395384,0.0136167407,48.5113334656,36.1884269714,113.7976379395,0.0718879700,-0.0133690834,-0.0166919827,
147.963,-3.2451362610,1.4091434479,17.2035713196,0.0582831204,0.0380362608,0.0116725564,-116.9032135010,74.4951171875,49.7847251892,0.0290373564,0.0591209382,0.0086281300,15.6923961639,83.4071502686,126.8428344727,0.0251253843,0.0245942175,0.0170677304,48.5124511719,36.1869430542,113.8062133789,0.0611249208,-0.0133909583,-0.0069247484,
147.973,-3.2470164299,1.4103637934,17.2052593231,0.0583044142,0.0356275737,0.0136280656,-116.8908233643,74.5014495850,49.8022270203,0.0251606703,0.0649124980,0.0231766701,15.6771755219,83.4040832520,126.8350219727,0.0241426826,0.0221681595,0.0209136009,48.5117607117,36.1854591370,113.8134613037,0.0728227496,-0.0197435617,-0.0103600025,
147.983,-3.2456889153,1.4094974995,17.2057437897,0.0651252344,0.0385341607,0.0063022971,-116.8593673706,74.5090713501,49.8404617310,0.0291024446,0.0653526485,0.0259172916,15.6780443192,83.4082794189,126.8451004028,0.0236628056,0.0202331841,0.0136612058,48.5145149231,36.1804199219,113.8222579956,0.0717751980,-0.0090659857,-0.0113418698,
147.993,-3.2427861691,1.4083621502,17.2069492340,0.0641288608,0.0482492484,0.0082516670,-116.8459777832,74.5148010254,49.8674240112,0.0276643038,0.0618774295,0.0092165470,15.6835412979,83.4075088501,126.8622741699,0.0265909433,0.0275424421,0.0253674984,48.5153160095,36.1828231812,113.8313674927,0.0498363972,-0.0163792372,-0.0093643665,
148.003,-3.2433440685,1.4086838961,17.2081317902,0.0568102598,0.0404464565,0.0062992573,-116.8316802979,74.5257263184,49.8992958069,0.0242972374,0.0666270554,0.0188396573,15.6738338470,83.4077148438,126.8648300171,0.0178022981,0.0256096721,0.0326914191,48.5192756653,36.1757698059,113.8439483643,0.0751276612,-0.0101227760,-0.0132760406,
148.013,-3.2431893349,1.4095450640,17.2098007202,0.0617080964,0.0384906046,0.0131356120,-116.8078384399,74.5299530029,49.9379768372,0.0287114382,0.0548947453,0.0104073882,15.6521148682,83.4078063965,126.8567276001,0.0251266956,0.0212577283,0.0253548026,48.5148468018,36.1745681763,113.8499450684,0.0550912023,-0.0193682909,0.0032692552,
148.023,-3.2455763817,1.4092139006,17.2097320557,0.0612140410,0.0404853299,0.0126494169,-116.7866287231,74.5329360962,49.9682769775,0.0331198573,0.0553832501,0.0019956827,15.6206130981,83.4103622437,126.8356246948,0.0295263529,0.0198672116,0.0234299898,48.5138053894,36.1720962524,113.8597412109,0.0716579556,-0.0203539729,-0.0074997544,
148.033,-3.2428224087,1.4094247818,17.2114715576,0.0617059991,0.0433670394,0.0092290044,-116.7694168091,74.5354843140,49.9939918518,0.0302020311,0.0553813428,0.0077640414,15.6069116592,83.4122085571,126.8313064575,0.0187878609,0.0194132626,0.0141711235,48.5095481873,36.1714172363,113.8677139282,0.0662772655,-0.0208079219,-0.0095034838,
148.043,-3.2447929382,1.4102730751,17.2138137817,0.0592793934,0.0419365019,-0.0000460744,-116.7527847290,74.5371704102,50.0124664307,0.0267919302,0.0529497713,0.0106115937,15.6134138107,83.4131011963,126.8456192017,0.0270904303,0.0267298222,0.0210295916,48.5060806274,36.1703720093,113.8744049072,0.0706570745,-0.0207834840,-0.0046634674,
148.053,-3.2440571785,1.4124331474,17.2161731720,0.0549225509,0.0448533222,0.0067901015,-116.7456054688,74.5395431519,50.0196838379,0.0351037383,0.0592768341,0.0076339841,15.6247453690,83.4142303467,126.8656768799,0.0251395702,0.0228058994,0.0190982819,48.5058631897,36.1711082458,113.8826828003,0.0648080707,-0.0139398575,-0.0144264698,
148.063,-3.2440731525,1.4106925726,17.2167949677,0.0617281199,0.0424122326,0.0053241849,-116.7492065430,74.5420303345,50.0158958435,0.0312090516,0.0611856580,0.0066536665,15.6199293137,83.4133148193,126.8707427979,0.0251377225,0.0208583474,0.0244534016,48.5080604553,36.1710472107,113.8919601440,0.0643189549,-0.0139608383,-0.0144037604,
148.073,-3.2440738678,1.4102236032,17.2179698944,0.0622082204,0.0443653837,0.0199726820,-116.7591018677,74.5443115234,50.0059242249,0.0341493487,0.0616190135,0.0100957155,15.6189737320,83.4081878662,126.8783493042,0.0251274705,0.0257195532,0.0297399163,48.5065269470,36.1752777100,113.8990707397,0.0492419004,-0.0192849636,-0.0124378800,
148.083,-3.2436180115,1.4076088667,17.2174034119,0.0626508743,0.0419160947,0.0121586323,-116.7839355469,74.5447692871,49.9842567444,0.0341514945,0.0610708743,-0.0000581741,15.6397438049,83.4090499878,126.9066390991,0.0236643553,0.0242173672,0.0234153867,48.5043601990,36.1734657288,113.9054183960,0.0663061142,-0.0139076710,-0.0100317597,
148.093,-3.2421505451,1.4077104330,17.2186183929,0.0577698387,0.0453085005,0.0121572614,-116.8046722412,74.5446929932,49.9668884277,0.0346394181,0.0595643371,0.0088180304,15.6477622986,83.4108428955,126.9250869751,0.0295273066,0.0232338309,0.0156387687,48.5016403198,36.1764259338,113.9121856689,0.0565822124,-0.0226484537,-0.0100401640,
148.103,-3.2401211262,1.4083111286,17.2172794342,0.0616865680,0.0433200076,0.0038546920,-116.8272781372,74.5435028076,49.9465942383,0.0307276249,0.0609988868,0.0128274560,15.6805458069,83.4103622437,126.9657669067,0.0256201029,0.0300033092,0.0215082765,48.5014305115,36.1803932190,113.9200820923,0.0546850562,-0.0216392875,-0.0158747435,
148.113,-3.2412791252,1.4100270271,17.2177848816,0.0563454144,0.0404104516,0.0145987868,-116.8546981812,74.5430831909,49.9228248596,0.0302373767,0.0624128580,0.0109918714,15.7045831680,83.4125595093,126.9990158081,0.0266010761,0.0245952010,0.0093502998,48.5001640320,36.1823654175,113.9270172119,0.0610604286,-0.0191708803,-0.0109918714,
148.123,-3.2410743237,1.4074429274,17.2183837891,0.0646011084,0.0389421061,0.0033670068,-116.8701858521,74.5442810059,49.9102516174,0.0341492295,0.0594322383,0.0169066191,15.7381963730,83.4109039307,127.0399551392,0.0212266445,0.0294042528,0.0239890814,48.5019912720,36.1792831421,113.9357452393,0.0742006302,-0.0099343061,-0.0139232278,
148.133,-3.2414262295,1.4078539610,17.2206687927,0.0631434321,0.0389482155,0.0058089495,-116.9107055664,74.5471038818,49.8730964661,0.0307443738,0.0612577498,0.0072883964,15.7498483658,83.4058990479,127.0602111816,0.0231697559,0.0264287293,0.0302615762,48.4991531372,36.1795310974,113.9413757324,0.0624853373,-0.0206481218,-0.0012564659,
148.143,-3.2402648926,1.4096206427,17.2211494446,0.0578031652,0.0423459150,-0.0015155673,-116.9542770386,74.5473709106,49.8344650269,0.0273276567,0.0596975535,0.0016083717,15.7594623566,83.4039077759,127.0765914917,0.0275602937,0.0239596367,0.0263296962,48.4995384216,36.1792678833,113.9489746094,0.0732238293,-0.0172357559,-0.0095545053,
148.153,-3.2396662235,1.4083347321,17.2217712402,0.0621752590,0.0467300490,0.0023890734,-116.9796066284,74.5480270386,49.8127174377,0.0322135091,0.0591454357,0.0104979277,15.7783403397,83.4006729126,127.1048660278,0.0270655155,0.0214655995,0.0194483399,48.4980697632,36.1825408936,113.9548034668,0.0605746508,-0.0206148624,-0.0080832839,
148.163,-3.2388031483,1.4100799561,17.2229328156,0.0539049283,0.0432970040,0.0038545132,-116.9950027466,74.5510101318,49.8033103943,0.0278328657,0.0580915511,0.0173752904,15.7849979401,83.3975753784,127.1197204590,0.0207116604,0.0185086131,0.0291674733,48.5009002686,36.1781578064,113.9643707275,0.0756494999,-0.0138391256,-0.0134541392,
148.173,-3.2392296791,1.4141961336,17.2232379913,0.0608126856,0.0408629254,0.0141100883,-117.0126647949,74.5492706299,49.7908096313,0.0288013220,0.0556391925,0.0096494555,15.7808065414,83.3982009888,127.1242141724,0.0280371308,0.0190084279,0.0169701576,48.5006179810,36.1802330017,113.9719009399,0.0590772629,-0.0157735944,-0.0114898086,
148.183,-3.2387278080,1.4143815041,17.2262210846,0.0598393567,0.0418307371,0.0077621937,-117.0208587646,74.5437698364,49.7876548767,0.0297523141,0.0532621741,0.0053308606,15.8128128052,83.3970184326,127.1654663086,0.0280347466,0.0287053585,0.0257557631,48.4982376099,36.1819419861,113.9777450562,0.0561716557,-0.0230624080,-0.0051557422,
148.193,-3.2411155701,1.4129117727,17.2267131805,0.0671379268,0.0384544097,0.0038577914,-117.0188674927,74.5429763794,49.7936058044,0.0292603374,0.0571850091,0.0199769735,15.8457221985,83.3960952759,127.2058715820,0.0216852427,0.0242419243,0.0213642120,48.4965171814,36.1792907715,113.9850616455,0.0702944398,-0.0152542591,-0.0105631351,
148.203,-3.2424781322,1.4157977104,17.2271614075,0.0564460978,0.0418960452,0.0116729140,-117.0189437866,74.5351791382,49.7959632874,0.0331302881,0.0509531647,0.0088063478,15.8465175629,83.3926773071,127.2164459229,0.0270494819,0.0252013505,0.0296109319,48.4974746704,36.1821174622,113.9939651489,0.0556858778,-0.0181711316,-0.0159049034,
148.213,-3.2435123920,1.4177879095,17.2282085419,0.0613636300,0.0453319773,-0.0024858117,-117.0084304810,74.5304565430,49.8066253662,0.0335965753,0.0588587523,0.0161227584,15.8413372040,83.3937759399,127.2187423706,0.0290048122,0.0198454261,0.0159536600,48.5017890930,36.1823883057,114.0027542114,0.0713146329,-0.0177210569,-0.0207403898,
148.223,-3.2423965931,1.4152454138,17.2293834686,0.0666903704,0.0399415120,0.0028833151,-116.9838104248,74.5205078125,49.8288917542,0.0276908875,0.0517353117,0.0190255046,15.8326606750,83.3918762207,127.2182083130,0.0211884975,0.0198536515,0.0291013122,48.5030937195,36.1818428040,114.0107727051,0.0639827251,-0.0152959824,-0.0114526153,
148.233,-3.2461955547,1.4140620232,17.2305660248,0.0598337799,0.0356131867,0.0033748746,-116.9777908325,74.5121383667,49.8327293396,0.0305815935,0.0606620163,0.0024625659,15.8224964142,83.3890304565,127.2154464722,0.0236241817,0.0218136609,0.0256317258,48.5003662109,36.1790161133,114.0159606934,0.0644311905,-0.0216400027,-0.0075945258,
148.243,-3.2472183704,1.4128146172,17.2299880981,0.0598120205,0.0453966558,0.0067934394,-116.9640884399,74.5044937134,49.8448486328,0.0271279812,0.0608053505,0.0078345537,15.8269987106,83.3906936646,127.2287445068,0.0211861134,0.0198588967,0.0163819194,48.4999122620,36.1768913269,114.0222396851,0.0668426752,-0.0133513808,-0.0090788007,
148.253,-3.2467803955,1.4118036032,17.2299404144,0.0637006313,0.0439242050,0.0150934458,-116.9394836426,74.4989700317,49.8680267334,0.0285670757,0.0628929883,0.0204691887,15.8272647858,83.3908691406,127.2363510132,0.0270458460,0.0227893293,0.0202931166,48.5029754639,36.1775207520,114.0309295654,0.0614805222,-0.0158165097,-0.0192959905,
148.263,-3.2483623028,1.4109269381,17.2316703796,0.0656384602,0.0410220996,0.0121645331,-116.9282989502,74.4963760376,49.8801612854,0.0285549760,0.0658851564,0.0180006623,15.8290033340,83.3852920532,127.2459793091,0.0324057341,0.0286194384,0.0319216847,48.5032768250,36.1742362976,114.0387954712,0.0780357718,-0.0124266744,-0.0139440894,
148.273,-3.2495226860,1.4110288620,17.2328643799,0.0578277372,0.0425071530,0.0141191483,-116.9128036499,74.4945983887,49.8982467651,0.0319646597,0.0644796640,0.0140432119,15.8195896149,83.3867187500,127.2422485352,0.0182484388,0.0198556185,0.0231512189,48.5051612854,36.1724891663,114.0478820801,0.0687337518,-0.0119695067,-0.0114949346,
148.283,-3.2484328747,1.4132441282,17.2340316772,0.0544484183,0.0483474955,0.0053298473,-116.9070663452,74.4938201904,49.9064903259,0.0309844613,0.0630384088,0.0179314017,15.8363409042,83.3864212036,127.2688598633,0.0260603428,0.0266565681,0.0270590782,48.5080947876,36.1711082458,114.0564498901,0.0638315082,-0.0168904066,-0.0100086331,
148.293,-3.2501528263,1.4132461548,17.2357883453,0.0603078268,0.0405649580,0.0097261071,-116.9079437256,74.4950561523,49.9102096558,0.0348964334,0.0654595494,0.0135312676,15.8306789398,83.3862686157,127.2713470459,0.0265483260,0.0169019997,0.0197318196,48.5068244934,36.1745033264,114.0643997192,0.0531371832,-0.0207586288,-0.0124402642,
148.303,-3.2483222485,1.4152070284,17.2368583679,0.0598537624,0.0444392674,0.0126547813,-116.9239273071,74.4935302734,49.8996582031,0.0319596529,0.0625189096,0.0014025569,15.8128223419,83.3851165771,127.2615966797,0.0265460014,0.0174199045,0.0206791162,48.5092658997,36.1751136780,114.0735549927,0.0707238913,-0.0139406919,-0.0226640105,
148.313,-3.2472987175,1.4145781994,17.2392959595,0.0603310764,0.0458862893,0.0048406720,-116.9281082153,74.4944000244,49.9043998718,0.0251277685,0.0620094240,0.0126437545,15.8139057159,83.3830413818,127.2713165283,0.0197058916,0.0261971951,0.0308996439,48.5059585571,36.1720352173,114.0792465210,0.0731219053,-0.0178398490,-0.0061184168,
148.323,-3.2485616207,1.4135382175,17.2399311066,0.0573832393,0.0400489420,0.0131428838,-116.9400558472,74.4952621460,49.9009742737,0.0290380716,0.0600174665,0.0107340813,15.8046483994,83.3814086914,127.2719497681,0.0187260509,0.0223016143,0.0284264684,48.5078353882,36.1693572998,114.0886688232,0.0701544881,-0.0120186806,-0.0105114579,
148.333,-3.2478389740,1.4117038250,17.2411861420,0.0622340441,0.0449192151,0.0067928433,-116.9512863159,74.4953308105,49.8997116089,0.0319680572,0.0551099032,0.0073624849,15.8024387360,83.3807296753,127.2795867920,0.0338613987,0.0232793987,0.0245079398,48.5075721741,36.1703910828,114.0964813232,0.0555205941,-0.0134730935,-0.0085540414,
148.343,-3.2475216389,1.4127713442,17.2416667938,0.0607878268,0.0434488207,0.0146062970,-116.9646224976,74.4963302612,49.8968048096,0.0334375501,0.0609262884,0.0118051171,15.7809391022,83.3801345825,127.2691650391,0.0280008316,0.0228306651,0.0249744654,48.5064353943,36.1703834534,114.1030960083,0.0652861595,-0.0198101997,-0.0100309253,
148.353,-3.2482881546,1.4134984016,17.2428073883,0.0598239489,0.0439504273,0.0107010603,-116.9756317139,74.4960556030,49.8946533203,0.0300183296,0.0584644079,0.0059936047,15.7811803818,83.3788909912,127.2774124146,0.0294631720,0.0242892802,0.0269073844,48.5078277588,36.1730804443,114.1098709106,0.0623944402,-0.0173609853,-0.0143924952,
148.363,-3.2506465912,1.4117026329,17.2459163666,0.0578394905,0.0405735932,-0.0034576654,-116.9816970825,74.4999160767,49.8951072693,0.0285714865,0.0627906024,0.0118490458,15.7742166519,83.3761062622,127.2796249390,0.0299458504,0.0233135819,0.0219752789,48.5064811707,36.1744880676,114.1174621582,0.0619260073,-0.0192907453,-0.0119557381,
148.373,-3.2522480488,1.4102820158,17.2465305328,0.0607443899,0.0410898030,0.0092386603,-116.9998779297,74.5029983521,49.8821029663,0.0276092887,0.0622162521,0.0104366541,15.7481088638,83.3772964478,127.2629089355,0.0279951096,0.0145812929,0.0136789680,48.5089721680,36.1783027649,114.1266098022,0.0575851798,-0.0202611089,-0.0153214335,
148.383,-3.2505571842,1.4125001431,17.2482032776,0.0588299707,0.0439899862,0.0053316951,-117.0183563232,74.5030136108,49.8681297302,0.0300507545,0.0514348298,0.0070956945,15.7657833099,83.3768157959,127.2885742188,0.0245761871,0.0243098438,0.0190518498,48.5071144104,36.1805191040,114.1350250244,0.0581047535,-0.0124140978,-0.0070250630,
148.393,-3.2497165203,1.4117990732,17.2506160736,0.0627239868,0.0473933257,0.0048419237,-117.0325241089,74.5045700073,49.8562660217,0.0339642763,0.0601708144,0.0095844269,15.7759294510,83.3762207031,127.3061370850,0.0245749950,0.0233107209,0.0180717111,48.5076828003,36.1830825806,114.1426773071,0.0615587831,-0.0202121735,-0.0162788033,
148.403,-3.2521665096,1.4129232168,17.2492294312,0.0622553155,0.0425531603,0.0111931562,-117.0367355347,74.5061035156,49.8552398682,0.0271354914,0.0606268495,0.0198440552,15.8021297455,83.3758163452,127.3403701782,0.0265272856,0.0232571959,0.0175911784,48.5045890808,36.1879539490,114.1474609375,0.0533266068,-0.0299113393,-0.0109071136,
148.413,-3.2520859241,1.4107786417,17.2504520416,0.0612413362,0.0362041555,0.0087502003,-117.0449447632,74.5077896118,49.8500595093,0.0286082029,0.0630257726,0.0125413537,15.8131437302,83.3755722046,127.3593444824,0.0245736837,0.0256758928,0.0210116506,48.5053749084,36.1920738220,114.1545715332,0.0533847213,-0.0162149668,-0.0123355389,
148.423,-3.2538070679,1.4093354940,17.2523097992,0.0587747544,0.0406287089,0.0048453212,-117.0638046265,74.5089187622,49.8340911865,0.0266603231,0.0634571761,0.0004043579,15.8151617050,83.3745117188,127.3694152832,0.0265246630,0.0207840800,0.0161122084,48.5066719055,36.1916694641,114.1622543335,0.0694922209,-0.0196481943,-0.0196489096,
148.433,-3.2531998158,1.4098266363,17.2534217834,0.0607364476,0.0401298366,0.0131452084,-117.0648727417,74.5135192871,49.8362617493,0.0271700621,0.0643628687,0.0145338774,15.7917413712,83.3743896484,127.3542556763,0.0284775496,0.0164346099,0.0263490081,48.5022735596,36.1924209595,114.1666183472,0.0587607026,-0.0191130042,0.0013059378,
148.443,-3.2515177727,1.4095486403,17.2545547485,0.0631730035,0.0440067872,0.0058194995,-117.0598220825,74.5214462280,49.8451881409,0.0281835198,0.0613258481,0.0168937445,15.7959384918,83.3739776611,127.3669738770,0.0275001526,0.0252144635,0.0253721476,48.5016365051,36.1917533875,114.1742630005,0.0646106601,-0.0127645731,-0.0030997396,
148.453,-3.2553331852,1.4074889421,17.2556285858,0.0670433119,0.0313779935,0.0004514456,-117.0601348877,74.5321426392,49.8518447876,0.0296981931,0.0626302809,0.0153486133,15.8068056107,83.3745117188,127.3865432739,0.0275012255,0.0251945257,0.0209879875,48.5034599304,36.1924285889,114.1820220947,0.0690146685,-0.0127763748,-0.0128415823,
148.463,-3.2539122105,1.4059299231,17.2562503815,0.0631098598,0.0474665537,0.0019137859,-117.0450134277,74.5443878174,49.8726501465,0.0248723626,0.0605262369,0.0225164890,15.7891464233,83.3734436035,127.3785247803,0.0255459547,0.0242485404,0.0238937140,48.5037422180,36.1909294128,114.1891250610,0.0714349747,-0.0186499357,-0.0118722320,
148.473,-3.2534267902,1.4064853191,17.2592544556,0.0587250218,0.0459932424,0.0131446123,-117.0277557373,74.5545654297,49.8980522156,0.0288259387,0.0594339669,0.0150430202,15.7871875763,83.3756637573,127.3863525391,0.0279918313,0.0252388716,0.0141617060,48.5060462952,36.1905097961,114.1991653442,0.0694758892,-0.0191630125,-0.0138037801,
148.483,-3.2546358109,1.4082099199,17.2597103119,0.0582668334,0.0382017568,0.0082632303,-117.0181427002,74.5607833862,49.9168853760,0.0298314095,0.0608262569,0.0056783557,15.7859115601,83.3747482300,127.3932647705,0.0279899836,0.0193777382,0.0283060670,48.5098724365,36.1899108887,114.2118453979,0.0640964508,-0.0113909245,-0.0132797956,
148.493,-3.2537806034,1.4107679129,17.2607822418,0.0553817749,0.0411164872,0.0053344369,-117.0019149780,74.5632629395,49.9409523010,0.0313077569,0.0559408814,0.0085216165,15.7801809311,83.3753051758,127.3980178833,0.0245731473,0.0193918645,0.0156179070,48.5079650879,36.1920928955,114.2184066772,0.0572911501,-0.0172156096,-0.0103548765,
148.503,-3.2531836033,1.4123735428,17.2617893219,0.0632222891,0.0401294976,0.0116816759,-116.9747009277,74.5602493286,49.9754791260,0.0342234373,0.0501842350,0.0089197755,15.7950134277,83.3775634766,127.4240264893,0.0270190835,0.0218141079,0.0122431517,48.5041465759,36.1912612915,114.2248458862,0.0675333738,-0.0225574374,-0.0050298572,
148.513,-3.2546169758,1.4135773182,17.2623271942,0.0578722022,0.0460138023,0.0058244467,-116.9287033081,74.5518569946,50.0281906128,0.0297899246,0.0484538227,0.0170930028,15.7951545715,83.3765792847,127.4338760376,0.0270171165,0.0247392654,0.0175996423,48.5021934509,36.1888275146,114.2328033447,0.0762881637,-0.0171868801,-0.0089733601,
148.523,-3.2529094219,1.4128758907,17.2623424530,0.0603013709,0.0484254807,0.0107051730,-116.8551864624,74.5333862305,50.1083564758,0.0282391310,0.0440016091,0.0198564529,15.8187103271,83.3760452271,127.4661712646,0.0333636999,0.0222489238,0.0215098858,48.4988403320,36.1935043335,114.2396469116,0.0577993393,-0.0239554048,-0.0075117350,
148.533,-3.2533113956,1.4121297598,17.2630023956,0.0563821010,0.0430614129,0.0141233802,-116.7613296509,74.5092086792,50.2073822021,0.0251968503,0.0411434323,0.0157410502,15.7987833023,83.3774642944,127.4550628662,0.0196946859,0.0169237554,0.0259170532,48.4976921082,36.1958580017,114.2473526001,0.0588091016,-0.0195319653,-0.0094609857,
148.543,-3.2525968552,1.4107751846,17.2636394501,0.0602647141,0.0450021178,0.0019147396,-116.6399154663,74.4814987183,50.3258552551,0.0289738178,0.0442548543,0.0208126307,15.8005151749,83.3799591064,127.4639434814,0.0187231302,0.0301155448,0.0161933899,48.4964256287,36.1921920776,114.2555923462,0.0709644556,-0.0156422257,-0.0070578456,
148.553,-3.2507932186,1.4116467237,17.2641983032,0.0568619594,0.0444823988,0.0048433542,-116.4739227295,74.4506454468,50.4802284241,0.0219936371,0.0416467041,0.0223000646,15.7680511475,83.3830642700,127.4389495850,0.0192176700,0.0184748471,0.0201317072,48.4980545044,36.1921386719,114.2654724121,0.0577800870,-0.0190758705,-0.0138771534,
148.563,-3.2506885529,1.4086043835,17.2641925812,0.0685276240,0.0449689254,0.0107012987,-116.2862854004,74.4176635742,50.6485481262,0.0242806077,0.0469275266,0.0124776959,15.7288913727,83.3860931396,127.4072036743,0.0304542184,0.0195424557,0.0235777497,48.4977416992,36.1908035278,114.2727813721,0.0606909990,-0.0210363269,-0.0099833012,
148.573,-3.2483761311,1.4061034918,17.2655296326,0.0601832047,0.0483466722,0.0038619637,-116.0746078491,74.3896713257,50.8376159668,0.0314734578,0.0575530976,0.0156957507,15.6945800781,83.3892364502,127.3790893555,0.0255777240,0.0210893452,0.0255638361,48.4954223633,36.1859092712,114.2782821655,0.0772235990,-0.0186110139,-0.0061348677,
148.583,-3.2492144108,1.4035289288,17.2673702240,0.0650210977,0.0415254086,0.0087440014,-115.8396072388,74.3617553711,51.0475425720,0.0313422084,0.0579702407,0.0192976594,15.6522245407,83.3939285278,127.3417663574,0.0216808915,0.0163112879,0.0158514977,48.4932556152,36.1806144714,114.2828063965,0.0747076273,-0.0137487054,-0.0091234446,
148.593,-3.2503168583,1.4043356180,17.2690811157,0.0596640781,0.0405680276,0.0106989145,-115.5854568481,74.3376464844,51.2771911621,0.0375763774,0.0676432252,0.0262027383,15.6485757828,83.3961563110,127.3435440063,0.0280330181,0.0270709097,0.0207690597,48.4962387085,36.1782722473,114.2906341553,0.0634441376,-0.0147712231,-0.0174087286,
148.603,-3.2528061867,1.4042665958,17.2695655823,0.0621042810,0.0381699800,-0.0000407100,-115.3341445923,74.3138809204,51.5087127686,0.0281869769,0.0646070093,0.0199284554,15.6396036148,83.3986511230,127.3389663696,0.0265731812,0.0202640891,0.0208051205,48.4995384216,36.1740646362,114.2991104126,0.0770567060,-0.0123932362,-0.0115436316,
148.613,-3.2532317638,1.4043818712,17.2713336945,0.0596648827,0.0430602022,0.0024011135,-115.0731887817,74.2898254395,51.7541961670,0.0256319642,0.0689147413,0.0194687247,15.6137361526,83.3987121582,127.3211364746,0.0236436129,0.0217798352,0.0286037922,48.5020523071,36.1688346863,114.3081436157,0.0750299096,-0.0109921098,-0.0076463223,
148.623,-3.2532229424,1.4054932594,17.2743473053,0.0567545891,0.0464779995,0.0126555562,-114.8181228638,74.2687454224,51.9964294434,0.0226026177,0.0668152422,0.0068007112,15.6056661606,83.4019470215,127.3208084106,0.0285329223,0.0315762758,0.0218169689,48.5060386658,36.1672897339,114.3186492920,0.0579183698,-0.0144591928,-0.0139625072,
148.633,-3.2517359257,1.4058130980,17.2749519348,0.0567601696,0.0454755202,0.0082597136,-114.5338821411,74.2480773926,52.2667617798,0.0259227157,0.0564620048,0.0223188400,15.5621547699,83.4048309326,127.2844924927,0.0231676102,0.0267920196,0.0276998281,48.5085449219,36.1642112732,114.3293533325,0.0627577305,-0.0125532746,-0.0168868303,
148.643,-3.2506301403,1.4049304724,17.2768001556,0.0591861755,0.0439914390,0.0116758943,-114.2069473267,74.2304611206,52.5764007568,0.0268157721,0.0603015274,0.0254175663,15.5224714279,83.4116134644,127.2527160645,0.0290405750,0.0225064158,0.0136297345,48.5106658936,36.1623802185,114.3387603760,0.0583374500,-0.0169816613,-0.0095526576,
148.653,-3.2507953644,1.4050261974,17.2785873413,0.0601644069,0.0459474400,0.0150946975,-113.8407440186,74.2117004395,52.9243354797,0.0345392227,0.0578788966,0.0229750872,15.4931716919,83.4154205322,127.2317352295,0.0290482044,0.0294170380,0.0180703998,48.5117835999,36.1559715271,114.3493576050,0.0753369927,-0.0155767798,-0.0090963244,
148.663,-3.2515647411,1.4054803848,17.2803421021,0.0587074906,0.0396131761,0.0092353225,-113.4234085083,74.1938247681,53.3264884949,0.0290831923,0.0574855804,0.0359194875,15.4530763626,83.4215011597,127.2021026611,0.0315017700,0.0197575390,0.0196130872,48.5099754333,36.1490554810,114.3575439453,0.0762160420,-0.0146365762,-0.0067209005,
148.673,-3.2522735596,1.4028067589,17.2821884155,0.0625670925,0.0401138663,-0.0083423853,-112.9794998169,74.1685867310,53.7590827942,0.0357990265,0.0587061942,0.0214418173,15.4291095734,83.4247207642,127.1880035400,0.0266253948,0.0222606063,0.0235596895,48.5092697144,36.1470375061,114.3675003052,0.0639806390,-0.0170868635,-0.0091835856,
148.683,-3.2529470921,1.4035089016,17.2845134735,0.0596496537,0.0401255786,-0.0039473176,-112.5101242065,74.1401443481,54.2200889587,0.0288275480,0.0580583811,0.0224844813,15.3938713074,83.4289016724,127.1607818604,0.0310282707,0.0203951299,0.0236083269,48.5102424622,36.1465072632,114.3780288696,0.0551840067,-0.0190533996,-0.0047829151,
148.693,-3.2529778481,1.4053410292,17.2862377167,0.0582167767,0.0464737341,0.0107020736,-112.0204238892,74.1099166870,54.6970748901,0.0208707452,0.0584369004,0.0151330829,15.3654623032,83.4333190918,127.1413726807,0.0242011547,0.0297485292,0.0265973806,48.5100173950,36.1475830078,114.3896102905,0.0488515496,-0.0195311308,-0.0052657127,
148.703,-3.2511305809,1.4060528278,17.2867946625,0.0596940368,0.0488829501,0.0087475777,-111.5065231323,74.0713653564,55.1941375732,0.0197097659,0.0443243980,0.0189392567,15.3178167343,83.4378280640,127.1045989990,0.0281164050,0.0249790549,0.0217625499,48.5133018494,36.1467170715,114.4010925293,0.0512807369,-0.0141974688,-0.0101197958,
148.713,-3.2485506535,1.4062826633,17.2886142731,0.0572566427,0.0449317396,0.0063036680,-110.9583435059,74.0346374512,55.7139472961,0.0292992592,0.0478041470,0.0162136555,15.2549009323,83.4454574585,127.0509109497,0.0217839479,0.0202533603,0.0247834325,48.5152320862,36.1396293640,114.4130249023,0.0643644333,-0.0176881552,-0.0077063441,
148.723,-3.2508728504,1.4032816887,17.2898502350,0.0640402213,0.0386246145,0.0033749342,-110.3716125488,73.9976272583,56.2647781372,0.0305862427,0.0513319671,0.0264790654,15.1817989349,83.4546127319,126.9869766235,0.0252201557,0.0189723372,0.0180596709,48.5169029236,36.1319427490,114.4241027832,0.0618147254,-0.0114153028,-0.0067649484,
148.733,-3.2518923283,1.4051669836,17.2903633118,0.0577254593,0.0474313945,0.0087476969,-109.7606964111,73.9544525146,56.8342552185,0.0313547850,0.0466733873,0.0127211809,15.1275825500,83.4639663696,126.9418716431,0.0262153149,0.0240021348,0.0157414675,48.5197257996,36.1256980896,114.4359130859,0.0690509081,-0.0197904706,-0.0082415938,
148.743,-3.2520859241,1.4049590826,17.2915096283,0.0630929247,0.0459699184,0.0102128386,-109.0931320190,73.9150772095,57.4520645142,0.0301880836,0.0522739887,0.0294193625,15.0422868729,83.4714736938,126.8656311035,0.0291599035,0.0198073685,0.0197277069,48.5200576782,36.1220664978,114.4466552734,0.0611872077,-0.0222630501,-0.0102165341,
148.753,-3.2521619797,1.4065290689,17.2919521332,0.0631203204,0.0464594848,0.0087488294,-108.4117584229,73.8727111816,58.0769195557,0.0377954245,0.0623081326,0.0084447265,14.9562711716,83.4778671265,126.7864151001,0.0311257243,0.0175616443,0.0256472230,48.5200080872,36.1117477417,114.4560317993,0.0727604628,-0.0135530233,-0.0014982820,
148.763,-3.2527148724,1.4071283340,17.2930812836,0.0582479611,0.0381683335,0.0146085620,-107.7252883911,73.8250961304,58.7093505859,0.0439118743,0.0587285161,0.0094177723,14.8838233948,83.4849395752,126.7219161987,0.0252803564,0.0187103450,0.0184021592,48.5211753845,36.1077728271,114.4643325806,0.0556145906,-0.0223836303,-0.0127434134,
148.773,-3.2526130676,1.4070274830,17.2924232483,0.0601993240,0.0450024940,0.0102145672,-107.0441360474,73.7755508423,59.3390808105,0.0353698730,0.0678328276,0.0079535246,14.8066816330,83.4921722412,126.6520156860,0.0272477865,0.0227980614,0.0204340219,48.5253982544,36.0976448059,114.4744949341,0.0740264654,-0.0063877106,-0.0059318542,
148.783,-3.2531402111,1.4065327644,17.2942008972,0.0621438175,0.0425702818,0.0121669769,-106.3647766113,73.7201385498,59.9685592651,0.0424234271,0.0662562847,0.0060063601,14.7137546539,83.4936752319,126.5668029785,0.0277390480,0.0239620805,0.0296896696,48.5289077759,36.0963096619,114.4854583740,0.0613122582,-0.0176612735,-0.0127397776,
148.793,-3.2526500225,1.4069566727,17.2952957153,0.0631277785,0.0440265760,0.0131440163,-105.6943130493,73.6625747681,60.5875244141,0.0406764746,0.0715060532,0.0084732771,14.6723346710,83.4986801147,126.5326461792,0.0214012861,0.0240642428,0.0204735398,48.5314025879,36.0943031311,114.4954986572,0.0637254119,-0.0167235732,-0.0127274394,
148.803,-3.2557854652,1.4081097841,17.2957210541,0.0602182113,0.0357803889,0.0067999363,-105.0170440674,73.5995407104,61.2110443115,0.0398781300,0.0641265213,0.0074812174,14.6277303696,83.5021209717,126.4974212646,0.0267791748,0.0163532794,0.0249022245,48.5345535278,36.0931510925,114.5059051514,0.0607795119,-0.0162734389,-0.0180723667,
148.813,-3.2555172443,1.4087719917,17.2974166870,0.0621828884,0.0411467962,0.0067995191,-104.3317489624,73.5340347290,61.8414840698,0.0376015902,0.0660404563,0.0098447204,14.6048955917,83.5037536621,126.4827041626,0.0302003622,0.0193340778,0.0263813138,48.5402259827,36.0921821594,114.5171432495,0.0661368966,-0.0168224573,-0.0194850564,
148.823,-3.2567799091,1.4074522257,17.2980270386,0.0626481473,0.0465399176,0.0121716261,-103.6282424927,73.4631958008,62.4913787842,0.0348089933,0.0636356175,0.0135703683,14.5992774963,83.5089721680,126.4873504639,0.0233747363,0.0281565189,0.0176756382,48.5411643982,36.0899581909,114.5262603760,0.0587813258,-0.0129418969,-0.0004462600,
148.833,-3.2576210499,1.4073023796,17.3004474640,0.0587392785,0.0436248779,0.0072892308,-102.8962631226,73.3903274536,63.1682548523,0.0329813957,0.0632131100,0.0176144242,14.5671415329,83.5103988647,126.4650268555,0.0297251940,0.0228540003,0.0254958272,48.5442237854,36.0877265930,114.5370254517,0.0646092296,-0.0110346079,-0.0150780082,
148.843,-3.2573056221,1.4080718756,17.3009624481,0.0592409857,0.0436193720,0.0014305115,-102.1467819214,73.3072586060,63.8552436829,0.0330542326,0.0595172346,0.0152202845,14.5309171677,83.5143814087,126.4384765625,0.0238736868,0.0278240442,0.0270075202,48.5464897156,36.0867576599,114.5493164063,0.0562947392,-0.0203405023,-0.0140838623,
148.853,-3.2567577362,1.4107948542,17.3020458221,0.0548939630,0.0421449132,0.0082666874,-101.4083328247,73.2149047852,64.5316314697,0.0404024720,0.0583633780,0.0011463761,14.4551763535,83.5209121704,126.3725357056,0.0204685926,0.0192096233,0.0251235962,48.5471992493,36.0851440430,114.5610504150,0.0577368736,-0.0208479166,-0.0145756602,
148.863,-3.2570097446,1.4098995924,17.3020153046,0.0607377216,0.0416610427,0.0038721561,-100.6617965698,73.1115722656,65.2147064209,0.0442746282,0.0578442812,0.0080136657,14.3791198730,83.5277938843,126.3074569702,0.0195055604,0.0213397443,0.0256891251,48.5458679199,36.0800743103,114.5711746216,0.0635247231,-0.0203860998,-0.0014403462,
148.873,-3.2557346821,1.4092941284,17.3037567139,0.0665865317,0.0489630662,0.0058236718,-99.9107742310,72.9990844727,65.9022064209,0.0456555486,0.0589037836,0.0148310661,14.3294181824,83.5353393555,126.2679824829,0.0302625895,0.0258623362,0.0135816932,48.5473022461,36.0719413757,114.5832519531,0.0731756091,-0.0155794024,-0.0127114654,
148.883,-3.2566730976,1.4099198580,17.3054809570,0.0602497943,0.0411668941,0.0092428923,-99.1736297607,72.8753967285,66.5762252808,0.0440455675,0.0639989376,0.0060670972,14.2800283432,83.5416870117,126.2296218872,0.0302750468,0.0211016536,0.0195205808,48.5467605591,36.0674095154,114.5928115845,0.0648109317,-0.0190271735,-0.0098178387,
148.893,-3.2553052902,1.4106004238,17.3077945709,0.0627030730,0.0426078998,0.0194953680,-98.4287567139,72.7378540039,67.2626266479,0.0443125367,0.0604971051,0.0040729046,14.2432737350,83.5430526733,126.2032394409,0.0283246040,0.0236200094,0.0283145905,48.5457572937,36.0703163147,114.6019210815,0.0536214709,-0.0263198018,-0.0151802301,
148.903,-3.2531745434,1.4096953869,17.3089370728,0.0656169727,0.0455004908,0.0121688843,-97.6873016357,72.5895080566,67.9532699585,0.0410996079,0.0590825677,0.0010770559,14.2138805389,83.5473937988,126.1818389893,0.0254034400,0.0232067108,0.0249537826,48.5468139648,36.0712165833,114.6111679077,0.0619348884,-0.0229046345,-0.0195571780,
148.913,-3.2538661957,1.4096649885,17.3094806671,0.0602453500,0.0420945734,0.0116813183,-96.9347534180,72.4323959351,68.6594924927,0.0407638550,0.0602169335,0.0038302541,14.1636581421,83.5542678833,126.1408538818,0.0239520669,0.0179612339,0.0167412758,48.5507621765,36.0648727417,114.6223449707,0.0755172968,-0.0146895647,-0.0151640773,
148.923,-3.2542335987,1.4146071672,17.3104572296,0.0534956381,0.0411242880,0.0063126683,-96.1942596436,72.2690582275,69.3561553955,0.0340401530,0.0672614574,0.0056069493,14.1347827911,83.5602035522,126.1198196411,0.0224988461,0.0263428390,0.0197566152,48.5528945923,36.0594749451,114.6331100464,0.0671404004,-0.0176807642,-0.0093188286,
148.933,-3.2555041313,1.4117698669,17.3098278046,0.0651648790,0.0382168032,0.0014300346,-95.4675445557,72.0978012085,70.0437088013,0.0326372981,0.0616875887,-0.0004171133,14.0726928711,83.5638580322,126.0644149780,0.0249474049,0.0235481262,0.0305287242,48.5560722351,36.0522079468,114.6437454224,0.0689910054,-0.0119069219,-0.0068932176,
148.943,-3.2559156418,1.4109373093,17.3109569550,0.0651503578,0.0431068055,0.0068011880,-94.7410125732,71.9148559570,70.7326126099,0.0399517417,0.0650515258,0.0105885863,13.9932117462,83.5730667114,125.9921493530,0.0313130617,0.0227628052,0.0194115639,48.5569953918,36.0428123474,114.6540756226,0.0732529163,-0.0154058933,-0.0054824352,
148.953,-3.2553431988,1.4122000933,17.3127155304,0.0578481741,0.0465147644,0.0038713813,-94.0320816040,71.7227020264,71.4065017700,0.0472060442,0.0641184747,0.0059959888,13.9197006226,83.5807571411,125.9258117676,0.0274218321,0.0244009197,0.0199918151,48.5597686768,36.0321578979,114.6636276245,0.0740790963,-0.0169786811,-0.0094318390,
148.963,-3.2528061867,1.4118679762,17.3145141602,0.0612603500,0.0469588600,0.0033804774,-93.3298110962,71.5179290771,72.0775222778,0.0534033775,0.0604166090,-0.0025364757,13.8315467834,83.5894088745,125.8437118530,0.0298801064,0.0197231174,0.0200926661,48.5621490479,36.0232887268,114.6726989746,0.0734656453,-0.0151160359,-0.0138613582,
148.973,-3.2518341541,1.4088158607,17.3176136017,0.0646250546,0.0435240380,0.0043543577,-92.6210861206,71.3025283813,72.7565612793,0.0507400632,0.0627036989,0.0044426918,13.7707014084,83.5934066772,125.7884826660,0.0293996334,0.0169267952,0.0201300383,48.5641670227,36.0226211548,114.6809768677,0.0558780432,-0.0229524970,-0.0079851151,
148.983,-3.2534136772,1.4075028896,17.3194026947,0.0626490265,0.0411101766,0.0063091516,-91.8868255615,71.0776443481,73.4700241089,0.0484979749,0.0704734921,0.0150981545,13.7066802979,83.5931091309,125.7301864624,0.0333052874,0.0107012391,0.0191189051,48.5616569519,36.0200653076,114.6863021851,0.0651193261,-0.0234370232,-0.0099822283,
148.993,-3.2530694008,1.4064004421,17.3211803436,0.0640946329,0.0435456149,0.0072844028,-91.1615905762,70.8428268433,74.1822662354,0.0452078581,0.0705381632,0.0174112320,13.6842355728,83.6009750366,125.7116470337,0.0294143558,0.0151706338,0.0104493499,48.5631332397,36.0188560486,114.6937561035,0.0714499950,-0.0190655589,-0.0109513998,
149.003,-3.2515466213,1.4057586193,17.3217315674,0.0621303134,0.0435191058,0.0043531656,-90.4632797241,70.5925369263,74.8830642700,0.0457184315,0.0698232055,0.0046473145,13.6609106064,83.6048355103,125.6914672852,0.0245390534,0.0201137662,0.0222208500,48.5615272522,36.0161170959,114.6982803345,0.0723878145,-0.0224896073,-0.0100103617,
149.013,-3.2546763420,1.4075022936,17.3210105896,0.0558130816,0.0401556082,0.0082632899,-89.8006362915,70.3336257935,75.5629730225,0.0417658687,0.0760317743,-0.0055664778,13.6684226990,83.6072616577,125.7037353516,0.0260086060,0.0313395262,0.0237290859,48.5636940002,36.0118064880,114.7059478760,0.0664675832,-0.0171718597,-0.0090400577,
149.023,-3.2556021214,1.4069191217,17.3191528320,0.0592208765,0.0416365936,0.0019164085,-89.1689758301,70.0657348633,76.2249145508,0.0470179915,0.0789204836,-0.0020242333,13.6221570969,83.6160354614,125.6606521606,0.0294436216,0.0177917778,0.0179936290,48.5685958862,36.0127868652,114.7152633667,0.0523212552,-0.0162335634,-0.0177705288,
149.033,-3.2542982101,1.4091455936,17.3203105927,0.0524237864,0.0425903872,0.0111932755,-88.5737686157,69.7854614258,76.8632202148,0.0448507071,0.0736665130,-0.0008042455,13.5761194229,83.6180038452,125.6171188354,0.0235880613,0.0213057399,0.0287459493,48.5713844299,36.0091209412,114.7232131958,0.0600820184,-0.0192174911,-0.0099533200,
149.043,-3.2554824352,1.4089728594,17.3220558167,0.0631629527,0.0445641465,0.0121710896,-88.0151214600,69.4926147461,77.4761886597,0.0489317179,0.0773660839,-0.0038556457,13.5195608139,83.6288604736,125.5647964478,0.0265387893,0.0234104991,0.0230396986,48.5759620667,36.0035629272,114.7328948975,0.0629332662,-0.0124670863,-0.0148255229,
149.053,-3.2549009323,1.4078834057,17.3244686127,0.0621673912,0.0421126373,0.0111930370,-87.4881439209,69.1895446777,78.0680465698,0.0504835248,0.0709417164,-0.0024151206,13.4349431992,83.6368331909,125.4831390381,0.0280190706,0.0250690281,0.0285038948,48.5769309998,35.9972534180,114.7406387329,0.0530784726,-0.0183840990,-0.0065572262,
149.063,-3.2571322918,1.4057596922,17.3244323730,0.0631068945,0.0367804654,0.0097297430,-86.9928741455,68.8792953491,78.6351318359,0.0514757633,0.0738780797,-0.0042882562,13.3272390366,83.6465835571,125.3776931763,0.0207136869,0.0214076638,0.0232473612,48.5770187378,35.9882087708,114.7471618652,0.0632047653,-0.0213841200,-0.0051528811,
149.073,-3.2588143349,1.4042969942,17.3237457275,0.0674759001,0.0451105833,0.0185198784,-86.5215301514,68.5623626709,79.1790771484,0.0563042164,0.0729841590,-0.0051239133,13.2466669083,83.6534957886,125.2982940674,0.0221918821,0.0230531394,0.0223465562,48.5792083740,35.9783096313,114.7545089722,0.0669711232,-0.0229455829,-0.0120328069,
149.083,-3.2611672878,1.4053738117,17.3248386383,0.0587056316,0.0383156128,0.0141282678,-86.0738296509,68.2388916016,79.7067871094,0.0595970750,0.0741193891,-0.0063847899,13.1677856445,83.6604537964,125.2210922241,0.0236701369,0.0237196386,0.0292651057,48.5820045471,35.9724006653,114.7611846924,0.0566338301,-0.0239936709,-0.0149729252,
149.093,-3.2601969242,1.4069654942,17.3270854950,0.0611748099,0.0392752253,0.0063153505,-85.6628723145,67.9077224731,80.2097930908,0.0603684187,0.0758442879,-0.0123754144,13.1322288513,83.6694564819,125.1854248047,0.0207577944,0.0296810269,0.0162109137,48.5889396667,35.9638710022,114.7679595947,0.0750679970,-0.0153349638,-0.0227698088,
149.103,-3.2619388103,1.4071303606,17.3275203705,0.0655722171,0.0407704115,0.0004574656,-85.2769470215,67.5695266724,80.7039260864,0.0639916658,0.0854719281,-0.0011939406,13.0697612762,83.6729888916,125.1217346191,0.0276005268,0.0166307092,0.0260103941,48.5928878784,35.9590148926,114.7724533081,0.0745111108,-0.0198037028,-0.0178779960,
149.113,-3.2623577118,1.4102733135,17.3267097473,0.0573262721,0.0432190411,0.0077837706,-84.9193420410,67.2191543579,81.1851043701,0.0606645346,0.0811149180,-0.0065109730,13.0390567780,83.6770782471,125.0906448364,0.0251669884,0.0181694925,0.0245980024,48.5931167603,35.9572143555,114.7768936157,0.0642317533,-0.0251908302,-0.0159351230,
149.123,-3.2627828121,1.4086579084,17.3279190063,0.0636457428,0.0451796092,0.0077835917,-84.5995788574,66.8631362915,81.6507873535,0.0606821775,0.0929498672,-0.0072501898,13.0113573074,83.6791915894,125.0616989136,0.0295655727,0.0201838613,0.0212048292,48.5920333862,35.9550476074,114.7785186768,0.0632245541,-0.0168964267,-0.0071713924,
149.133,-3.2594311237,1.4096468687,17.3290348053,0.0631747171,0.0519571379,0.0097339153,-84.3200912476,66.4958038330,82.0984191895,0.0581441522,0.0898243487,-0.0063249469,12.9952239990,83.6842803955,125.0451965332,0.0232276917,0.0187689364,0.0203037858,48.5928573608,35.9568290710,114.7813339233,0.0539724231,-0.0203086138,-0.0066635013,
149.143,-3.2615475655,1.4125432968,17.3319816589,0.0524830669,0.0412517488,0.0072953105,-84.0859298706,66.1199645996,82.5321044922,0.0550200939,0.0878120661,-0.0036843419,12.9880495071,83.6862640381,125.0361099243,0.0207901001,0.0261147022,0.0296126008,48.5954399109,35.9554786682,114.7860641479,0.0534650683,-0.0179015994,-0.0046913028,
149.153,-3.2629892826,1.4165174961,17.3323822021,0.0545055345,0.0417650416,0.0024159551,-83.9124145508,65.7403640747,82.9454498291,0.0532945395,0.0985716283,-0.0109165311,12.9500036240,83.6936264038,124.9968414307,0.0154331326,0.0257269144,0.0282531381,48.5966072083,35.9498329163,114.7922363281,0.0548501015,-0.0174676776,-0.0052058101,
149.163,-3.2620337009,1.4179471731,17.3335094452,0.0569718853,0.0437014848,-0.0014907122,-83.7979354858,65.3540573120,83.3349533081,0.0524567366,0.0918807387,-0.0114193559,12.8993854523,83.7045516968,124.9422836304,0.0183837414,0.0297709405,0.0152287483,48.5981292725,35.9415245056,114.7978820801,0.0586389899,-0.0116862655,-0.0037808418,
149.173,-3.2643294334,1.4175609350,17.3340530396,0.0594065525,0.0364172719,0.0136481524,-83.7127456665,64.9613876343,83.6999053955,0.0588548183,0.0672246218,-0.0068573952,12.8619937897,83.7147750854,124.9017486572,0.0242626667,0.0269508064,0.0241702795,48.6012725830,35.9346847534,114.8045196533,0.0644016862,-0.0215338469,-0.0116063952,
149.183,-3.2653796673,1.4174188375,17.3351631165,0.0628220439,0.0408300981,0.0092546344,-83.6202545166,64.5648345947,84.0411682129,0.0681109428,0.0543193221,0.0029984117,12.7781820297,83.7223281860,124.8144454956,0.0272067785,0.0134664178,0.0193771720,48.6030578613,35.9227905273,114.8082580566,0.0823000073,-0.0143176913,-0.0136213303,
149.193,-3.2643587589,1.4151295424,17.3363609314,0.0662000626,0.0437420532,0.0126707554,-83.5144729614,64.1713943481,84.3580245972,0.0670935512,0.0608617961,0.0000461936,12.7332830429,83.7289581299,124.7646789551,0.0247780085,0.0199240148,0.0175148249,48.6072921753,35.9208221436,114.8111267090,0.0607878566,-0.0187669396,-0.0204254985,
149.203,-3.2668707371,1.4109224081,17.3388576508,0.0666149408,0.0398796648,0.0097416639,-83.3941268921,63.7805366516,84.6635665894,0.0645887852,0.0692800283,0.0081973672,12.7005434036,83.7339630127,124.7270736694,0.0252758265,0.0214695036,0.0175836682,48.6096191406,35.9189872742,114.8135910034,0.0588087440,-0.0217324495,-0.0106475353,
149.213,-3.2660808563,1.4097192287,17.3388175964,0.0621994212,0.0408425033,0.0146233439,-83.2950592041,63.3910827637,84.9431304932,0.0669361353,0.0752292275,-0.0025492907,12.6537876129,83.7398147583,124.6748809814,0.0252869725,0.0196265578,0.0181486607,48.6138839722,35.9125061035,114.8168106079,0.0743420720,-0.0164510012,-0.0140642524,
149.223,-3.2658383846,1.4082093239,17.3400154114,0.0631496310,0.0432797186,0.0043680668,-83.2290115356,63.0002822876,85.1968688965,0.0638603568,0.0792534351,-0.0111038685,12.6196479797,83.7427291870,124.6346588135,0.0248042345,0.0221433043,0.0289245248,48.6170387268,35.9074401855,114.8197631836,0.0669462681,-0.0150545835,-0.0077173710,
149.233,-3.2647905350,1.4089635611,17.3399410248,0.0592565462,0.0461911373,0.0038793683,-83.1862182617,62.6103515625,85.4346008301,0.0602617860,0.0793575644,-0.0043459535,12.5717105865,83.7503128052,124.5806503296,0.0253069401,0.0198206007,0.0187763572,48.6216163635,35.9008522034,114.8224945068,0.0746657252,-0.0141713023,-0.0086897016,
149.243,-3.2656500340,1.4087889194,17.3404655457,0.0607183427,0.0393701792,0.0107161403,-83.1555099487,62.2208824158,85.6606216431,0.0566259027,0.0765140653,0.0064104795,12.5269374847,83.7541122437,124.5291213989,0.0209196210,0.0238253474,0.0295625329,48.6258583069,35.8981742859,114.8250122070,0.0594910979,-0.0186260939,-0.0081745386,
149.253,-3.2650444508,1.4069427252,17.3434791565,0.0645923764,0.0422893614,0.0019257665,-83.1322402954,61.8323669434,85.8751068115,0.0534452796,0.0731526613,-0.0032815933,12.4804296494,83.7609634399,124.4746170044,0.0219091773,0.0224737823,0.0213577151,48.6308746338,35.8918151855,114.8297195435,0.0706316829,-0.0118858218,-0.0159768462,
149.263,-3.2633688450,1.4053142071,17.3459186554,0.0616342798,0.0417719260,0.0033878088,-83.1006698608,61.4491729736,86.0925979614,0.0507567525,0.0750516355,0.0025895834,12.4278182983,83.7676925659,124.4139480591,0.0263164639,0.0265034139,0.0224215984,48.6316871643,35.8887939453,114.8319473267,0.0510576963,-0.0124049187,-0.0081766248,
149.273,-3.2620444298,1.4064035416,17.3470706940,0.0562821925,0.0427253991,0.0068056583,-83.0536651611,61.0628433228,86.3113021851,0.0523970127,0.0642647743,0.0024623871,12.3401308060,83.7789230347,124.3177108765,0.0263377428,0.0184089541,0.0181788206,48.6343460083,35.8829536438,114.8341445923,0.0617172718,-0.0154043436,-0.0076994896,
149.283,-3.2621042728,1.4069565535,17.3475875854,0.0601980910,0.0422381423,0.0072933435,-82.9865570068,60.6756324768,86.5302734375,0.0559431314,0.0646774173,0.0133864284,12.2855272293,83.7857360840,124.2574310303,0.0224443674,0.0268371999,0.0241293311,48.6370239258,35.8735504150,114.8379745483,0.0703734159,-0.0223373175,-0.0121286511,
149.293,-3.2634105682,1.4074362516,17.3468723297,0.0602064580,0.0422608852,0.0072954893,-82.9177398682,60.2915649414,86.7448043823,0.0580117106,0.0821064711,0.0120837688,12.2023296356,83.7944488525,124.1682128906,0.0253905058,0.0167710483,0.0198456645,48.6436691284,35.8650131226,114.8438186646,0.0697643757,-0.0156290531,-0.0145571828,
149.303,-3.2623231411,1.4070856571,17.3467884064,0.0631300360,0.0441950820,0.0043644309,-82.8649215698,59.9072227478,86.9517211914,0.0595505834,0.0863492489,0.0065138936,12.1532573700,83.8037490845,124.1128463745,0.0195486546,0.0271502435,0.0160733461,48.6490440369,35.8583068848,114.8490066528,0.0667397976,-0.0186605453,-0.0091748238,
149.313,-3.2628254890,1.4067665339,17.3467464447,0.0587299280,0.0407858714,0.0038766265,-82.8179931641,59.5257835388,87.1565017700,0.0566817522,0.0788124800,0.0092945099,12.0915994644,83.8130264282,124.0474700928,0.0307965875,0.0229045153,0.0152266622,48.6513061523,35.8521842957,114.8526306152,0.0612820983,-0.0236113667,-0.0116328001,
149.323,-3.2631406784,1.4085943699,17.3459510803,0.0597383827,0.0393264629,0.0063190460,-82.7712707520,59.1530075073,87.3522033691,0.0518990159,0.0711241961,0.0052499771,12.0310287476,83.8185729980,123.9832229614,0.0273890495,0.0220611095,0.0299431682,48.6580429077,35.8453407288,114.8593215942,0.0680211782,-0.0149380565,-0.0150266290,
149.333,-3.2627313137,1.4059475660,17.3477401733,0.0670164227,0.0417608060,-0.0010068417,-82.7136230469,58.7860488892,87.5405502319,0.0476208925,0.0628253818,0.0030661821,11.9641532898,83.8291778564,123.9127120972,0.0230144262,0.0227120221,0.0227689147,48.6620788574,35.8318519592,114.8659896851,0.0727131963,-0.0121493340,-0.0014020801,
149.343,-3.2640540600,1.4074429274,17.3488140106,0.0572768860,0.0354361609,0.0155967474,-82.6391677856,58.4235916138,87.7192230225,0.0536027551,0.0500233173,0.0051245689,11.8949928284,83.8367462158,123.8385086060,0.0210754871,0.0257976055,0.0311685801,48.6657600403,35.8265991211,114.8717956543,0.0535959005,-0.0229662657,-0.0150703788,
149.353,-3.2610497475,1.4094715118,17.3511638641,0.0573122799,0.0485673696,-0.0000307560,-82.5373764038,58.0698966980,87.8955535889,0.0532837510,0.0536379814,0.0084031224,11.7952327728,83.8452758789,123.7341995239,0.0284156799,0.0284549892,0.0293182731,48.6732521057,35.8171463013,114.8807449341,0.0573683381,-0.0167611241,-0.0135897994,
149.363,-3.2610239983,1.4097517729,17.3504524231,0.0607351363,0.0427075326,0.0024114847,-82.4107208252,57.7244186401,88.0692672729,0.0544738770,0.0653789639,0.0114517808,11.6916809082,83.8535614014,123.6274948120,0.0250132084,0.0237939954,0.0264862776,48.6793861389,35.8011703491,114.8860702515,0.0791148543,-0.0130347610,-0.0111907125,
149.373,-3.2611422539,1.4093840122,17.3509540558,0.0636584163,0.0397799239,0.0136410594,-82.2693405151,57.3861541748,88.2422790527,0.0537479520,0.0706239343,0.0031272769,11.5889654160,83.8618240356,123.5228042603,0.0279583335,0.0245020986,0.0300029516,48.6845321655,35.7893714905,114.8922958374,0.0706470609,-0.0156145692,-0.0151214600,
149.383,-3.2591435909,1.4070513248,17.3521575928,0.0660591200,0.0451162495,0.0053378344,-82.1190490723,57.0465774536,88.4137115479,0.0559099317,0.0690148473,0.0088558197,11.4954967499,83.8722763062,123.4244384766,0.0299309492,0.0232464671,0.0203737617,48.6902236938,35.7806320190,114.8996505737,0.0680819750,-0.0225707889,-0.0141436458,
149.393,-3.2582123280,1.4076052904,17.3520374298,0.0621625334,0.0436351709,0.0058251619,-81.9706115723,56.7064590454,88.5793609619,0.0580372214,0.0781321526,0.0101833940,11.4461545944,83.8780746460,123.3692169189,0.0304300189,0.0316588879,0.0253364444,48.6959342957,35.7677192688,114.9059219360,0.0761998892,-0.0095394850,-0.0127046704,
149.403,-3.2567260265,1.4062566757,17.3526134491,0.0670218170,0.0519100949,0.0111943483,-81.8359909058,56.3750152588,88.7333984375,0.0592423677,0.0822347999,-0.0010563135,11.3329591751,83.8867568970,123.2541198730,0.0284930468,0.0206677914,0.0229969025,48.6986846924,35.7564239502,114.9122314453,0.0706688166,-0.0174642801,-0.0103099942,
149.413,-3.2571997643,1.4066619873,17.3531455994,0.0606812313,0.0450824052,0.0063122511,-81.7115402222,56.0403976440,88.8804168701,0.0589238405,0.0795367956,0.0053541064,11.2367362976,83.8997955322,123.1547775269,0.0309586525,0.0213780403,0.0153664351,48.7052841187,35.7472343445,114.9196166992,0.0597964525,-0.0185729861,-0.0186027884,
149.423,-3.2588303089,1.4072322845,17.3548812866,0.0582497753,0.0387631394,0.0077792406,-81.6149063110,55.7125930786,89.0161819458,0.0635268688,0.0943357348,-0.0128703713,11.1297273636,83.9071197510,123.0458374023,0.0275542736,0.0240418911,0.0310743451,48.7081031799,35.7399787903,114.9266815186,0.0552991629,-0.0191429853,-0.0029957891,
149.433,-3.2600424290,1.4086066484,17.3552913666,0.0592503175,0.0319482796,0.0009442568,-81.5345687866,55.3834724426,89.1497421265,0.0597889423,0.0837646723,-0.0006776452,11.0785884857,83.9148788452,122.9915618896,0.0212209821,0.0251385868,0.0243495107,48.7123260498,35.7348022461,114.9332504272,0.0557140708,-0.0197106004,-0.0093345046,
149.443,-3.2601585388,1.4086928368,17.3583641052,0.0558338538,0.0461104624,0.0053396821,-81.4605407715,55.0551185608,89.2721557617,0.0662854910,0.0751233697,-0.0055201650,11.0181121826,83.9245834351,122.9273223877,0.0275865793,0.0262585282,0.0137469172,48.7134628296,35.7292747498,114.9373092651,0.0644248128,-0.0285524726,-0.0152180791,
149.453,-3.2608332634,1.4105134010,17.3607082367,0.0539124943,0.0378213823,0.0048528314,-81.3878936768,54.7299461365,89.3870162964,0.0659512281,0.0835078955,-0.0015622377,10.9344081879,83.9324645996,122.8386764526,0.0241831541,0.0230207443,0.0280089378,48.7127265930,35.7188072205,114.9392471313,0.0701358914,-0.0159305334,0.0027697086,
149.463,-3.2578201294,1.4097520113,17.3624649048,0.0646413937,0.0465579815,-0.0029630065,-81.3083496094,54.4094009399,89.5001983643,0.0578251481,0.0708000660,-0.0059731603,10.8489246368,83.9432678223,122.7489013672,0.0266444683,0.0207715034,0.0183920264,48.7170677185,35.7153778076,114.9441375732,0.0520209074,-0.0179504156,-0.0138083100,
149.473,-3.2601807117,1.4095015526,17.3648204803,0.0592659339,0.0339037888,0.0126638412,-81.2162704468,54.0940551758,89.6104354858,0.0594925284,0.0779986382,0.0065800548,10.7652873993,83.9546966553,122.6598358154,0.0276420712,0.0185206831,0.0136709809,48.7185287476,35.7059555054,114.9487991333,0.0714186430,-0.0136417150,-0.0050675273,
149.483,-3.2586166859,1.4075558186,17.3654041290,0.0646030754,0.0436422192,0.0058259368,-81.1206054688,53.7829666138,89.7085571289,0.0606909394,0.0758336782,0.0015169978,10.7068071365,83.9626464844,122.5956192017,0.0261918306,0.0298838615,0.0215955377,48.7219696045,35.6982994080,114.9541931152,0.0644741654,-0.0186152458,-0.0080113411,
149.493,-3.2592308521,1.4084846973,17.3653240204,0.0587599054,0.0446294583,0.0072916150,-81.0214691162,53.4735832214,89.8051452637,0.0609067082,0.0716651082,0.0027583241,10.6272497177,83.9688873291,122.5116729736,0.0257149935,0.0217493176,0.0197213292,48.7265663147,35.6937255859,114.9604110718,0.0663624406,-0.0211346745,-0.0138526559,
149.503,-3.2601988316,1.4095265865,17.3675994873,0.0631726161,0.0431814492,0.0082696080,-80.9274902344,53.1632156372,89.8980941772,0.0615770817,0.0850757360,0.0030621886,10.5749368668,83.9747772217,122.4533843994,0.0262140632,0.0208867788,0.0241931677,48.7337799072,35.6865539551,114.9659423828,0.0662608147,-0.0153976083,-0.0118708611,
149.513,-3.2586054802,1.4101046324,17.3699588776,0.0626944229,0.0499896146,0.0092444420,-80.8502578735,52.8541450500,89.9927062988,0.0593079329,0.0857803822,0.0025555491,10.5218153000,83.9795608521,122.3934860229,0.0335470438,0.0185581744,0.0237695575,48.7354316711,35.6783256531,114.9680023193,0.0763980746,-0.0149877071,-0.0089788437,
149.523,-3.2591621876,1.4098826647,17.3717269897,0.0587842986,0.0382805727,0.0048511028,-80.7970428467,52.5505714417,90.0869598389,0.0585387945,0.0932661891,0.0062111020,10.4618005753,83.9826812744,122.3293914795,0.0247637033,0.0206305087,0.0277037024,48.7367973328,35.6777496338,114.9700012207,0.0539289713,-0.0164697766,-0.0055500865,
149.533,-3.2596735954,1.4067142010,17.3735027313,0.0714243352,0.0426840857,0.0092438459,-80.7694320679,52.2540435791,90.1836318970,0.0622171760,0.0962873101,-0.0025480986,10.4406948090,83.9850311279,122.3012771606,0.0281859636,0.0275130272,0.0238336921,48.7411880493,35.6755523682,114.9730834961,0.0665930510,-0.0165277719,-0.0118662119,
149.543,-3.2614119053,1.4071187973,17.3752593994,0.0587360747,0.0427143611,0.0048519969,-80.7577514648,51.9607658386,90.2874221802,0.0610265136,0.0880446434,0.0123051405,10.3965330124,83.9918746948,122.2523880005,0.0174562931,0.0241964459,0.0258823037,48.7453117371,35.6707534790,114.9755706787,0.0665250421,-0.0141615272,-0.0103891492,
