Time(sec),Gyr1_X(deg/sec),Gyr1_Y(deg/sec),Gyr1_Z(deg/sec),Acc1_X(m/s^2),Acc1_Y(m/s^2),Acc1_Z(m/s^2),Gyr2_X(deg/sec),Gyr2_Y(deg/sec),Gyr2_Z(deg/sec),Acc2_X(m/s^2),Acc2_Y(m/s^2),Acc2_Z(m/s^2),Gyr_X(deg/sec),Gyr_Y(deg/sec),Gyr_Z(deg/sec),Acc_X(m/s^2),Acc_Y(m/s^2),Acc_Z(m/s^2),Gyr_X(deg/sec),Gyr_Y(deg/sec),Gyr_Z(deg/sec),Acc_X(m/s^2),Acc_Y(m/s^2),Acc_Z(m/s^2),
235.553,-3.2697215080,1.3619042635,27.3332633972,0.0545291975,0.0457898900,0.0033761859,-111.9232711792,74.1680450439,72.2747268677,0.0235894322,0.0923768282,0.0094547868,10.5888319016,83.7449874878,-164.2643890381,0.0257850885,0.0269797184,0.0149891376,48.8854942322,35.4025421143,-175.8591461182,0.0578329563,-0.0136138201,-0.0209361315,
235.563,-3.2706716061,1.3556958437,27.3371467590,0.0632099286,0.0409237631,0.0111870766,-111.9184799194,74.1557159424,72.3107070923,0.0284135342,0.0842752159,0.0168349147,10.5784158707,83.7527618408,-164.2509307861,0.0253115892,0.0206764191,0.0185350180,48.8741073608,35.4044075012,-175.8503265381,0.0539532304,-0.0276531577,-0.0078617930,
235.573,-3.2696285248,1.3503519297,27.3378944397,0.0679994971,0.0482299402,0.0072776079,-111.9192733765,74.1437911987,72.3545303345,0.0278683901,0.0761592686,0.0198424459,10.5694389343,83.7590103149,-164.2373809814,0.0189757943,0.0241307318,0.0186350942,48.8635292053,35.4043502808,-175.8399963379,0.0607883930,-0.0256014466,-0.0089521408,
235.583,-3.2702834606,1.3453614712,27.3378543854,0.0732835159,0.0379875638,0.0116708279,-111.9230957031,74.1350708008,72.3974456787,0.0317330360,0.0543143749,0.0047772527,10.5679740906,83.7696990967,-164.2193145752,0.0194843411,0.0187956877,0.0075822473,48.8580818176,35.4021072388,-175.8266296387,0.0729635358,-0.0236143470,-0.0056074262,
235.593,-3.2704493999,1.3435071707,27.3395423889,0.0712980330,0.0438498668,0.0131350756,-111.9267959595,74.1309509277,72.4283447266,0.0390375853,0.0431414843,0.0028663278,10.5133142471,83.7782974243,-164.2556610107,0.0195006132,0.0164847523,0.0033131242,48.8515434265,35.3985824585,-175.8178863525,0.0734016895,-0.0328572989,-0.0027712584,
235.603,-3.2689106464,1.3418799639,27.3399639130,0.0722462088,0.0413816981,0.0097148418,-111.9322586060,74.1341857910,72.4435806274,0.0424709916,0.0391756892,0.0009171963,10.4646940231,83.7823638916,-164.2944183350,0.0204848647,0.0141480789,0.0058060288,48.8477058411,35.4036788940,-175.8131866455,0.0441772938,-0.0366888642,-0.0032668114,
235.613,-3.2699275017,1.3412257433,27.3409519196,0.0712582320,0.0409111492,0.0131335258,-111.9302139282,74.1452255249,72.4481124878,0.0439885259,0.0429139733,0.0037686825,10.4183835983,83.7810668945,-164.3356323242,0.0229238272,0.0122784004,0.0111379027,48.8454704285,35.4047088623,-175.8099517822,0.0588403940,-0.0288475752,0.0035520792,
235.623,-3.2690317631,1.3441301584,27.3406639099,0.0649612546,0.0477314107,0.0136221647,-111.9341201782,74.1627502441,72.4319152832,0.0450485945,0.0519121289,0.0066064000,10.4028491974,83.7745208740,-164.3502655029,0.0258411169,0.0147290304,0.0198114514,48.8503646851,35.4053344727,-175.8057098389,0.0642203689,-0.0196112394,-0.0105514526,
235.633,-3.2667043209,1.3486454487,27.3422298431,0.0572275333,0.0462259203,0.0053209662,-111.9390411377,74.1827468872,72.4064331055,0.0392844081,0.0574521124,0.0094328523,10.4216184616,83.7656402588,-164.3331146240,0.0302188396,0.0215022303,0.0328539610,48.8528327942,35.4058494568,-175.8027343750,0.0754581094,-0.0176773667,-0.0095450282,
235.643,-3.2641246319,1.3525167704,27.3432979584,0.0529005527,0.0471574515,0.0038551688,-111.9721450806,74.2032623291,72.3548660278,0.0325459838,0.0687934160,-0.0027559400,10.4448957443,83.7574386597,-164.3115997314,0.0302032828,0.0248506516,0.0263767838,48.8583221436,35.4027328491,-175.7980346680,0.0793200731,-0.0040805936,-0.0085304379,
235.653,-3.2638075352,1.3571474552,27.3443984985,0.0480985418,0.0456869788,0.0028797388,-111.9956054688,74.2194137573,72.3187789917,0.0375055075,0.0714305341,0.0099417567,10.4844551086,83.7491226196,-164.2695770264,0.0282343626,0.0306092687,0.0379712582,48.8655624390,35.4052925110,-175.7898864746,0.0642197728,-0.0090116858,-0.0245491266,
235.663,-3.2623958588,1.3606767654,27.3460979462,0.0520663708,0.0451740250,0.0033682585,-112.0204925537,74.2270965576,72.2898788452,0.0336357355,0.0746855736,0.0134214163,10.5200109482,83.7420043945,-164.2304077148,0.0272442698,0.0310078561,0.0344470143,48.8690757751,35.4052314758,-175.7807617188,0.0676369071,-0.0085567832,-0.0142580271,
235.673,-3.2623817921,1.3606899977,27.3472633362,0.0579259768,0.0402909592,0.0072747469,-112.0494689941,74.2280731201,72.2650375366,0.0292458534,0.0682703257,0.0081720948,10.5526180267,83.7398147583,-164.1898803711,0.0277283788,0.0284974985,0.0285624266,48.8716201782,35.4065437317,-175.7725830078,0.0637493134,-0.0134534836,-0.0195931196,
235.683,-3.2607226372,1.3605345488,27.3491573334,0.0545052961,0.0480745621,0.0121558905,-112.0810928345,74.2213745117,72.2448730469,0.0267726183,0.0668534636,0.0020062923,10.5664672852,83.7404708862,-164.1638946533,0.0296827555,0.0274966322,0.0261371136,48.8729476929,35.4086036682,-175.7622680664,0.0613371730,-0.0144267082,-0.0171235800,
235.693,-3.2601537704,1.3611270189,27.3510208130,0.0540273488,0.0485529229,0.0121555924,-112.0897674561,74.2103958130,72.2492904663,0.0316033363,0.0626131296,0.0143206716,10.5745820999,83.7439498901,-164.1453399658,0.0243182778,0.0211442448,0.0203379393,48.8706550598,35.4077415466,-175.7529754639,0.0715788603,-0.0124587417,-0.0122710466,
235.703,-3.2612972260,1.3591144085,27.3511161804,0.0559453629,0.0407603867,-0.0010281205,-112.0983047485,74.2000198364,72.2546615601,0.0335071683,0.0686184764,0.0075877309,10.5719127655,83.7439193726,-164.1340179443,0.0321307182,0.0265203081,0.0291253924,48.8719520569,35.4066886902,-175.7409515381,0.0657044649,-0.0071077943,-0.0117760897,
235.713,-3.2614433765,1.3584672213,27.3523235321,0.0603285991,0.0461340398,0.0097140670,-112.0981140137,74.1918029785,72.2656707764,0.0339564085,0.0672817826,0.0110564828,10.5849189758,83.7478713989,-164.1074981689,0.0262788534,0.0216250606,0.0199186206,48.8697509766,35.4087600708,-175.7316741943,0.0569448471,-0.0197667480,-0.0093444586,
235.723,-3.2595853806,1.3555889130,27.3548126221,0.0641846284,0.0465900227,0.0116643310,-112.0953598022,74.1834487915,72.2766571045,0.0319635272,0.0644864440,0.0023079515,10.5740766525,83.7520065308,-164.1055297852,0.0267750025,0.0206819586,0.0126593113,48.8683738708,35.4118461609,-175.7232818604,0.0550357103,-0.0143591762,-0.0151978731,
235.733,-3.2591118813,1.3530805111,27.3578491211,0.0651174188,0.0416990258,0.0106863379,-112.0707702637,74.1788482666,72.3062744141,0.0319416523,0.0655781627,0.0149233341,10.5611362457,83.7558059692,-164.1056518555,0.0253173709,0.0221835189,0.0136965513,48.8668708801,35.4104080200,-175.7144012451,0.0667339563,-0.0202155113,-0.0147352815,
235.743,-3.2577099800,1.3507952690,27.3601989746,0.0704486445,0.0450926200,0.0058007240,-112.0605773926,74.1802520752,72.3226013184,0.0319483280,0.0660634637,0.0109632015,10.5652351379,83.7588272095,-164.0900268555,0.0214168429,0.0246265158,0.0181427598,48.8668365479,35.4110603333,-175.7035827637,0.0638135076,-0.0236282945,-0.0161968470,
235.753,-3.2556817532,1.3500542641,27.3619613647,0.0631114990,0.0450573042,0.0145881176,-112.0591506958,74.1802215576,72.3322067261,0.0348778367,0.0646017194,0.0036329031,10.5519828796,83.7627182007,-164.0916900635,0.0228890777,0.0217340961,0.0162498951,48.8618316650,35.4078712463,-175.6953125000,0.0686509609,-0.0196993351,-0.0006462336,
235.763,-3.2550394535,1.3465247154,27.3644218445,0.0684210062,0.0445579179,0.0067726374,-112.0414886475,74.1846160889,72.3563003540,0.0363636017,0.0591938198,0.0157341361,10.5279941559,83.7648544312,-164.1083526611,0.0258228183,0.0212978981,0.0206710696,48.8589172363,35.4057731628,-175.6890258789,0.0656914115,-0.0240825415,-0.0055741072,
235.773,-3.2551813126,1.3462812901,27.3649234772,0.0630456656,0.0440721177,0.0087266564,-112.0341873169,74.1888732910,72.3690948486,0.0368721485,0.0586523116,0.0142101645,10.5108146667,83.7639465332,-164.1157073975,0.0243562460,0.0203511789,0.0133260489,48.8572578430,35.4070091248,-175.6827239990,0.0564317107,-0.0284520984,-0.0094898939,
235.783,-3.2575745583,1.3460979462,27.3641643524,0.0645073056,0.0406958386,0.0028691292,-112.0367279053,74.1921768188,72.3726501465,0.0388409495,0.0571319461,0.0093179345,10.4879570007,83.7656707764,-164.1323547363,0.0233829618,0.0174700692,0.0182286501,48.8583297729,35.4037094116,-175.6747436523,0.0729863644,-0.0143271089,-0.0031526685,
235.793,-3.2554543018,1.3462514877,27.3640708923,0.0635334253,0.0499362461,0.0048203468,-112.0469512939,74.1958465576,72.3643417358,0.0369052887,0.0599865317,0.0034806728,10.4885549545,83.7645721436,-164.1262207031,0.0258222818,0.0233251713,0.0230949521,48.8584098816,35.4037094116,-175.6694641113,0.0641972423,-0.0206755400,-0.0119408369,
235.803,-3.2566189766,1.3475121260,27.3657188416,0.0620905757,0.0426322967,0.0028688908,-112.0595626831,74.2009506226,72.3520050049,0.0344881415,0.0633026659,0.0078989267,10.4857492447,83.7635955811,-164.1229400635,0.0267969966,0.0243040100,0.0230774879,48.8598861694,35.4016838074,-175.6616058350,0.0734457970,-0.0177750587,-0.0153564811,
235.813,-3.2538857460,1.3475995064,27.3650779724,0.0572092868,0.0435612388,0.0043311119,-112.0671691895,74.2056198120,72.3461380005,0.0403696895,0.0671226680,0.0093680620,10.5202312469,83.7635955811,-164.0853881836,0.0277735591,0.0217970125,0.0133229494,48.8609237671,35.4010658264,-175.6553344727,0.0685541630,-0.0124185085,-0.0099789500,
235.823,-3.2538599968,1.3479988575,27.3661880493,0.0606342256,0.0425842181,0.0009132624,-112.0835342407,74.2086181641,72.3282318115,0.0345245600,0.0606994033,0.0045386553,10.5412979126,83.7586059570,-164.0581054688,0.0272758007,0.0251596607,0.0259436965,48.8607063293,35.3990898132,-175.6490783691,0.0724322796,-0.0143844485,-0.0051106811,
235.833,-3.2530684471,1.3509827852,27.3666629791,0.0538503528,0.0430586301,0.0077495575,-112.0923919678,74.2129745483,72.3190078735,0.0301507115,0.0694046617,0.0113865137,10.5608310699,83.7558364868,-164.0294189453,0.0258057117,0.0265787616,0.0273689628,48.8619155884,35.4019279480,-175.6403045654,0.0558711290,-0.0163274407,-0.0128923059,
235.843,-3.2530181408,1.3496721983,27.3697471619,0.0587102957,0.0445226282,0.0092139840,-112.0910873413,74.2133483887,72.3224258423,0.0311290622,0.0650073290,0.0172376633,10.5789680481,83.7532043457,-164.0032958984,0.0258007050,0.0255594142,0.0292838812,48.8636894226,35.4042243958,-175.6321563721,0.0632280111,-0.0173029900,-0.0157867670,
235.853,-3.2535970211,1.3518840075,27.3702526093,0.0543543547,0.0425795428,0.0057970881,-112.1034088135,74.2129592896,72.3103103638,0.0335686207,0.0708501637,0.0031344295,10.5795583725,83.7509078979,-163.9922637939,0.0214018226,0.0240862966,0.0297340751,48.8657035828,35.4029083252,-175.6229248047,0.0685803890,-0.0144023895,-0.0108920336,
235.863,-3.2537481785,1.3527870178,27.3702507019,0.0543701127,0.0484415293,0.0004272461,-112.1039352417,74.2120895386,72.3118362427,0.0364941955,0.0733044744,0.0124193430,10.5990114212,83.7506027222,-163.9655609131,0.0238426328,0.0264897309,0.0175286531,48.8680763245,35.4005775452,-175.6134490967,0.0739183426,-0.0120006800,-0.0167404413,
235.873,-3.2533996105,1.3530312777,27.3709087372,0.0529095307,0.0435526408,0.0140979886,-112.1081237793,74.2108993530,72.3111343384,0.0325822830,0.0703852773,0.0056095123,10.5860557556,83.7507553101,-163.9668884277,0.0253077745,0.0240734182,0.0282686949,48.8651733398,35.4013710022,-175.6078338623,0.0573280454,-0.0188036561,-0.0094431639,
235.883,-3.2530307770,1.3514281511,27.3716049194,0.0548346862,0.0415931307,0.0053086877,-112.0981826782,74.2098693848,72.3248672485,0.0286711454,0.0670011938,0.0158260465,10.5710821152,83.7529525757,-163.9720306396,0.0267767906,0.0192258880,0.0195107460,48.8635787964,35.4022407532,-175.6003417969,0.0597818494,-0.0163405538,-0.0153128505,
235.893,-3.2530746460,1.3477098942,27.3741817474,0.0606291816,0.0420822538,0.0101894736,-112.0884704590,74.2095870972,72.3403015137,0.0315994620,0.0631168187,0.0143201351,10.5609321594,83.7548370361,-163.9712066650,0.0292217731,0.0236454532,0.0219792724,48.8574943542,35.4011116028,-175.5951538086,0.0597657561,-0.0177571177,0.0007269382,
235.903,-3.2525873184,1.3456743956,27.3765487671,0.0674296021,0.0440269411,0.0057939887,-112.0869598389,74.2075347900,72.3519897461,0.0354959965,0.0699878335,0.0133496523,10.5330934525,83.7576293945,-163.9861755371,0.0199497342,0.0217540450,0.0273879766,48.8583488464,35.3989830017,-175.5858917236,0.0719425082,-0.0182694197,-0.0114840865,
235.913,-3.2530760765,1.3435313702,27.3777523041,0.0634859651,0.0406175405,0.0111645460,-112.0954055786,74.2044754028,72.3575744629,0.0388994217,0.0656256080,0.0051054358,10.5161390305,83.7598266602,-163.9919586182,0.0253250003,0.0169104598,0.0215605497,48.8528900146,35.4021949768,-175.5785369873,0.0553866625,-0.0289362669,-0.0090808868,
235.923,-3.2524540424,1.3435806036,27.3801288605,0.0600688532,0.0445129499,0.0038398504,-112.1039657593,74.2055664063,72.3631591797,0.0340217948,0.0631513000,0.0100193024,10.4910545349,83.7625961304,-164.0021972656,0.0238654017,0.0150134005,0.0142729878,48.8526191711,35.4011650085,-175.5677642822,0.0705087185,-0.0167343020,-0.0125076771,
235.933,-3.2545423508,1.3400344849,27.3807640076,0.0658663511,0.0416197255,0.0043287277,-112.1106948853,74.2072525024,72.3721084595,0.0369595289,0.0601835549,0.0075969100,10.4760656357,83.7652053833,-164.0049896240,0.0253351927,0.0199325867,0.0099158287,48.8500633240,35.4050331116,-175.5587158203,0.0520090461,-0.0298646688,-0.0037209988,
235.943,-3.2528045177,1.3400104046,27.3824558258,0.0668424964,0.0484253839,0.0092095137,-112.1324844360,74.2081604004,72.3628692627,0.0437997580,0.0572009683,0.0062226653,10.4655389786,83.7645416260,-164.0055847168,0.0253339410,0.0184858739,0.0201560855,48.8494186401,35.4025192261,-175.5499420166,0.0734576583,-0.0196237564,-0.0061851740,
235.953,-3.2516524792,1.3387182951,27.3823528290,0.0643785372,0.0401045643,0.0067670345,-112.1429595947,74.2109985352,72.3605499268,0.0360007286,0.0551844239,0.0013682842,10.4828872681,83.7640075684,-163.9789886475,0.0238680840,0.0223575830,0.0182005167,48.8478698730,35.4072456360,-175.5409698486,0.0530170798,-0.0278742313,-0.0076362491,
235.963,-3.2526607513,1.3379251957,27.3822383881,0.0648529828,0.0410987101,0.0087207556,-112.1478500366,74.2156829834,72.3585968018,0.0369995236,0.0546153486,0.0081960559,10.4884872437,83.7611160278,-163.9671783447,0.0253274441,0.0203847028,0.0249887705,48.8478584290,35.4113540649,-175.5331726074,0.0584465861,-0.0244247317,-0.0134676099,
235.973,-3.2504246235,1.3403990269,27.3832664490,0.0600133352,0.0459425114,0.0067663193,-112.1582260132,74.2222442627,72.3454589844,0.0365424156,0.0623074770,0.0072239041,10.5060815811,83.7590103149,-163.9441070557,0.0238586068,0.0262041949,0.0215422511,48.8482856750,35.4125633240,-175.5251770020,0.0613934994,-0.0175837278,-0.0056433678,
235.983,-3.2502450943,1.3437325954,27.3843441010,0.0527472869,0.0430096202,0.0077440739,-112.1729660034,74.2259445190,72.3268280029,0.0355833769,0.0612474680,0.0028710961,10.5180320740,83.7556457520,-163.9276733398,0.0243405104,0.0203116089,0.0283258557,48.8493270874,35.4115180969,-175.5200653076,0.0667496920,-0.0195544362,-0.0134508014,
235.993,-3.2518074512,1.3465108871,27.3860607147,0.0527957603,0.0410836488,0.0121408701,-112.1744003296,74.2260513306,72.3185272217,0.0311893821,0.0622195303,0.0067830682,10.5311126709,83.7531661987,-163.9090881348,0.0262889266,0.0246736221,0.0248711705,48.8520126343,35.4123992920,-175.5121154785,0.0696919560,-0.0151785612,-0.0158584714,
236.003,-3.2525684834,1.3477249146,27.3890743256,0.0518403836,0.0396320336,0.0033536553,-112.1710052490,74.2244415283,72.3175125122,0.0302051306,0.0602971315,0.0087315440,10.5507030487,83.7503128052,-163.8820037842,0.0316545963,0.0236511007,0.0350854397,48.8534126282,35.4153289795,-175.5042572021,0.0565500259,-0.0171222687,-0.0177761316,
236.013,-3.2521660328,1.3482221365,27.3897476196,0.0518490598,0.0459726639,0.0077471137,-112.1686630249,74.2231597900,72.3202590942,0.0248279572,0.0671576262,0.0160533786,10.5367193222,83.7523574829,-163.8880767822,0.0262873769,0.0231957100,0.0243720412,48.8541221619,35.4185523987,-175.4958038330,0.0526896715,-0.0156396031,-0.0172595382,
236.023,-3.2529113293,1.3478103876,27.3903751373,0.0547715575,0.0420794114,-0.0005524755,-112.1721801758,74.2217788696,72.3206787109,0.0292159319,0.0749845505,0.0102182031,10.5324840546,83.7535171509,-163.8820343018,0.0292192698,0.0280902684,0.0258554816,48.8512344360,35.4189414978,-175.4890594482,0.0595310926,-0.0160978436,-0.0104514360,
236.033,-3.2533686161,1.3440377712,27.3929061890,0.0630065128,0.0406226180,0.0111648440,-112.1734848022,74.2160491943,72.3277053833,0.0311418772,0.0633530021,0.0083069801,10.5109558105,83.7550506592,-163.8931884766,0.0233628154,0.0217880532,0.0248952508,48.8465194702,35.4224052429,-175.4826660156,0.0498147607,-0.0233514905,-0.0046195388,
236.043,-3.2512664795,1.3440928459,27.3940258026,0.0620309152,0.0454688147,0.0062807202,-112.1777267456,74.2107849121,72.3317642212,0.0301403403,0.0658677518,0.0064058900,10.5013332367,83.7567443848,-163.8923950195,0.0253191590,0.0218116343,0.0229673386,48.8481559753,35.4190597534,-175.4723663330,0.0712515712,-0.0160682201,-0.0168317556,
236.053,-3.2489252090,1.3422727585,27.3965148926,0.0605343133,0.0439632200,0.0136009455,-112.1682815552,74.2076416016,72.3513870239,0.0394027233,0.0708164573,0.0171262622,10.4892635345,83.7580642700,-163.8934326172,0.0262982249,0.0233038850,0.0195697546,48.8455924988,35.4168434143,-175.4633636475,0.0692669153,-0.0189906955,-0.0075962543,
236.063,-3.2474761009,1.3421350718,27.3976364136,0.0624850318,0.0454028249,0.0004165173,-112.1651229858,74.2025833130,72.3630828857,0.0359607339,0.0586935878,0.0054254532,10.4523649216,83.7596359253,-163.9188385010,0.0306957364,0.0204483829,0.0190896392,48.8449134827,35.4195976257,-175.4549407959,0.0561224818,-0.0209164619,-0.0080735087,
236.073,-3.2487816811,1.3419399261,27.3974857330,0.0649230331,0.0400544815,0.0092062950,-112.1662750244,74.2024841309,72.3697738647,0.0369368196,0.0616227984,0.0054312348,10.4462184906,83.7616195679,-163.9144592285,0.0287463665,0.0185135044,0.0103346705,48.8409843445,35.4187889099,-175.4485168457,0.0600171685,-0.0228390098,-0.0017732978,
236.083,-3.2456550598,1.3415315151,27.3993015289,0.0595448166,0.0468359627,0.0077384114,-112.1720428467,74.2036056519,72.3711776733,0.0364539027,0.0630599260,0.0044729710,10.4634037018,83.7628479004,-163.8881835938,0.0263072848,0.0253204219,0.0186609626,48.8386573792,35.4215087891,-175.4397125244,0.0522433519,-0.0223082304,-0.0056865215,
236.093,-3.2455458641,1.3405455351,27.4004230499,0.0658752695,0.0448809601,0.0111561418,-112.1736145020,74.2035140991,72.3757781982,0.0374299884,0.0562226772,0.0078986287,10.4565362930,83.7638168335,-163.8856964111,0.0258208513,0.0165474787,0.0167221427,48.8399620056,35.4198684692,-175.4301452637,0.0741927624,-0.0184266567,-0.0130076408,
236.103,-3.2489748001,1.3380836248,27.4022979736,0.0599729344,0.0390813723,-0.0015371442,-112.1841812134,74.2090759277,72.3746109009,0.0359916091,0.0673479438,0.0079100728,10.4958505630,83.7630310059,-163.8407592773,0.0263076425,0.0208649486,0.0133048892,48.8402366638,35.4200973511,-175.4235992432,0.0683365464,-0.0150095820,-0.0105618834,
236.113,-3.2497537136,1.3379763365,27.4022350311,0.0604593456,0.0439777561,0.0131122470,-112.1975479126,74.2152557373,72.3694992065,0.0350443721,0.0579509437,0.0093948245,10.5045881271,83.7613067627,-163.8300933838,0.0228863955,0.0213315114,0.0210929513,48.8357276917,35.4213027954,-175.4223175049,0.0639591813,-0.0237472057,-0.0057192445,
236.123,-3.2506732941,1.3390722275,27.4039230347,0.0604784712,0.0435054637,0.0013949275,-112.2092971802,74.2198028564,72.3603591919,0.0438550115,0.0583470464,0.0006288886,10.5305328369,83.7627487183,-163.8040313721,0.0243539810,0.0188451931,0.0118481517,48.8350677490,35.4224700928,-175.4197998047,0.0669054985,-0.0159195662,-0.0091361403,
236.133,-3.2488095760,1.3398718834,27.4043865204,0.0634221062,0.0468909554,0.0018813014,-112.2150268555,74.2271728516,72.3539123535,0.0370540619,0.0645707846,0.0098847747,10.5650119781,83.7600479126,-163.7669677734,0.0258136988,0.0212128200,0.0201163888,48.8346061707,35.4262657166,-175.4153594971,0.0645180345,-0.0222341418,-0.0096045732,
236.143,-3.2477807999,1.3417491913,27.4060935974,0.0580837689,0.0458964221,0.0111586452,-112.2384185791,74.2331390381,72.3322601318,0.0297581553,0.0683423579,0.0026257634,10.5989923477,83.7543945313,-163.7279968262,0.0218967199,0.0240599774,0.0307740569,48.8372612000,35.4339561462,-175.4076843262,0.0490024686,-0.0158526897,-0.0173371434,
236.153,-3.2466056347,1.3437845707,27.4077911377,0.0571427234,0.0444110632,-0.0005604029,-112.2539443970,74.2380294800,72.3223800659,0.0312461853,0.0755629241,0.0158468485,10.6217060089,83.7509765625,-163.6970672607,0.0238433480,0.0215649754,0.0356096029,48.8431091309,35.4376373291,-175.3949737549,0.0641914606,-0.0100200772,-0.0201798677,
236.163,-3.2497048378,1.3460128307,27.4094676971,0.0547401942,0.0356759429,0.0126271248,-112.2409667969,74.1959991455,72.3266143799,0.0549724102,-0.0536454022,0.0121497512,10.6498937607,83.7506866455,-163.6597595215,0.0248193741,0.0283464752,0.0312206149,48.8457603455,35.4354515076,-175.3828277588,0.0744143724,-0.0115262866,-0.0094235539,
236.173,-3.2500095367,1.3454937935,27.4106769562,0.0571725480,0.0415406302,-0.0069039464,-112.2532424927,74.1954803467,72.3181381226,0.0364152789,0.0654811561,0.0126955509,10.6315927505,83.7537384033,-163.6663360596,0.0150595307,0.0186251029,0.0205222964,48.8501167297,35.4348030090,-175.3701019287,0.0680574775,-0.0130369067,-0.0147523880,
236.183,-3.2501213551,1.3459329605,27.4130802155,0.0586450547,0.0483785048,0.0018854141,-112.2663192749,74.1933212280,72.3275909424,0.0290808082,0.0713497996,0.0171616077,10.6332359314,83.7550201416,-163.6557159424,0.0233627558,0.0279033668,0.0176146626,48.8528709412,35.4326515198,-175.3587036133,0.0714448690,-0.0179618597,-0.0113192201,
236.193,-3.2491090298,1.3456872702,27.4130191803,0.0586407632,0.0395718180,0.0087202191,-112.2792663574,74.1890869141,72.3296127319,0.0271075368,0.0606504679,0.0055269003,10.6039180756,83.7563095093,-163.6752777100,0.0194589496,0.0230803192,0.0244618058,48.8512382507,35.4322853088,-175.3495483398,0.0616739988,-0.0218556523,-0.0113392472,
236.203,-3.2489218712,1.3442944288,27.4148139954,0.0630109906,0.0429865532,0.0082312822,-112.2705230713,74.1821441650,72.3398437500,0.0304924846,0.0563788414,0.0074854493,10.5868186951,83.7575683594,-163.6807098389,0.0272738338,0.0196986087,0.0205696225,48.8530387878,35.4274177551,-175.3398590088,0.0733235478,-0.0136087537,-0.0142821670,
236.213,-3.2480137348,1.3433243036,27.4172058105,0.0639706254,0.0454121679,0.0126240253,-112.2571563721,74.1809768677,72.3475418091,0.0382994413,0.0539804101,0.0049923062,10.5663175583,83.7591018677,-163.6931152344,0.0287415981,0.0168126784,0.0176584721,48.8516387939,35.4258384705,-175.3326416016,0.0689065456,-0.0199553370,-0.0104013681,
236.223,-3.2536802292,1.3421330452,27.4176311493,0.0668795258,0.0308624692,0.0209302306,-112.2510147095,74.1826934814,72.3546905518,0.0309833884,0.0764256120,0.0054425597,10.5321302414,83.7560577393,-163.7226867676,0.0228764415,0.0134501718,0.0327321887,48.8505554199,35.4234390259,-175.3283538818,0.0732669234,-0.0160572529,-0.0079874992,
236.233,-3.2557871342,1.3429523706,27.4175853729,0.0527336709,0.0372468047,0.0077491999,-112.2459411621,74.1832504272,72.3519821167,0.0363571048,0.0608002245,0.0044401884,10.5217866898,83.7553329468,-163.7268066406,0.0277578831,0.0212803148,0.0244172215,48.8511352539,35.4267616272,-175.3217163086,0.0537829399,-0.0194554329,-0.0157722235,
236.243,-3.2540953159,1.3418517113,27.4169769287,0.0615035295,0.0484478325,0.0082352757,-112.2227325439,74.1886215210,72.3691406250,0.0314998627,0.0675955117,0.0209050179,10.5237436295,83.7550201416,-163.7186889648,0.0214096308,0.0217638426,0.0234357119,48.8491058350,35.4267196655,-175.3153381348,0.0806378126,-0.0213897228,-0.0143284798,
236.253,-3.2509722710,1.3405977488,27.4199905396,0.0648996159,0.0488817319,0.0077432990,-112.2240829468,74.1959304810,72.3770141602,0.0334877372,0.0835933089,0.0135405660,10.5224800110,83.7532653809,-163.7111816406,0.0301953554,0.0178545192,0.0248705149,48.8468818665,35.4294815063,-175.3094787598,0.0596809387,-0.0184184313,-0.0021278262,
236.263,-3.2505784035,1.3393570185,27.4216995239,0.0668310896,0.0415506847,0.0096957088,-112.2380981445,74.1976013184,72.3829040527,0.0310542583,0.0703586936,0.0106621981,10.5426626205,83.7517852783,-163.6818695068,0.0243331790,0.0261121988,0.0233873129,48.8457031250,35.4295768738,-175.2999267578,0.0645651817,-0.0149884820,-0.0065334439,
236.273,-3.2514300346,1.3399177790,27.4221630096,0.0624463446,0.0415655077,0.0106731653,-112.2660751343,74.1971435547,72.3813934326,0.0310520530,0.0683623552,0.0078589320,10.5326642990,83.7517623901,-163.6795043945,0.0243331194,0.0192951858,0.0224067569,48.8492202759,35.4284439087,-175.2876739502,0.0694318414,-0.0101474524,-0.0123637319,
236.283,-3.2509105206,1.3403133154,27.4251747131,0.0570821539,0.0439978577,0.0111612678,-112.2868194580,74.1974105835,72.3795547485,0.0261705518,0.0595305860,0.0059957504,10.5609140396,83.7539901733,-163.6389465332,0.0233607888,0.0216900073,0.0122013688,48.8517379761,35.4285316467,-175.2731628418,0.0630854368,-0.0121232271,-0.0084291697,
236.293,-3.2504928112,1.3405311108,27.4256706238,0.0639218912,0.0459437035,0.0175082684,-112.2959976196,74.1971435547,72.3745346069,0.0330051780,0.0517067015,0.0050613880,10.5514459610,83.7555847168,-163.6361541748,0.0218989849,0.0207361579,0.0239417553,48.8489112854,35.4283714294,-175.2639160156,0.0621066093,-0.0155161619,-0.0055314302,
236.303,-3.2492425442,1.3427464962,27.4255962372,0.0522417948,0.0425038934,0.0116488338,-112.2917861938,74.2004013062,72.3712539673,0.0369269252,0.0570343137,0.0074635744,10.5430603027,83.7544860840,-163.6340179443,0.0253148675,0.0197723806,0.0234336853,48.8449821472,35.4254608154,-175.2571105957,0.0664597750,-0.0159896612,-0.0011979342,
236.313,-3.2500131130,1.3427920341,27.4274272919,0.0556605607,0.0439821668,0.0028604865,-112.2906570435,74.2064361572,72.3631286621,0.0437915325,0.0603614450,0.0074201822,10.5423908234,83.7553939819,-163.6272888184,0.0262931585,0.0202646516,0.0146591067,48.8410186768,35.4231605530,-175.2524414063,0.0703333020,-0.0262239575,-0.0036966801,
236.323,-3.2518537045,1.3423101902,27.4285774231,0.0595584027,0.0381548703,0.0043269396,-112.2902755737,74.2145004272,72.3549499512,0.0330876708,0.0646315217,0.0068789721,10.5276927948,83.7537002563,-163.6357421875,0.0258016586,0.0183340870,0.0243903399,48.8414115906,35.4254493713,-175.2462768555,0.0557174087,-0.0183978081,-0.0119786263,
236.333,-3.2532832623,1.3445012569,27.4297046661,0.0522724167,0.0396445617,0.0009112358,-112.2923889160,74.2177429199,72.3470535278,0.0370092988,0.0689715147,0.0034498572,10.5242652893,83.7528915405,-163.6323699951,0.0238469839,0.0222444423,0.0248646736,48.8435020447,35.4262809753,-175.2373046875,0.0664713979,-0.0154812932,-0.0197628736,
236.343,-3.2553057671,1.3450101614,27.4296092987,0.0581406690,0.0396797843,0.0087260008,-112.2999496460,74.2215576172,72.3466644287,0.0336094499,0.0776879787,0.0102947950,10.5222272873,83.7498397827,-163.6264495850,0.0223763585,0.0246802568,0.0282309055,48.8468704224,35.4237594604,-175.2283477783,0.0727832317,-0.0111376047,-0.0129082203,
236.353,-3.2555055618,1.3441700935,27.4313926697,0.0610556975,0.0416364037,0.0077493191,-112.2973709106,74.2211990356,72.3625793457,0.0340960026,0.0630502403,0.0190747976,10.5295886993,83.7455215454,-163.6081390381,0.0248095393,0.0300239138,0.0354854465,48.8537635803,35.4212493896,-175.2145843506,0.0707944036,-0.0121976137,-0.0211509466,
236.363,-3.2573950291,1.3437651396,27.4313640594,0.0547009781,0.0338568389,0.0018916130,-112.3056488037,74.2194519043,72.3709945679,0.0311580300,0.0713623464,0.0127749443,10.5178508759,83.7447967529,-163.6064147949,0.0257847309,0.0236961693,0.0310735703,48.8567504883,35.4199676514,-175.2019653320,0.0678465366,-0.0068643689,-0.0186866522,
236.373,-3.2587244511,1.3407440186,27.4338474274,0.0624607615,0.0397394337,0.0097041726,-112.3050613403,74.2124176025,72.3898391724,0.0286832452,0.0587775111,0.0103753805,10.5211477280,83.7464294434,-163.5892333984,0.0252995491,0.0300428271,0.0218259692,48.8564376831,35.4190368652,-175.1909790039,0.0619738698,-0.0176107287,-0.0123482347,
236.383,-3.2580544949,1.3415168524,27.4356040955,0.0595445633,0.0490050912,0.0033562779,-112.3024444580,74.2063217163,72.4040527344,0.0325605273,0.0579003096,0.0143088698,10.5228328705,83.7487182617,-163.5755310059,0.0209093690,0.0285819061,0.0164938569,48.8514862061,35.4163970947,-175.1834564209,0.0653542280,-0.0244203806,-0.0041180849,
236.393,-3.2599298954,1.3372102976,27.4374961853,0.0667936355,0.0422019288,0.0082389116,-112.2983474731,74.2017288208,72.4101638794,0.0379098058,0.0521194935,0.0055308938,10.5088710785,83.7530136108,-163.5804595947,0.0287300348,0.0242271535,0.0165601373,48.8516960144,35.4136772156,-175.1742248535,0.0706866980,-0.0176070929,-0.0041339397,
236.403,-3.2609920502,1.3360824585,27.4387531281,0.0574966148,0.0451501459,0.0028687119,-112.2930145264,74.2014923096,72.4119644165,0.0383969545,0.0570151806,0.0138097405,10.5094480515,83.7554321289,-163.5705871582,0.0277580619,0.0183741525,0.0175771117,48.8500213623,35.4151916504,-175.1657104492,0.0638722777,-0.0239276886,-0.0148846507,
236.413,-3.2598714828,1.3362826109,27.4399070740,0.0594532304,0.0441540517,0.0082388520,-112.2987518311,74.2051239014,72.4063568115,0.0369493961,0.0672026575,0.0079524517,10.5081186295,83.7553939819,-163.5663299561,0.0272697210,0.0198415332,0.0175768137,48.8467216492,35.4149055481,-175.1620635986,0.0658213496,-0.0263401270,-0.0105263591,
236.423,-3.2585084438,1.3368782997,27.4404220581,0.0599519052,0.0451068506,0.0043314099,-112.3057174683,74.2102203369,72.4099273682,0.0286728144,0.0710175037,0.0128336549,10.5306568146,83.7561798096,-163.5382385254,0.0209235549,0.0222425386,0.0141799450,48.8458747864,35.4134559631,-175.1561431885,0.0721483827,-0.0170661211,0.0016610622,
236.433,-3.2579627037,1.3362268209,27.4415607452,0.0623819456,0.0421676822,0.0067719221,-112.3102188110,74.2159729004,72.4106216431,0.0316298008,0.0684784949,0.0157467723,10.5487422943,83.7553710938,-163.5141448975,0.0277579427,0.0256236121,0.0146608949,48.8483390808,35.4153747559,-175.1490478516,0.0609452128,-0.0126798749,-0.0153886080,
236.443,-3.2577123642,1.3406780958,27.4407634735,0.0507408604,0.0411866494,0.0126328468,-112.3193969727,74.2180557251,72.4024658203,0.0311514139,0.0640357733,0.0094262958,10.5462179184,83.7537384033,-163.5080413818,0.0238485932,0.0217169859,0.0234212279,48.8491859436,35.4127120972,-175.1401062012,0.0755558014,-0.0136848092,-0.0114920735,
236.453,-3.2571108341,1.3394669294,27.4412822723,0.0643916056,0.0401996374,0.0111669898,-112.3334732056,74.2214660645,72.3942794800,0.0292144418,0.0659101605,0.0089784861,10.5449476242,83.7503128052,-163.5000000000,0.0282366276,0.0212205425,0.0262937546,48.8517456055,35.4089431763,-175.1301727295,0.0745255947,-0.0078779459,-0.0061177015,
236.463,-3.2579064369,1.3409416676,27.4436340332,0.0551399924,0.0416783057,0.0053091049,-112.3459243774,74.2232208252,72.3882369995,0.0365470052,0.0634192526,0.0114634633,10.5334692001,83.7493057251,-163.5016632080,0.0218870640,0.0227040797,0.0262728333,48.8590164185,35.4087638855,-175.1158294678,0.0618277788,-0.0103889108,-0.0197134614,
236.473,-3.2589621544,1.3431836367,27.4446525574,0.0585970804,0.0387669578,0.0043340921,-112.3597488403,74.2256546021,72.3831100464,0.0287460685,0.0677518249,0.0080907941,10.5266656876,83.7496871948,-163.4986572266,0.0301885605,0.0232065581,0.0243241191,48.8570632935,35.4097785950,-175.1089782715,0.0545179844,-0.0235463977,-0.0050789714,
236.483,-3.2605571747,1.3465067148,27.4450473785,0.0527956896,0.0324470028,0.0126380920,-112.3540344238,74.2254257202,72.3932418823,0.0306981206,0.0609283447,0.0183210969,10.5532827377,83.7513198853,-163.4618530273,0.0287268162,0.0309734531,0.0224072933,48.8554611206,35.4107742310,-175.1018524170,0.0574618578,-0.0186409950,-0.0050894618,
236.493,-3.2609896660,1.3483421803,27.4480400085,0.0518511534,0.0407552868,0.0048269033,-112.3579254150,74.2232284546,72.3922119141,0.0258048773,0.0614453852,0.0051683784,10.5479774475,83.7521362305,-163.4573669434,0.0233572721,0.0217087008,0.0175360441,48.8533973694,35.4115295410,-175.0939636230,0.0584491491,-0.0200807452,-0.0114542842,
236.503,-3.2635207176,1.3474676609,27.4485683441,0.0586718284,0.0315220542,0.0043406487,-112.3514709473,74.2214508057,72.3989791870,0.0316557884,0.0595301986,0.0134522915,10.5420455933,83.7528305054,-163.4534912109,0.0311710835,0.0212337300,0.0170565248,48.8515396118,35.4109764099,-175.0887145996,0.0647889376,-0.0151847601,-0.0065950155,
236.513,-3.2637469769,1.3488738537,27.4484863281,0.0547901168,0.0417798720,0.0019000769,-112.3372726440,74.2233657837,72.4109725952,0.0380125642,0.0702689290,0.0167953968,10.5589361191,83.7522277832,-163.4292449951,0.0248222947,0.0236411244,0.0248646736,48.8505058289,35.4117736816,-175.0826721191,0.0652884841,-0.0229815841,-0.0153898597,
236.523,-3.2640452385,1.3474810123,27.4503345490,0.0586720631,0.0412968136,0.0067825913,-112.3365707397,74.2226943970,72.4068603516,0.0297085643,0.0600267351,0.0050779581,10.5705232620,83.7482147217,-163.4114532471,0.0306740403,0.0250717252,0.0311513543,48.8499488831,35.4150199890,-175.0752105713,0.0565456748,-0.0195335746,-0.0104914308,
236.533,-3.2637617588,1.3467531204,27.4497051239,0.0601242073,0.0456864201,0.0062937737,-112.3367233276,74.2241973877,72.4018173218,0.0316688418,0.0697681606,0.0094636679,10.5501194000,83.7442626953,-163.4238586426,0.0204126239,0.0226567797,0.0286361575,48.8505210876,35.4173049927,-175.0678405762,0.0575546622,-0.0165919065,-0.0109584332,
236.543,-3.2640769482,1.3461107016,27.4526443481,0.0649958104,0.0432505161,0.0102000833,-112.3324813843,74.2231292725,72.4056854248,0.0311754942,0.0624686480,0.0094515085,10.5324649811,83.7422637939,-163.4321899414,0.0243150592,0.0207309797,0.0339673162,48.8517379761,35.4180793762,-175.0597686768,0.0556126237,-0.0126911402,-0.0055692196,
236.553,-3.2657208443,1.3481236696,27.4560527802,0.0645426512,0.0427908301,0.0141087174,-112.3451232910,74.2212677002,72.3999710083,0.0370260477,0.0688218176,0.0051246881,10.5465412140,83.7431945801,-163.4078674316,0.0248051286,0.0290079117,0.0217811465,48.8572196960,35.4173927307,-175.0485382080,0.0663450360,-0.0122594237,-0.0182104707,
236.563,-3.2651436329,1.3477716446,27.4584522247,0.0591654107,0.0422925018,-0.0010290146,-112.3545227051,74.2217483521,72.4012374878,0.0350751877,0.0648913085,0.0076044202,10.5221853256,83.7418746948,-163.4205017090,0.0228495002,0.0187960118,0.0261431932,48.8571548462,35.4167366028,-175.0381164551,0.0604763627,-0.0151934624,-0.0099146366,
236.573,-3.2639057636,1.3468338251,27.4602184296,0.0635435879,0.0466654897,0.0077590942,-112.3499603271,74.2231903076,72.4151611328,0.0336171985,0.0609714091,0.0217352509,10.5020446777,83.7447662354,-163.4313964844,0.0233432651,0.0188434310,0.0178843141,48.8604164124,35.4188461304,-175.0264282227,0.0551351905,-0.0176494718,-0.0162132978,
236.583,-3.2636077404,1.3449970484,27.4596366882,0.0620466918,0.0456837788,0.0111750364,-112.3546066284,74.2243347168,72.4179077148,0.0321577787,0.0638743937,0.0095415711,10.4796752930,83.7472381592,-163.4445800781,0.0233479738,0.0203585364,0.0174296498,48.8581657410,35.4162750244,-175.0182952881,0.0692588091,-0.0200892687,-0.0030708909,
236.593,-3.2649140358,1.3454382420,27.4595489502,0.0581481382,0.0422885530,0.0018998981,-112.3543472290,74.2240676880,72.4234542847,0.0350862145,0.0589963198,0.0061239600,10.4920578003,83.7478332520,-163.4249114990,0.0199311376,0.0276613086,0.0257465839,48.8565483093,35.4198608398,-175.0108489990,0.0527082086,-0.0239530802,-0.0152713656,
236.603,-3.2624306679,1.3463270664,27.4594173431,0.0630464554,0.0490812100,0.0033622980,-112.3602371216,74.2295455933,72.4201812744,0.0356004834,0.0676900148,0.0080682039,10.4832210541,83.7463912964,-163.4246673584,0.0238346457,0.0257203914,0.0232769251,48.8529663086,35.4199600220,-175.0037231445,0.0629635453,-0.0170828700,0.0003159046,
236.613,-3.2612836361,1.3475332260,27.4604606628,0.0625792295,0.0441783890,0.0141041875,-112.3702697754,74.2324371338,72.4117736816,0.0297548175,0.0622562170,0.0080940127,10.5028991699,83.7439804077,-163.3976745605,0.0277363062,0.0256753229,0.0261723995,48.8520698547,35.4174461365,-174.9969329834,0.0663457513,-0.0141640306,-0.0060581565,
236.623,-3.2601623535,1.3477548361,27.4622612000,0.0572119989,0.0441588461,0.0038491488,-112.3679046631,74.2358093262,72.4151229858,0.0322121978,0.0602544546,0.0129449368,10.4999504089,83.7394409180,-163.3943481445,0.0277276635,0.0222490095,0.0324438810,48.8570823669,35.4141120911,-174.9873809814,0.0765522718,-0.0103299618,-0.0192099214,
236.633,-3.2606165409,1.3502891064,27.4632816315,0.0596976243,0.0451432653,0.0038506389,-112.3734817505,74.2393798828,72.4116134644,0.0361353755,0.0680022538,0.0158764124,10.5251131058,83.7408447266,-163.3619689941,0.0243123770,0.0275765583,0.0197809935,48.8561706543,35.4126853943,-174.9801940918,0.0711608529,-0.0196098089,-0.0094643235,
236.643,-3.2614719868,1.3520965576,27.4618835449,0.0577760376,0.0373456255,0.0131294727,-112.3741226196,74.2401428223,72.4175872803,0.0322327614,0.0635943413,0.0139212012,10.5349197388,83.7403488159,-163.3435974121,0.0208934546,0.0236500427,0.0212407708,48.8600769043,35.4108924866,-174.9694824219,0.0721119642,-0.0118473768,-0.0143167973,
236.653,-3.2621219158,1.3533059359,27.4635658264,0.0602385476,0.0422397368,0.0058065057,-112.3706893921,74.2407836914,72.4289398193,0.0332123637,0.0655440092,0.0163435936,10.5379037857,83.7386550903,-163.3301086426,0.0301675797,0.0221741311,0.0285370946,48.8603668213,35.4142341614,-174.9604949951,0.0589758754,-0.0215902925,-0.0186859369,
236.663,-3.2621276379,1.3525602818,27.4648437500,0.0563192815,0.0466343835,0.0077595115,-112.3756637573,74.2404098511,72.4323577881,0.0322340131,0.0650523901,0.0144146085,10.5386791229,83.7387466431,-163.3206329346,0.0243083835,0.0197317824,0.0212162733,48.8594627380,35.4113464355,-174.9518890381,0.0696769357,-0.0103733540,-0.0035780668,
236.673,-3.2636194229,1.3555281162,27.4652862549,0.0558827892,0.0437306091,0.0023906231,-112.3923187256,74.2367019653,72.4245376587,0.0322164297,0.0606850386,0.0003514290,10.5346937180,83.7397232056,-163.3153839111,0.0267516375,0.0197421648,0.0251356363,48.8571281433,35.4106254578,-174.9437561035,0.0608776808,-0.0152397752,-0.0016545653,
236.683,-3.2633464336,1.3543502092,27.4664897919,0.0597684830,0.0412844755,0.0019017458,-112.3947982788,74.2338485718,72.4276275635,0.0414802432,0.0592603981,0.0096577406,10.5378913879,83.7415008545,-163.3031005859,0.0243136287,0.0260892436,0.0178423524,48.8513221741,35.4121513367,-174.9376678467,0.0599228144,-0.0268926620,-0.0061016679,
236.693,-3.2625267506,1.3538354635,27.4683265686,0.0578063764,0.0451764576,0.0087368488,-112.3992462158,74.2348175049,72.4281234741,0.0351371765,0.0646085143,0.0096712708,10.5353918076,83.7441406250,-163.2958374023,0.0238303542,0.0236610286,0.0193519592,48.8517456055,35.4098396301,-174.9300842285,0.0706321001,-0.0176367760,-0.0105067492,
236.703,-3.2634274960,1.3522975445,27.4683303833,0.0607092306,0.0437273383,-0.0000519753,-112.3947982788,74.2346954346,72.4360885620,0.0341600776,0.0563175082,0.0125821233,10.5417146683,83.7449188232,-163.2810516357,0.0233435631,0.0236508287,0.0218046308,48.8523292542,35.4090042114,-174.9226684570,0.0755029917,-0.0196017623,-0.0168537498,
236.713,-3.2651929855,1.3506692648,27.4688720703,0.0636105090,0.0383870415,0.0087381601,-112.3895721436,74.2340469360,72.4441070557,0.0390397906,0.0578013659,0.0145164728,10.5349941254,83.7444534302,-163.2802886963,0.0296903253,0.0207328573,0.0227736235,48.8526115417,35.4082298279,-174.9140930176,0.0657263994,-0.0157040358,-0.0114847422,
236.723,-3.2648983002,1.3515152931,27.4699745178,0.0592307374,0.0413115807,0.0053201914,-112.3950805664,74.2366561890,72.4412994385,0.0292865038,0.0655637980,0.0062233210,10.5405969620,83.7453918457,-163.2686462402,0.0262741446,0.0241431743,0.0140028000,48.8525733948,35.4107284546,-174.9049682617,0.0574611425,-0.0191026330,-0.0109800696,
236.733,-3.2641294003,1.3506581783,27.4693393707,0.0606806241,0.0452044569,0.0092253089,-112.3964080811,74.2384948730,72.4435348511,0.0327132344,0.0621147752,0.0120766759,10.5646839142,83.7475280762,-163.2373657227,0.0277430415,0.0265453048,0.0150229335,48.8527755737,35.4086570740,-174.8966979980,0.0725684166,-0.0147258043,-0.0012266636,
236.743,-3.2630004883,1.3495815992,27.4704627991,0.0660329312,0.0442082509,0.0072705746,-112.3940887451,74.2408752441,72.4513931274,0.0337010622,0.0640353560,0.0135161877,10.5569553375,83.7463302612,-163.2371063232,0.0296939015,0.0231384076,0.0213485360,48.8524208069,35.4085388184,-174.8885345459,0.0613362789,-0.0186294913,-0.0119725466,
236.753,-3.2632112503,1.3502399921,27.4709548950,0.0596967675,0.0417704992,0.0033648610,-112.3882217407,74.2403640747,72.4641647339,0.0283275247,0.0625891089,0.0134935975,10.5587282181,83.7439804077,-163.2254791260,0.0223652124,0.0221512802,0.0232637525,48.8505363464,35.4098472595,-174.8808441162,0.0603783131,-0.0215317607,-0.0075904727,
236.763,-3.2616887093,1.3509906530,27.4721183777,0.0572684593,0.0456502065,0.0004340410,-112.4013366699,74.2407608032,72.4597854614,0.0307708383,0.0615827441,0.0042714477,10.5646257401,83.7446975708,-163.2123107910,0.0238314271,0.0250717290,0.0237644911,48.8496704102,35.4133071899,-174.8725280762,0.0526149869,-0.0205205679,-0.0070874095,
236.773,-3.2624385357,1.3511372805,27.4738941193,0.0597124211,0.0461515523,0.0067825913,-112.4036254883,74.2397079468,72.4635314941,0.0376017690,0.0576885343,0.0101476908,10.5484876633,83.7461090088,-163.2214050293,0.0252989531,0.0119234547,0.0159712434,48.8520889282,35.4158897400,-174.8630218506,0.0560697913,-0.0166174173,-0.0075334907,
236.783,-3.2649137974,1.3515261412,27.4724311829,0.0665551424,0.0383821540,0.0004374981,-112.4070434570,74.2407226563,72.4613418579,0.0380948782,0.0601080656,0.0077147484,10.5439577103,83.7423477173,-163.2197723389,0.0194324255,0.0236390755,0.0271370411,48.8521614075,35.4143943787,-174.8553466797,0.0687438250,-0.0224887729,-0.0158432126,
236.793,-3.2661564350,1.3521625996,27.4717693329,0.0553357825,0.0403569154,0.0058100224,-112.4029159546,74.2424087524,72.4615249634,0.0366380215,0.0610658824,0.0125687122,10.5316734314,83.7410354614,-163.2245178223,0.0267541409,0.0173107684,0.0246694684,48.8541603088,35.4147491455,-174.8481903076,0.0663074255,-0.0151805878,-0.0148426890,
236.803,-3.2654812336,1.3542529345,27.4728202820,0.0592785031,0.0447396338,0.0087398887,-112.4079818726,74.2427291870,72.4517974854,0.0381044149,0.0605639815,0.0023348331,10.5506649017,83.7406921387,-163.2018280029,0.0233355165,0.0250859559,0.0285763741,48.8531227112,35.4158325195,-174.8418579102,0.0589985847,-0.0234635472,-0.0148471594,
236.813,-3.2651610374,1.3557505608,27.4739513397,0.0568632260,0.0457105823,0.0023925304,-112.4161682129,74.2453002930,72.4385299683,0.0307923555,0.0653916597,0.0057725906,10.5625953674,83.7384338379,-163.1856079102,0.0287023187,0.0235912427,0.0241473913,48.8522987366,35.4180717468,-174.8363952637,0.0600069761,-0.0253916979,-0.0172815323,
236.823,-3.2648191452,1.3555850983,27.4744949341,0.0602783114,0.0437515117,-0.0010258555,-112.4141921997,74.2475662231,72.4374694824,0.0317796469,0.0643836558,0.0096557736,10.5650129318,83.7388763428,-163.1790008545,0.0223554969,0.0270059034,0.0251318812,48.8521652222,35.4197692871,-174.8312530518,0.0575897694,-0.0209831595,-0.0079950690,
236.833,-3.2653510571,1.3560888767,27.4762935638,0.0563808493,0.0447373278,0.0087406635,-112.4189071655,74.2468872070,72.4319000244,0.0298233032,0.0668270290,0.0038214326,10.5805320740,83.7341766357,-163.1574249268,0.0242996812,0.0294031762,0.0343367457,48.8523368835,35.4171943665,-174.8248901367,0.0678070784,-0.0136799812,-0.0128923059,
236.843,-3.2648639679,1.3560714722,27.4780788422,0.0602867976,0.0461936854,0.0067867041,-112.4255523682,74.2472991943,72.4269561768,0.0317783952,0.0682738423,0.0038478374,10.5846538544,83.7339248657,-163.1448822021,0.0179515481,0.0298828594,0.0274983644,48.8531112671,35.4142112732,-174.8157348633,0.0741122365,-0.0171281099,-0.0133932829,
236.853,-3.2633242607,1.3536133766,27.4781265259,0.0621970333,0.0456786416,0.0111788511,-112.4308853149,74.2446212769,72.4261627197,0.0342071056,0.0639109910,0.0058415532,10.5892992020,83.7324218750,-163.1299133301,0.0267377496,0.0269395411,0.0240564942,48.8527145386,35.4148025513,-174.8076324463,0.0550776720,-0.0185846090,-0.0119276643,
236.863,-3.2622084618,1.3547271490,27.4780178070,0.0578219369,0.0422412083,-0.0015171766,-112.4347305298,74.2449493408,72.4314880371,0.0346969366,0.0712228417,0.0151337385,10.6051483154,83.7344589233,-163.1043853760,0.0291830301,0.0264276378,0.0172616243,48.8560523987,35.4149703979,-174.7969970703,0.0638691187,-0.0151968002,-0.0240988135,
236.873,-3.2587730885,1.3547142744,27.4786224365,0.0578217134,0.0480407365,0.0048271418,-112.4457397461,74.2433090210,72.4329299927,0.0312712193,0.0678103566,0.0088450313,10.6242761612,83.7375640869,-163.0737152100,0.0213764310,0.0239593051,0.0148776770,48.8538856506,35.4108085632,-174.7895812988,0.0701576471,-0.0166727901,-0.0095003843,
236.883,-3.2620427608,1.3516594172,27.4791831970,0.0685105920,0.0417501144,0.0062941909,-112.4638977051,74.2396316528,72.4279327393,0.0346717238,0.0644164681,0.0030890107,10.6219215393,83.7397842407,-163.0651092529,0.0238220692,0.0244590007,0.0188201070,48.8530769348,35.4104766846,-174.7789459229,0.0569692850,-0.0191093683,-0.0085356236,
236.893,-3.2593817711,1.3524894714,27.4815368652,0.0597360134,0.0451217033,0.0111742020,-112.4866409302,74.2385559082,72.4199523926,0.0366197824,0.0678097308,-0.0021750927,10.6086254120,83.7386245728,-163.0654907227,0.0238198638,0.0210628659,0.0241677761,48.8564491272,35.4106407166,-174.7668304443,0.0618544817,-0.0152332187,-0.0133803487,
236.903,-3.2599506378,1.3529497385,27.4821357727,0.0538846739,0.0426901989,-0.0000552535,-112.4937057495,74.2338867188,72.4233703613,0.0365976095,0.0566387773,0.0071632266,10.5957841873,83.7392501831,-163.0673217773,0.0233327746,0.0215774924,0.0207552314,48.8587226868,35.4099082947,-174.7566986084,0.0711213350,-0.0172134042,-0.0153147578,
236.913,-3.2600135803,1.3536610603,27.4814014435,0.0592681766,0.0402498730,0.0033631921,-112.4998474121,74.2355651855,72.4252471924,0.0341641903,0.0619728863,0.0096208453,10.5995826721,83.7360839844,-163.0554504395,0.0262564421,0.0225371607,0.0231467485,48.8587303162,35.4070167542,-174.7486572266,0.0749864578,-0.0187001824,-0.0143564939,
236.923,-3.2579143047,1.3554403782,27.4812812805,0.0578343794,0.0455843508,0.0043383241,-112.5139694214,74.2374038696,72.4146957397,0.0331963301,0.0604540706,0.0052765608,10.6139078140,83.7353973389,-163.0331878662,0.0252785683,0.0229956582,0.0192319155,48.8586845398,35.4092597961,-174.7403106689,0.0574402809,-0.0240538716,-0.0143430233,
236.933,-3.2571933270,1.3571760654,27.4829998016,0.0583529435,0.0470365994,0.0043383241,-112.5284423828,74.2390365601,72.4012069702,0.0341806412,0.0633310080,0.0048416257,10.6107625961,83.7321777344,-163.0288543701,0.0228310227,0.0220151953,0.0265024900,48.8567695618,35.4110717773,-174.7336273193,0.0623488426,-0.0220689178,-0.0080028176,
236.943,-3.2590742111,1.3584327698,27.4835205078,0.0554451868,0.0402333885,0.0023875833,-112.5377349854,74.2410507202,72.3936233521,0.0361433029,0.0623084903,0.0102404356,10.6167659760,83.7311782837,-163.0148620605,0.0282002091,0.0220005400,0.0201398730,48.8571815491,35.4195480347,-174.7241058350,0.0453795791,-0.0200552344,-0.0128258467,
236.953,-3.2583870888,1.3561730385,27.4847335815,0.0637065396,0.0426628850,0.0062924027,-112.5532913208,74.2408599854,72.3813476563,0.0337010026,0.0696058571,0.0098218322,10.6219377518,83.7315826416,-163.0017242432,0.0267361403,0.0229685493,0.0240547657,48.8584976196,35.4186973572,-174.7154998779,0.0717346668,-0.0112848282,-0.0098867416,
236.963,-3.2592098713,1.3591161966,27.4852027893,0.0539922677,0.0417005867,0.0077589750,-112.5790939331,74.2395248413,72.3627395630,0.0366243720,0.0686032772,0.0050609112,10.6269607544,83.7317657471,-162.9862518311,0.0238068104,0.0219830349,0.0186889172,48.8585739136,35.4227981567,-174.7058715820,0.0581210852,-0.0180904269,-0.0123009086,
236.973,-3.2604043484,1.3595914841,27.4875068665,0.0608364977,0.0402565375,0.0072726607,-112.6025238037,74.2358474731,72.3478393555,0.0268412828,0.0642230511,0.0105587244,10.6353206635,83.7309570313,-162.9679718018,0.0233169794,0.0195231028,0.0240490437,48.8568687439,35.4281959534,-174.6954803467,0.0542916059,-0.0243808627,-0.0093528032,
236.983,-3.2605841160,1.3608337641,27.4885578156,0.0623230189,0.0417244919,0.0106903315,-112.6150054932,74.2317733765,72.3425674438,0.0351227522,0.0613330603,0.0150344968,10.6567754745,83.7336502075,-162.9373779297,0.0267400742,0.0238851793,0.0153127313,48.8576583862,35.4274520874,-174.6870574951,0.0625818372,-0.0165815353,-0.0186272860,
236.993,-3.2633717060,1.3599959612,27.4909439087,0.0588904284,0.0368902534,0.0038577318,-112.6287078857,74.2287826538,72.3345413208,0.0326671600,0.0608665943,0.0199965239,10.6749420166,83.7340850830,-162.9094085693,0.0233229399,0.0223869234,0.0172785521,48.8544158936,35.4258537292,-174.6805877686,0.0654888153,-0.0219343901,-0.0079301596,
237.003,-3.2629473209,1.3581134081,27.4914798737,0.0666700825,0.0417657122,0.0092271566,-112.6431579590,74.2242355347,72.3226013184,0.0375283957,0.0565153658,0.0152066946,10.6836967468,83.7344360352,-162.8902282715,0.0223470330,0.0233479068,0.0202173591,48.8548088074,35.4249992371,-174.6715545654,0.0703594685,-0.0155969262,-0.0137910843,
237.013,-3.2637465000,1.3581637144,27.4920082092,0.0598350205,0.0417796411,0.0077633858,-112.6496124268,74.2238464355,72.3166351318,0.0326437354,0.0579744279,0.0147492290,10.7040758133,83.7346496582,-162.8650512695,0.0238122940,0.0277044065,0.0241352320,48.8545913696,35.4266433716,-174.6645660400,0.0669648647,-0.0219299793,-0.0093877316,
237.023,-3.2614715099,1.3589376211,27.4943714142,0.0598485246,0.0480876453,0.0087378621,-112.6548156738,74.2248764038,72.3130874634,0.0321603417,0.0677146018,0.0123241544,10.6933946609,83.7360229492,-162.8676605225,0.0296742916,0.0184516497,0.0217124224,48.8538513184,35.4318809509,-174.6571960449,0.0528792143,-0.0209066272,-0.0142437220,
237.033,-3.2608051300,1.3589857817,27.4954986572,0.0622907728,0.0446580648,0.0126433969,-112.6297836304,74.2302551270,72.3387298584,0.0292561650,0.0598647892,0.0219451189,10.6977081299,83.7339630127,-162.8559417725,0.0262523890,0.0218549408,0.0197266936,48.8501243591,35.4296989441,-174.6523437500,0.0694497228,-0.0179587007,-0.0035558343,
237.043,-3.2622082233,1.3578294516,27.4966373444,0.0642237216,0.0417528525,0.0087381601,-112.6128845215,74.2400360107,72.3602752686,0.0288142562,0.0729286671,0.0135069489,10.6896076202,83.7316131592,-162.8558959961,0.0223416686,0.0199100934,0.0323812366,48.8488388062,35.4305610657,-174.6464538574,0.0553018451,-0.0159869194,-0.0050288439,
237.053,-3.2599236965,1.3570200205,27.4972324371,0.0607916303,0.0461075939,0.0102005005,-112.5912094116,74.2453765869,72.3904724121,0.0268864632,0.0640957355,0.0172836185,10.6828584671,83.7326431274,-162.8548278809,0.0199022293,0.0267620422,0.0197001696,48.8506546021,35.4276466370,-174.6384124756,0.0743033290,-0.0140730143,-0.0133295059,
237.063,-3.2588551044,1.3554569483,27.4972229004,0.0636940449,0.0460890196,0.0199640393,-112.5732192993,74.2539062500,72.4184188843,0.0269268751,0.0664380193,0.0151966214,10.6712894440,83.7354888916,-162.8560638428,0.0262553096,0.0223983526,0.0173010826,48.8538284302,35.4232864380,-174.6275024414,0.0781475306,-0.0175539255,-0.0147895217,
237.073,-3.2596080303,1.3536969423,27.4978389740,0.0617102124,0.0441490635,0.0028744936,-112.5472640991,74.2638473511,72.4505004883,0.0367395878,0.0692613721,0.0130657554,10.6485080719,83.7363052368,-162.8665008545,0.0286982656,0.0200032108,0.0217030048,48.8543090820,35.4270744324,-174.6159362793,0.0596467853,-0.0268068910,-0.0162239075,
237.083,-3.2612147331,1.3580588102,27.5000724792,0.0515324101,0.0388058499,0.0077607632,-112.5298538208,74.2773895264,72.4760513306,0.0333856940,0.0676191151,0.0075312257,10.6572713852,83.7353668213,-162.8480682373,0.0252785087,0.0258428566,0.0158305168,48.8545837402,35.4249267578,-174.6069946289,0.0708466768,-0.0141305327,-0.0089110732,
237.093,-3.2611167431,1.3602356911,27.5005283356,0.0545000806,0.0363626815,0.0067851543,-112.5118179321,74.2952117920,72.5017166138,0.0324933529,0.0683524311,0.0131974220,10.6797161102,83.7368392944,-162.8147430420,0.0247930288,0.0258044377,0.0134199262,48.8531990051,35.4251441956,-174.5981903076,0.0723146200,-0.0194870234,-0.0084362030,
237.103,-3.2612791061,1.3594787121,27.5029277802,0.0608345270,0.0417366289,0.0062961578,-112.5246276855,74.3191909790,72.4975509644,0.0365127921,0.0718646049,0.0043106079,10.7035713196,83.7354888916,-162.7809448242,0.0243021846,0.0213604160,0.0221964121,48.8561973572,35.4268226624,-174.5883178711,0.0650143027,-0.0146194696,-0.0176703930,
237.113,-3.2622177601,1.3618576527,27.5027694702,0.0559932254,0.0412646383,0.0126464963,-112.5401992798,74.3411865234,72.4890365601,0.0322219729,0.0622185469,0.0017961264,10.7197513580,83.7332687378,-162.7555999756,0.0213682652,0.0252287686,0.0221647620,48.8576240540,35.4270057678,-174.5797424316,0.0625754595,-0.0126783252,-0.0083765388,
237.123,-3.2636613846,1.3627710342,27.5056934357,0.0594271310,0.0393366478,0.0072765350,-112.5741653442,74.3646087646,72.4629974365,0.0372150540,0.0696072876,0.0017938018,10.7352523804,83.7324829102,-162.7308959961,0.0286909938,0.0237319805,0.0226460099,48.8614540100,35.4270401001,-174.5697021484,0.0713651180,-0.0141786933,-0.0181005597,
237.133,-3.2655456066,1.3613967896,27.5068340302,0.0647742450,0.0422991812,0.0033720136,-112.6110305786,74.3860397339,72.4367294312,0.0358509421,0.0672561377,0.0052345395,10.7382707596,83.7309265137,-162.7167510986,0.0277114511,0.0203033276,0.0177384019,48.8627548218,35.4277915955,-174.5605163574,0.0611218214,-0.0151618123,-0.0078282952,
237.143,-3.2649464607,1.3617728949,27.5085868835,0.0589214340,0.0422887430,0.0072776675,-112.6522140503,74.4036941528,72.4071273804,0.0349572301,0.0605610609,0.0121358037,10.7518968582,83.7258605957,-162.6901702881,0.0233072639,0.0231909938,0.0269361138,48.8616065979,35.4304962158,-174.5512847900,0.0577423573,-0.0200131536,-0.0087987781,
237.153,-3.2643840313,1.3634154797,27.5096797943,0.0560204051,0.0403257795,-0.0078588724,-112.7091217041,74.4116668701,72.3621139526,0.0340180993,0.0500810146,0.0030543208,10.7477293015,83.7250518799,-162.6820373535,0.0203760266,0.0222195275,0.0318020582,48.8583412170,35.4330711365,-174.5429534912,0.0563141108,-0.0170333385,-0.0107697248,
237.163,-3.2651667595,1.3603311777,27.5103569031,0.0623142496,0.0418043248,0.0097182989,-112.7646102905,74.4193191528,72.3194351196,0.0379602313,0.0615807772,0.0134995580,10.7521114349,83.7236175537,-162.6647949219,0.0233029723,0.0236715302,0.0176199675,48.8562393188,35.4342727661,-174.5350036621,0.0602374077,-0.0165162086,-0.0078544617,
237.173,-3.2661118507,1.3602304459,27.5127124786,0.0584062375,0.0369379744,0.0023952127,-112.8162994385,74.4181365967,72.2803192139,0.0360015631,0.0532039106,0.0132433176,10.7654342651,83.7239532471,-162.6386566162,0.0262333155,0.0236473642,0.0127488375,48.8538360596,35.4309921265,-174.5261993408,0.0723978281,-0.0111476183,-0.0054606795,
237.183,-3.2628567219,1.3616781235,27.5126476288,0.0569666550,0.0495765544,0.0077639222,-112.8721466064,74.4083938599,72.2370986938,0.0398620963,0.0454399884,0.0072014332,10.7579593658,83.7232971191,-162.6350097656,0.0237906575,0.0202414319,0.0288475156,48.8542709351,35.4353218079,-174.5170593262,0.0573226213,-0.0199077725,-0.0142162442,
237.193,-3.2627465725,1.3623569012,27.5136928558,0.0643027127,0.0427386872,0.0106937289,-112.9054870605,74.3905105591,72.2104339600,0.0329422355,0.0417490900,0.0118571520,10.7460803986,83.7257385254,-162.6346435547,0.0208656192,0.0212486424,0.0103308558,48.8551101685,35.4377059937,-174.5067901611,0.0583331585,-0.0233154893,-0.0190742612,
237.203,-3.2613773346,1.3648589849,27.5135402679,0.0575104393,0.0451561771,0.0062984824,-112.9358596802,74.3698806763,72.1832351685,0.0328453183,0.0439645946,0.0013815165,10.7507190704,83.7236404419,-162.6215362549,0.0272092819,0.0266041532,0.0239688158,48.8552818298,35.4394836426,-174.4993133545,0.0647060871,-0.0223268867,-0.0200372934,
237.213,-3.2628660202,1.3644093275,27.5146198273,0.0638502464,0.0393227525,0.0077651739,-112.9271621704,74.3507308960,72.1871414185,0.0347083211,0.0481825471,0.0195351839,10.7541246414,83.7283935547,-162.6126098633,0.0262417793,0.0207533725,0.0142838955,48.8565826416,35.4360885620,-174.4920043945,0.0690523386,-0.0189470053,-0.0073505044,
237.223,-3.2640981674,1.3643181324,27.5151138306,0.0623838156,0.0403207764,0.0053244829,-112.9034576416,74.3327560425,72.2010192871,0.0307173729,0.0621752441,0.0166194439,10.7512836456,83.7287673950,-162.6105194092,0.0301487446,0.0207600035,0.0181954503,48.8572463989,35.4375038147,-174.4843139648,0.0573536754,-0.0223603845,-0.0122168660,
237.233,-3.2617106438,1.3652869463,27.5163307190,0.0545882136,0.0485799424,0.0072759986,-112.8668136597,74.3143768311,72.2264404297,0.0277010202,0.0561782420,0.0131614208,10.7403850555,83.7309875488,-162.6147613525,0.0238053203,0.0217641331,0.0157856345,48.8553237915,35.4365882874,-174.4805908203,0.0617351532,-0.0184432268,-0.0039429069,
237.243,-3.2624554634,1.3646968603,27.5187301636,0.0604372956,0.0417569876,0.0116709471,-112.8257446289,74.2991333008,72.2565002441,0.0320236087,0.0672315657,0.0111278296,10.7412414551,83.7307968140,-162.6101837158,0.0262463689,0.0242037810,0.0240865350,48.8548164368,35.4336395264,-174.4728240967,0.0748768449,-0.0189492106,-0.0093390942,
237.253,-3.2606410980,1.3654215336,27.5199050903,0.0575202517,0.0466081835,0.0053213835,-112.7767333984,74.2849044800,72.2938156128,0.0348860621,0.0665632486,0.0129590631,10.7122030258,83.7324218750,-162.6344451904,0.0296674371,0.0227990150,0.0206826925,48.8546295166,35.4329833984,-174.4677429199,0.0636370778,-0.0213937759,-0.0117866397,
237.263,-3.2616617680,1.3656619787,27.5209846497,0.0614307001,0.0388134569,0.0077645779,-112.7263259888,74.2765808105,72.3343048096,0.0255693793,0.0692265630,0.0118155479,10.7224521637,83.7327728271,-162.6192626953,0.0262501240,0.0237572044,0.0241106153,48.8527221680,35.4270668030,-174.4615936279,0.0747833848,-0.0140967965,-0.0025691986,
237.273,-3.2606246471,1.3652102947,27.5233936310,0.0619110987,0.0480727404,0.0062980652,-112.6624221802,74.2691879272,72.3907394409,0.0289523602,0.0714107752,0.0189075470,10.7172956467,83.7339248657,-162.6195678711,0.0257640481,0.0237707123,0.0226633549,48.8509216309,35.4270668030,-174.4560394287,0.0615997910,-0.0238455534,-0.0069829226,
237.283,-3.2591469288,1.3663892746,27.5256195068,0.0648613572,0.0431641601,0.0087386370,-112.6208648682,74.2615661621,72.4270324707,0.0357521772,0.0730690062,0.0041261911,10.7062940598,83.7350921631,-162.6233825684,0.0345553160,0.0262366608,0.0197485685,48.8528862000,35.4282836914,-174.4479675293,0.0581991673,-0.0214132071,-0.0172077417,
237.293,-3.2588062286,1.3652276993,27.5274410248,0.0623996854,0.0455996618,0.0136202574,-112.5637435913,74.2582550049,72.4797058105,0.0347599983,0.0742009282,0.0195216537,10.6864662170,83.7362136841,-162.6377258301,0.0228387117,0.0228600316,0.0241547823,48.8539161682,35.4266128540,-174.4404754639,0.0611050129,-0.0136231780,-0.0137900114,
237.303,-3.2592113018,1.3663971424,27.5297279358,0.0580255613,0.0368176252,-0.0039566755,-112.5501022339,74.2570571899,72.4933547974,0.0328011513,0.0776627362,-0.0010383725,10.6719837189,83.7362136841,-162.6472778320,0.0282098055,0.0209344551,0.0226844549,48.8577308655,35.4229812622,-174.4316711426,0.0717955828,-0.0092920065,-0.0142612457,
237.313,-3.2611339092,1.3679602146,27.5296859741,0.0521934554,0.0422221757,0.0048350692,-112.5272140503,74.2575225830,72.5169830322,0.0313385129,0.0708602369,0.0139949918,10.6846046448,83.7367782593,-162.6275177002,0.0252811909,0.0316546112,0.0251412988,48.8554687500,35.4206809998,-174.4272155762,0.0590676069,-0.0180773735,-0.0094180107,
237.323,-3.2596943378,1.3701549768,27.5301589966,0.0566262826,0.0431736074,0.0082525015,-112.5069961548,74.2580871582,72.5395812988,0.0342708826,0.0655187964,0.0090196133,10.6932001114,83.7344970703,-162.6121063232,0.0282065272,0.0233302638,0.0304774046,48.8599739075,35.4180488586,-174.4176177979,0.0727019906,-0.0122802258,-0.0147584081,
237.333,-3.2598547935,1.3710610867,27.5324478149,0.0615249053,0.0417115353,0.0087414384,-112.5087280273,74.2626724243,72.5419769287,0.0372222662,0.0737442374,0.0080214739,10.7041749954,83.7355880737,-162.5937652588,0.0277203321,0.0223361924,0.0192688704,48.8579216003,35.4188499451,-174.4125061035,0.0644125938,-0.0215322971,-0.0181930065,
237.343,-3.2579574585,1.3711482286,27.5347595215,0.0644561127,0.0446081758,0.0102042556,-112.5107116699,74.2702941895,72.5448074341,0.0304223895,0.0731348991,0.0177468061,10.7183485031,83.7355499268,-162.5705261230,0.0238140225,0.0271917023,0.0212253928,48.8586502075,35.4169120789,-174.4058685303,0.0619436502,-0.0122764707,-0.0069677234,
237.353,-3.2581152916,1.3704643250,27.5353603363,0.0605379269,0.0460757874,0.0155752897,-112.5376510620,74.2767410278,72.5261459351,0.0328943133,0.0734744370,0.0085462928,10.7327432632,83.7353973389,-162.5463714600,0.0291848183,0.0252107009,0.0226930380,48.8599815369,35.4207191467,-174.3988189697,0.0546736121,-0.0249552131,-0.0201115608,
237.363,-3.2586641312,1.3687847853,27.5365104675,0.0658797175,0.0426674187,0.0043447018,-112.5690460205,74.2860031128,72.5084533691,0.0348912477,0.0698560476,0.0091126561,10.7339468002,83.7346801758,-162.5354766846,0.0233240724,0.0271593295,0.0241466761,48.8595046997,35.4168357849,-174.3903808594,0.0726847649,-0.0137498975,-0.0094004273,
237.373,-3.2574062347,1.3672182560,27.5371341705,0.0614578538,0.0445986614,0.0145966411,-112.6068954468,74.2923202515,72.4879837036,0.0368742347,0.0682243705,0.0136325359,10.7305049896,83.7334594727,-162.5279083252,0.0223451853,0.0242321976,0.0285187364,48.8600692749,35.4193649292,-174.3807830811,0.0629550815,-0.0132477283,-0.0142604113,
237.383,-3.2577261925,1.3672448397,27.5383110046,0.0580403470,0.0411862694,0.0121555328,-112.6532821655,74.2965469360,72.4611892700,0.0285934210,0.0622156858,0.0045307875,10.7501392365,83.7319641113,-162.4977569580,0.0238071680,0.0222370103,0.0231302977,48.8588256836,35.4233818054,-174.3709411621,0.0542231202,-0.0200414062,-0.0162001848,
237.393,-3.2579376698,1.3699748516,27.5380973816,0.0590645447,0.0416781679,0.0126451850,-112.6939773560,74.2995605469,72.4387664795,0.0373967290,0.0567231476,0.0120137334,10.7717800140,83.7267684937,-162.4636077881,0.0252621174,0.0197379254,0.0328173637,48.8549613953,35.4243888855,-174.3639984131,0.0635148287,-0.0190209746,-0.0103753805,
237.403,-3.2563178539,1.3692798615,27.5374069214,0.0644235164,0.0460444987,0.0097136497,-112.7365112305,74.3059844971,72.4129486084,0.0305911303,0.0628941357,0.0106933713,10.7846288681,83.7263946533,-162.4395599365,0.0257496834,0.0192238167,0.0240260363,48.8511886597,35.4232254028,-174.3581237793,0.0634982586,-0.0160648823,-0.0016345978,
237.413,-3.2547252178,1.3684041500,27.5386295319,0.0609902628,0.0479699001,0.0058054328,-112.7694625854,74.3097763062,72.3919601440,0.0369566679,0.0564274490,0.0078831911,10.7839908600,83.7289886475,-162.4284515381,0.0223366618,0.0167919248,0.0133271813,48.8483848572,35.4233665466,-174.3526763916,0.0669182539,-0.0199437737,-0.0050815940,
237.423,-3.2518684864,1.3704838753,27.5378894806,0.0566320196,0.0440138318,0.0033620000,-112.7875061035,74.3128738403,72.3815765381,0.0364829898,0.0543941259,0.0138013959,10.8221626282,83.7286148071,-162.3804168701,0.0238007903,0.0240423158,0.0201716423,48.8455696106,35.4276390076,-174.3468627930,0.0518423319,-0.0203730464,-0.0075246096,
237.433,-3.2508900166,1.3700790405,27.5403366089,0.0576015189,0.0435085148,0.0106850863,-112.7977600098,74.3165283203,72.3756790161,0.0330823064,0.0582245290,0.0118692517,10.8149700165,83.7276077271,-162.3783111572,0.0277051330,0.0196582973,0.0230818987,48.8454399109,35.4315681458,-174.3380889893,0.0597106814,-0.0218068957,-0.0138481259,
237.443,-3.2514805794,1.3714997768,27.5414581299,0.0551849008,0.0381476805,0.0087332129,-112.8031082153,74.3214111328,72.3761596680,0.0291990638,0.0630222857,0.0143023729,10.8140859604,83.7277679443,-162.3692932129,0.0223343372,0.0196604319,0.0216190815,48.8475761414,35.4295501709,-174.3294830322,0.0704241991,-0.0154945254,-0.0113968253,
237.453,-3.2521624565,1.3692649603,27.5433521271,0.0595404357,0.0420658551,0.0087330341,-112.8045425415,74.3216857910,72.3837890625,0.0335949063,0.0615506470,0.0147950649,10.8179540634,83.7260818481,-162.3544158936,0.0252608061,0.0250186846,0.0269628763,48.8466911316,35.4301071167,-174.3205108643,0.0631078482,-0.0208531022,-0.0084726810,
237.463,-3.2512481213,1.3690857887,27.5456809998,0.0634435639,0.0410733745,0.0155675411,-112.8073196411,74.3214492798,72.3928680420,0.0257812738,0.0620375276,0.0104141831,10.8123922348,83.7274551392,-162.3501281738,0.0262399912,0.0211275294,0.0235664248,48.8490676880,35.4320182800,-174.3097229004,0.0494632125,-0.0096303225,-0.0138057470,
237.473,-3.2508873940,1.3701456785,27.5474662781,0.0541847125,0.0415553451,0.0004312992,-112.8044586182,74.3149948120,72.4067153931,0.0316101909,0.0504235625,0.0026312470,10.7922182083,83.7274551392,-162.3598785400,0.0213571787,0.0211658739,0.0216052532,48.8474388123,35.4337539673,-174.3012695313,0.0558354855,-0.0232737064,-0.0147880316,
237.483,-3.2495844364,1.3691045046,27.5486469269,0.0639321730,0.0469037704,0.0116601586,-112.7820510864,74.3088989258,72.4352951050,0.0335345268,0.0549534857,0.0201509595,10.7794952393,83.7298660278,-162.3652496338,0.0228266120,0.0211977661,0.0172462463,48.8464431763,35.4379959106,-174.2927093506,0.0539427400,-0.0246970057,-0.0157476664,
237.493,-3.2502365112,1.3698177338,27.5497150421,0.0619914904,0.0400791690,0.0097079277,-112.7603988647,74.3020553589,72.4589920044,0.0364319682,0.0550986230,0.0069170594,10.7698841095,83.7311172485,-162.3655853271,0.0286883712,0.0173137225,0.0157982707,48.8455009460,35.4421844482,-174.2845001221,0.0525374413,-0.0241678357,-0.0201234818,
237.503,-3.2492802143,1.3686248064,27.5508975983,0.0619706772,0.0415273905,0.0023818016,-112.7323989868,74.2984771729,72.4849243164,0.0354384780,0.0600880384,0.0087709427,10.7603111267,83.7329940796,-162.3678588867,0.0228325725,0.0227090120,0.0187557340,48.8464088440,35.4453506470,-174.2766418457,0.0584418774,-0.0236641169,-0.0205817819,
237.513,-3.2500672340,1.3674585819,27.5496406555,0.0614620447,0.0420294106,0.0043356419,-112.7054214478,74.2941894531,72.5071945190,0.0368830562,0.0636217296,0.0111220479,10.7581396103,83.7353668213,-162.3639831543,0.0233253837,0.0246738642,0.0207480192,48.8470268250,35.4441452026,-174.2703247070,0.0701434016,-0.0187962651,-0.0132586360,
237.523,-3.2502596378,1.3653498888,27.5502605438,0.0628900975,0.0439859293,0.0018935800,-112.6888580322,74.2926406860,72.5200881958,0.0378522873,0.0695348978,0.0110595226,10.7451972961,83.7329559326,-162.3689422607,0.0272270441,0.0242026746,0.0324222445,48.8443946838,35.4411201477,-174.2628173828,0.0676589608,-0.0217243433,-0.0010998249,
237.533,-3.2530620098,1.3653047085,27.5495643616,0.0599596202,0.0391519368,0.0087318420,-112.6729354858,74.2887878418,72.5346527100,0.0329512954,0.0627876222,0.0110145807,10.7535142899,83.7345886230,-162.3532257080,0.0213707685,0.0212623179,0.0163393021,48.8418998718,35.4371604919,-174.2559356689,0.0715090036,-0.0168483853,-0.0060362220,
237.543,-3.2517495155,1.3673626184,27.5530738831,0.0575541221,0.0425469875,0.0033608675,-112.6608734131,74.2862396240,72.5473785400,0.0378220677,0.0643138587,0.0158611536,10.7435350418,83.7339019775,-162.3552246094,0.0233225822,0.0222559310,0.0226731300,48.8439140320,35.4326515198,-174.2489166260,0.0724214315,-0.0154365301,-0.0123915672,
237.553,-3.2498538494,1.3662197590,27.5536899567,0.0619287118,0.0469085313,0.0092170238,-112.6584396362,74.2830657959,72.5541687012,0.0319476724,0.0653443635,0.0051288009,10.7547683716,83.7336120605,-162.3360290527,0.0272282958,0.0256515220,0.0280432105,48.8452339172,35.4299087524,-174.2412109375,0.0714057684,-0.0159583092,-0.0099551082,
237.563,-3.2490563393,1.3662817478,27.5548992157,0.0575352609,0.0473829098,0.0004279613,-112.6563262939,74.2849578857,72.5591506958,0.0280503631,0.0706899464,0.0182908773,10.7454242706,83.7363357544,-162.3362731934,0.0277217627,0.0227481835,0.0173425674,48.8483848572,35.4327507019,-174.2323913574,0.0577743649,-0.0223135948,-0.0221087337,
237.573,-3.2478389740,1.3659003973,27.5567131042,0.0594817325,0.0444320291,0.0087268949,-112.6641693115,74.2879180908,72.5570068359,0.0358768702,0.0677002072,0.0080523491,10.7598752975,83.7385330200,-162.3139953613,0.0277259350,0.0251689926,0.0090835094,48.8462677002,35.4360313416,-174.2262115479,0.0553796291,-0.0222689509,-0.0084384680,
237.583,-3.2505810261,1.3667608500,27.5584068298,0.0594967492,0.0391086861,0.0111721754,-112.6733932495,74.2920608521,72.5532760620,0.0363847017,0.0720139742,0.0124604702,10.7767887115,83.7380905151,-162.2878875732,0.0257719755,0.0241589285,0.0217781663,48.8419952393,35.4399147034,-174.2202148438,0.0554348230,-0.0256172419,-0.0104105473,
237.593,-3.2507607937,1.3694061041,27.5588684082,0.0571014956,0.0439945608,0.0053129792,-112.6816177368,74.2960128784,72.5513305664,0.0364034176,0.0646134317,0.0158887506,10.7668523788,83.7381210327,-162.2898254395,0.0247954726,0.0197831504,0.0227499008,48.8417358398,35.4400253296,-174.2129364014,0.0676434636,-0.0148718357,-0.0084602237,
237.603,-3.2517039776,1.3682954311,27.5593757629,0.0639180541,0.0391282067,0.0082437396,-112.6961364746,74.3008651733,72.5444107056,0.0393559933,0.0635352135,0.0110383034,10.7877874374,83.7396545410,-162.2603454590,0.0262632370,0.0241427831,0.0149711370,48.8418617249,35.4405593872,-174.2037506104,0.0588619709,-0.0153570771,-0.0084544420,
237.613,-3.2512464523,1.3679649830,27.5598945618,0.0634240061,0.0440030582,0.0106846094,-112.7179260254,74.3041687012,72.5309982300,0.0359536409,0.0644213557,0.0072057843,10.8024711609,83.7408447266,-162.2376861572,0.0213826895,0.0241187885,0.0213450789,48.8392372131,35.4384155273,-174.1976470947,0.0666439533,-0.0182787180,-0.0089860559,
237.623,-3.2519817352,1.3696455956,27.5615463257,0.0585705191,0.0376681760,0.0053150654,-112.7314910889,74.3075408936,72.5258255005,0.0276687741,0.0560426116,0.0052902699,10.7887144089,83.7384033203,-162.2439422607,0.0223546028,0.0197427310,0.0291121602,48.8355140686,35.4375038147,-174.1924591064,0.0593068600,-0.0148326755,-0.0031716228,
237.633,-3.2512397766,1.3712332249,27.5626182556,0.0610396266,0.0449794270,0.0087324381,-112.7456588745,74.3094787598,72.5202331543,0.0350021124,0.0633119345,0.0077811480,10.7933635712,83.7355270386,-162.2299957275,0.0286967754,0.0231426880,0.0324836969,48.8368721008,35.4351921082,-174.1836700439,0.0690395236,-0.0153514147,-0.0095212460,
237.643,-3.2522714138,1.3702169657,27.5637340546,0.0639515817,0.0386497676,0.0145930648,-112.7583541870,74.3107147217,72.5153198242,0.0320782661,0.0603405237,0.0092934370,10.7920627594,83.7400665283,-162.2229461670,0.0243108869,0.0265775286,0.0154688358,48.8349952698,35.4353408813,-174.1759948730,0.0617174506,-0.0216802359,-0.0080744624,
237.653,-3.2523975372,1.3671429157,27.5668010712,0.0648745075,0.0396286026,0.0087319613,-112.7788772583,74.3111267090,72.5038528442,0.0350099206,0.0588311255,0.0030328035,10.7764663696,83.7404708862,-162.2299041748,0.0238233805,0.0197723284,0.0198631287,48.8337821960,35.4331359863,-174.1698303223,0.0660806298,-0.0207092762,-0.0085914731,
237.663,-3.2532103062,1.3653905392,27.5679779053,0.0643556491,0.0415959246,0.0136151314,-112.7885894775,74.3101501465,72.4989471436,0.0384232998,0.0549218059,0.0050346255,10.7658491135,83.7414169312,-162.2329406738,0.0257782936,0.0144247450,0.0169471502,48.8320693970,35.4276542664,-174.1635437012,0.0723503232,-0.0129222870,-0.0022976995,
237.673,-3.2545027733,1.3633468151,27.5679264069,0.0648082718,0.0401536487,0.0053148866,-112.7842407227,74.3094329834,72.5053329468,0.0359784961,0.0573821962,0.0084381700,10.7519178391,83.7433242798,-162.2377929688,0.0248053670,0.0237346292,0.0164855719,48.8308830261,35.4266929626,-174.1559143066,0.0615944862,-0.0168249011,-0.0140361786,
237.683,-3.2550456524,1.3626478910,27.5702590942,0.0647960752,0.0426045246,0.0033620000,-112.7863769531,74.3106689453,72.5031890869,0.0325663686,0.0573599041,0.0074629784,10.7570610046,83.7432327271,-162.2259521484,0.0199223757,0.0251894370,0.0267400146,48.8266868591,35.4260292053,-174.1520996094,0.0650030375,-0.0265561938,-0.0052959919,
237.693,-3.2558691502,1.3627882004,27.5701332092,0.0613805577,0.0396891758,0.0033629537,-112.7754821777,74.3098754883,72.5123825073,0.0364688635,0.0583682954,0.0108383894,10.7726793289,83.7418746948,-162.2031250000,0.0306620002,0.0295498557,0.0203748941,48.8293533325,35.4280586243,-174.1431884766,0.0601490736,-0.0172884464,-0.0179498196,
237.703,-3.2572011948,1.3626757860,27.5700340271,0.0623551607,0.0421537906,0.0058051944,-112.7665405273,74.3093490601,72.5175247192,0.0345132351,0.0642527938,0.0073848963,10.7705307007,83.7415695190,-162.1992187500,0.0252903104,0.0241818540,0.0189040303,48.8304634094,35.4272918701,-174.1362152100,0.0689272285,-0.0173045397,-0.0125712156,
237.713,-3.2572698593,1.3628091812,27.5712108612,0.0574746728,0.0421549939,0.0062938929,-112.7631149292,74.3076019287,72.5203399658,0.0359698534,0.0618437827,0.0020101070,10.7562437057,83.7407531738,-162.2079467773,0.0277301669,0.0217649937,0.0232794881,48.8344612122,35.4264488220,-174.1269683838,0.0635440946,-0.0144188404,-0.0149760246,
237.723,-3.2572479248,1.3629443645,27.5711040497,0.0613832772,0.0426428765,0.0028760433,-112.7494049072,74.3065032959,72.5341567993,0.0344998240,0.0594444275,0.0141642690,10.7687492371,83.7396240234,-162.1895599365,0.0296811461,0.0319915973,0.0261952281,48.8357582092,35.4254913330,-174.1185302734,0.0635305047,-0.0163913369,-0.0081323385,
237.733,-3.2573952675,1.3649886847,27.5721931458,0.0570244230,0.0441102497,0.0004355311,-112.7353363037,74.3057632446,72.5503005981,0.0305900574,0.0609468520,0.0141077638,10.7715110779,83.7410964966,-162.1795654297,0.0301722288,0.0251549073,0.0184073448,48.8349533081,35.4239120483,-174.1102600098,0.0669260621,-0.0144427419,-0.0120577812,
237.743,-3.2581479549,1.3638311625,27.5733909607,0.0599339083,0.0397288539,0.0087366700,-112.7264862061,74.3047485352,72.5601501465,0.0335149765,0.0609785318,0.0087044835,10.7667894363,83.7398147583,-162.1761474609,0.0252869725,0.0183238834,0.0242435336,48.8346138000,35.4209938049,-174.1031951904,0.0668845177,-0.0193445086,-0.0062212348,
237.753,-3.2561600208,1.3664811850,27.5744876862,0.0550973341,0.0450652540,0.0062942505,-112.7189025879,74.3054428101,72.5680847168,0.0364479423,0.0653768480,0.0115963817,10.7622747421,83.7380294800,-162.1738586426,0.0277249813,0.0222333372,0.0232373476,48.8323135376,35.4250984192,-174.0968017578,0.0513178706,-0.0207566023,-0.0120781064,
237.763,-3.2576603889,1.3657581806,27.5755996704,0.0624089390,0.0372789055,0.0009244084,-112.7112884521,74.3079299927,72.5744476318,0.0315768719,0.0707228184,0.0164298415,10.7486028671,83.7376251221,-162.1808166504,0.0272359252,0.0222578309,0.0242004991,48.8315086365,35.4237442017,-174.0899810791,0.0679001808,-0.0212476850,-0.0160018802,
237.773,-3.2578787804,1.3688223362,27.5765724182,0.0580678731,0.0372826383,0.0106915236,-112.7032241821,74.3075714111,72.5817642212,0.0359696746,0.0643954277,0.0076079965,10.7598180771,83.7370910645,-162.1615753174,0.0272349119,0.0236996375,0.0266372561,48.8317527771,35.4209899902,-174.0820159912,0.0810446143,-0.0154114962,-0.0096699595,
237.783,-3.2574346066,1.3692728281,27.5783557892,0.0585640147,0.0460639521,0.0043436885,-112.6951217651,74.3087768555,72.5899353027,0.0291394591,0.0634151399,0.0139123201,10.7494640350,83.7332077026,-162.1638488770,0.0199033022,0.0222423486,0.0338937044,48.8296775818,35.4212722778,-174.0761871338,0.0649353862,-0.0173430443,-0.0121316314,
237.793,-3.2566204071,1.3696141243,27.5788612366,0.0610113740,0.0431200787,0.0092258453,-112.7032546997,74.3070373535,72.5871353149,0.0340140462,0.0653803051,0.0032169819,10.7630100250,83.7318649292,-162.1411743164,0.0242952704,0.0256303102,0.0231342912,48.8282623291,35.4210777283,-174.0714874268,0.0624911785,-0.0231906772,-0.0111716390,
237.803,-3.2560157776,1.3710815907,27.5805702209,0.0590838566,0.0445743464,-0.0015166998,-112.7134170532,74.3102951050,72.5848999023,0.0335411429,0.0765413344,0.0144707561,10.7594404221,83.7332382202,-162.1354522705,0.0223447680,0.0197819285,0.0221784711,48.8273811340,35.4178466797,-174.0646362305,0.0756287575,-0.0178359151,-0.0092495084,
237.813,-3.2562296391,1.3705363274,27.5817050934,0.0620040298,0.0416483991,0.0067846179,-112.7232208252,74.3106994629,72.5851593018,0.0345196128,0.0667524338,0.0086516738,10.7708244324,83.7331161499,-162.1143188477,0.0199031234,0.0265958868,0.0260874629,48.8251457214,35.4216423035,-174.0566864014,0.0576163530,-0.0177860856,-0.0082714558,
237.823,-3.2582275867,1.3722132444,27.5833683014,0.0610567257,0.0416831635,0.0145987868,-112.7326660156,74.3101348877,72.5880279541,0.0291458368,0.0618610084,0.0091848969,10.7598209381,83.7363357544,-162.1154785156,0.0291866064,0.0178379714,0.0134416223,48.8264427185,35.4200096130,-174.0482025146,0.0683353543,-0.0114630461,-0.0102217197,
237.833,-3.2568888664,1.3715686798,27.5863666534,0.0605572015,0.0426364243,0.0062972903,-112.7627639771,74.3106384277,72.5698013306,0.0335427523,0.0632629097,-0.0028938651,10.7639017105,83.7372436523,-162.1009826660,0.0247938037,0.0232042074,0.0183414817,48.8268051147,35.4217071533,-174.0380859375,0.0649415255,-0.0173128843,-0.0150892735,
237.843,-3.2586326599,1.3737287521,27.5874195099,0.0591300465,0.0426667482,0.0116705894,-112.7726821899,74.3137664795,72.5702133179,0.0335575342,0.0627077818,0.0103128552,10.7774419785,83.7370529175,-162.0782470703,0.0286996961,0.0226893388,0.0232245922,48.8235626221,35.4260406494,-174.0304412842,0.0542609692,-0.0245737433,-0.0097241998,
237.853,-3.2596061230,1.3730480671,27.5898246765,0.0605830103,0.0431720093,0.0067887902,-112.7783050537,74.3156661987,72.5737304688,0.0325899124,0.0636453629,0.0132547617,10.7764739990,83.7374649048,-162.0699310303,0.0203996897,0.0192746185,0.0188371539,48.8226165771,35.4283218384,-174.0221405029,0.0645473599,-0.0250357985,-0.0106956363,
237.863,-3.2585942745,1.3710972071,27.5928745270,0.0629903823,0.0436427072,0.0062987208,-112.7869949341,74.3170013428,72.5707931519,0.0335727930,0.0582377911,0.0113309622,10.7766571045,83.7363662720,-162.0612030029,0.0223507285,0.0265952274,0.0276093483,48.8232040405,35.4289741516,-174.0140686035,0.0674862862,-0.0221066475,-0.0170326829,
237.873,-3.2590539455,1.3688849211,27.5946559906,0.0658814609,0.0407210812,0.0082512498,-112.7930450439,74.3204498291,72.5685806274,0.0277296901,0.0635437071,0.0142646432,10.7649631500,83.7386245728,-162.0642700195,0.0267495513,0.0178354532,0.0129935145,48.8202667236,35.4288787842,-174.0076904297,0.0660201311,-0.0186619163,-0.0102287531,
237.883,-3.2596011162,1.3690649271,27.5945529938,0.0614900738,0.0426837355,0.0102050304,-112.8099899292,74.3218154907,72.5560684204,0.0248064399,0.0620273948,0.0021226406,10.7541732788,83.7359008789,-162.0656585693,0.0277209282,0.0173590258,0.0290570855,48.8211059570,35.4277229309,-174.0006103516,0.0669802427,-0.0201433897,-0.0131571889,
237.893,-3.2584302425,1.3695238829,27.5951538086,0.0561269857,0.0465695709,0.0033680797,-112.8174133301,74.3246307373,72.5545883179,0.0336087942,0.0624579042,0.0104376078,10.7657833099,83.7346191406,-162.0454711914,0.0243005157,0.0246570557,0.0231804252,48.8222694397,35.4309501648,-173.9921569824,0.0543307662,-0.0137820244,-0.0116582513,
237.903,-3.2598526478,1.3712488413,27.5987091064,0.0566453673,0.0436646193,0.0053235292,-112.8173828125,74.3246765137,72.5597457886,0.0311675668,0.0590398014,0.0162966251,10.7566795349,83.7325515747,-162.0452423096,0.0247848630,0.0197849423,0.0314428806,48.8194427490,35.4329147339,-173.9850463867,0.0553353429,-0.0205765367,-0.0067926645,
237.913,-3.2605776787,1.3719377518,27.5986499786,0.0576339513,0.0441655219,0.0126486421,-112.8262023926,74.3246765137,72.5571899414,0.0311675668,0.0639064014,0.0075458288,10.7671203613,83.7314529419,-162.0256805420,0.0301538706,0.0261092298,0.0197096467,48.8176193237,35.4359130859,-173.9783782959,0.0548896790,-0.0224897861,-0.0087453723,
237.923,-3.2618134022,1.3718161583,27.6009883881,0.0630029216,0.0422339216,0.0092314482,-112.8264694214,74.3235702515,72.5628585815,0.0336037874,0.0600167513,0.0134136677,10.7575721741,83.7315826416,-162.0247650146,0.0242947340,0.0207567401,0.0241028666,48.8213577271,35.4361724854,-173.9685363770,0.0631940961,-0.0171517134,-0.0174926519,
237.933,-3.2629961967,1.3710428476,27.6014900208,0.0644542724,0.0427428260,-0.0024861097,-112.8251342773,74.3230514526,72.5739822388,0.0345779061,0.0663746744,0.0168291330,10.7625961304,83.7305221558,-162.0099487305,0.0238044262,0.0246499889,0.0250632167,48.8215141296,35.4377593994,-173.9593658447,0.0578455925,-0.0225121975,-0.0116209984,
237.943,-3.2635173798,1.3716951609,27.6014118195,0.0595828407,0.0471464209,0.0028858781,-112.8240966797,74.3210296631,72.5829696655,0.0238261819,0.0581072569,0.0119550228,10.7500114441,83.7348327637,-162.0122985840,0.0262540579,0.0251760036,0.0143889189,48.8190536499,35.4382476807,-173.9527740479,0.0578525662,-0.0185791850,-0.0087144375,
237.953,-3.2623369694,1.3739501238,27.6013011932,0.0562042184,0.0466375276,0.0053271055,-112.8303222656,74.3190536499,72.5826416016,0.0365121365,0.0600795746,0.0032060146,10.7413988113,83.7347106934,-162.0122680664,0.0208827257,0.0227509029,0.0251277685,48.8189849854,35.4341583252,-173.9448394775,0.0729311109,-0.0147034526,-0.0106955767,
237.963,-3.2619969845,1.3712813854,27.6025333405,0.0629935935,0.0393074453,0.0063021183,-112.8242111206,74.3175735474,72.5895080566,0.0330871940,0.0542539358,0.0075834394,10.7330608368,83.7371520996,-162.0144653320,0.0228404999,0.0203329474,0.0212582350,48.8187828064,35.4333648682,-173.9372253418,0.0695018768,-0.0191020966,-0.0082616210,
237.973,-3.2608301640,1.3719642162,27.6030712128,0.0576344132,0.0422167853,0.0082542300,-112.8267288208,74.3163833618,72.5859069824,0.0369878411,0.0596389771,0.0056489110,10.7539033890,83.7368087769,-161.9857025146,0.0257695317,0.0251747742,0.0237001777,48.8158569336,35.4318580627,-173.9336395264,0.0738749504,-0.0229924321,-0.0097677708,
237.983,-3.2620646954,1.3688454628,27.6049289703,0.0649042130,0.0422383696,0.0116721988,-112.8171310425,74.3169326782,72.5908889771,0.0384553075,0.0581831932,0.0070683956,10.7307243347,83.7343978882,-162.0007171631,0.0247883797,0.0183756314,0.0290243030,48.8137741089,35.4305648804,-173.9270935059,0.0675089359,-0.0107756853,-0.0073572397,
237.993,-3.2620775700,1.3664087057,27.6060962677,0.0663265437,0.0402855277,0.0028820634,-112.8047637939,74.3176269531,72.6017227173,0.0335757136,0.0679608881,0.0138458610,10.7588644028,83.7314300537,-161.9683227539,0.0267358422,0.0280782506,0.0275201797,48.8144531250,35.4292182922,-173.9189605713,0.0713959932,-0.0137220621,-0.0132184625,
238.003,-3.2607212067,1.3654476404,27.6060752869,0.0609386750,0.0451447330,0.0028803349,-112.8127517700,74.3202743530,72.5942916870,0.0316351056,0.0698586702,0.0026329160,10.7519912720,83.7296447754,-161.9684600830,0.0242910385,0.0236909650,0.0265102386,48.8170127869,35.4326400757,-173.9121856689,0.0563079715,-0.0151847601,-0.0190275908,
238.013,-3.2611448765,1.3682937622,27.6052551270,0.0561055243,0.0368512683,0.0038585663,-112.8150787354,74.3218765259,72.5955047607,0.0321309566,0.0615284443,0.0109336376,10.7712478638,83.7316741943,-161.9425201416,0.0257597566,0.0246374235,0.0177630186,48.8167266846,35.4349555969,-173.9049530029,0.0548760295,-0.0176059008,-0.0043668151,
238.023,-3.2613220215,1.3681253195,27.6063575745,0.0629385263,0.0417371690,0.0097182989,-112.8091964722,74.3235321045,72.6063385010,0.0282325149,0.0678611398,0.0167564750,10.7697820663,83.7323608398,-161.9355010986,0.0272259116,0.0246423371,0.0172852874,48.8184242249,35.4370269775,-173.8948516846,0.0573469400,-0.0176060200,-0.0126356483,
238.033,-3.2614066601,1.3680876493,27.6075096130,0.0580550544,0.0378323942,0.0058120489,-112.8233795166,74.3197708130,72.5965042114,0.0277264714,0.0581280589,0.0021944046,10.7822065353,83.7337112427,-161.9145965576,0.0296698809,0.0251112282,0.0158475041,48.8151741028,35.4387092590,-173.8893737793,0.0559059381,-0.0214689970,-0.0038702488,
238.043,-3.2602074146,1.3664649725,27.6087493896,0.0614447072,0.0466005988,0.0053219795,-112.8212432861,74.3200225830,72.6039733887,0.0355401635,0.0620337427,0.0148788095,10.7784976959,83.7327117920,-161.9115600586,0.0257617235,0.0221853890,0.0212001801,48.8150939941,35.4381256104,-173.8802337646,0.0690813065,-0.0146368146,-0.0068045259,
238.053,-3.2603664398,1.3661357164,27.6105289459,0.0589975566,0.0397674516,-0.0000495911,-112.8179473877,74.3211975098,72.6101531982,0.0301746130,0.0639764667,0.0099738240,10.7829380035,83.7303619385,-161.8996887207,0.0252689719,0.0221694484,0.0250687003,48.8160247803,35.4375724792,-173.8719635010,0.0700500011,-0.0190442204,-0.0155873895,
238.063,-3.2606635094,1.3667129278,27.6110172272,0.0604724735,0.0412374511,0.0175297856,-112.8162384033,74.3237380981,72.6133575439,0.0345811248,0.0663807392,0.0162976384,10.7993993759,83.7304000854,-161.8751068115,0.0238041878,0.0192084722,0.0206807852,48.8176231384,35.4383316040,-173.8625640869,0.0651779771,-0.0156354308,-0.0126352906,
238.073,-3.2617261410,1.3660161495,27.6121940613,0.0624134429,0.0451622270,0.0033693910,-112.8231964111,74.3241882324,72.6099853516,0.0306770205,0.0634311438,0.0094891191,10.8042964935,83.7305831909,-161.8610992432,0.0257576704,0.0255473778,0.0206855536,48.8171997070,35.4389953613,-173.8558044434,0.0627460480,-0.0170913935,-0.0111712217,
238.083,-3.2589850426,1.3646441698,27.6121387482,0.0648309141,0.0456027910,0.0111792684,-112.8337020874,74.3236618042,72.6061401367,0.0379987359,0.0619553626,0.0085618496,10.8098812103,83.7314529419,-161.8462982178,0.0282007456,0.0211448856,0.0202133060,48.8223915100,35.4369468689,-173.8440093994,0.0719941854,-0.0108077526,-0.0169877410,
238.093,-3.2589967251,1.3679808378,27.6132011414,0.0526820943,0.0402318165,0.0058091283,-112.8558197021,74.3245544434,72.5925903320,0.0321435928,0.0687368661,0.0057227612,10.8131685257,83.7285766602,-161.8336791992,0.0257538557,0.0206413120,0.0265148878,48.8214340210,35.4337005615,-173.8361663818,0.0719480515,-0.0137534142,-0.0053018332,
238.103,-3.2577149868,1.3660978079,27.6162261963,0.0648562759,0.0446040630,0.0053189993,-112.8591308594,74.3260879517,72.5979537964,0.0301976800,0.0613830090,0.0184226036,10.8347730637,83.7245483398,-161.8034515381,0.0252578855,0.0259582475,0.0293847322,48.8164329529,35.4370346069,-173.8306732178,0.0505111217,-0.0263762474,-0.0053322911,
238.113,-3.2587995529,1.3656153679,27.6168193817,0.0575236343,0.0407167189,0.0111794472,-112.8696899414,74.3285293579,72.5963897705,0.0302091837,0.0647434890,0.0116169453,10.8353128433,83.7222442627,-161.7955322266,0.0306245685,0.0225318670,0.0244634151,48.8204040527,35.4414634705,-173.8191833496,0.0535037518,-0.0156377554,-0.0120971799,
238.123,-3.2589075565,1.3624515533,27.6186904907,0.0647926480,0.0441366471,0.0048304200,-112.8685455322,74.3279342651,72.6069869995,0.0360657573,0.0603602827,0.0101510286,10.8155412674,83.7208938599,-161.8073425293,0.0276923180,0.0230535232,0.0273631215,48.8205299377,35.4455718994,-173.8114318848,0.0486793518,-0.0209785104,-0.0179268122,
238.133,-3.2594141960,1.3634680510,27.6191787720,0.0584627315,0.0407274812,0.0038550496,-112.8573989868,74.3308258057,72.6237335205,0.0311965942,0.0618010163,0.0174076557,10.8208961487,83.7221450806,-161.7928161621,0.0262298584,0.0250006132,0.0210396051,48.8191757202,35.4433174133,-173.8052673340,0.0672019720,-0.0146355629,-0.0091682076,
238.143,-3.2584776878,1.3634388447,27.6197223663,0.0599270612,0.0436408557,0.0023893118,-112.8491287231,74.3318176270,72.6360549927,0.0351074934,0.0622898340,0.0198065639,10.8116445541,83.7205200195,-161.7927856445,0.0193908215,0.0196419097,0.0244264007,48.8209686279,35.4451560974,-173.7964324951,0.0633218884,-0.0165912509,-0.0130420327,
238.153,-3.2575228214,1.3642169237,27.6208477020,0.0594523586,0.0436242037,0.0048295856,-112.8574981689,74.3315124512,72.6323547363,0.0385240316,0.0627674162,0.0027552843,10.8177013397,83.7204208374,-161.7774963379,0.0242734551,0.0220714808,0.0195443630,48.8195991516,35.4440917969,-173.7885437012,0.0652598739,-0.0229343772,-0.0076934099,
238.163,-3.2582216263,1.3664345741,27.6236629486,0.0614441782,0.0397300683,0.0116675496,-112.8534164429,74.3306350708,72.6399993896,0.0355902314,0.0583937764,0.0134852529,10.8313808441,83.7211151123,-161.7527923584,0.0252513289,0.0230240002,0.0205367208,48.8190689087,35.4472808838,-173.7800903320,0.0535864830,-0.0199754238,-0.0145136714,
238.173,-3.2585585117,1.3664838076,27.6254100800,0.0599801913,0.0412007831,0.0048319697,-112.8531112671,74.3323440552,72.6463699341,0.0331568718,0.0622739494,0.0134727955,10.8300924301,83.7245483398,-161.7459411621,0.0237930417,0.0166898854,0.0210824609,48.8199844360,35.4445457458,-173.7728881836,0.0721022487,-0.0112156868,-0.0086627007,
238.183,-3.2570931911,1.3662205935,27.6265239716,0.0653466955,0.0475229174,0.0077601671,-112.8671646118,74.3351058960,72.6383590698,0.0326815844,0.0622057915,0.0066802502,10.8131227493,83.7269515991,-161.7536773682,0.0233093500,0.0181947351,0.0152568817,48.8217315674,35.4418067932,-173.7634277344,0.0749930143,-0.0112529993,-0.0159864426,
238.193,-3.2552640438,1.3671079874,27.6258945465,0.0565731153,0.0489558801,0.0048285723,-112.8635635376,74.3340148926,72.6468276978,0.0365827084,0.0617410243,0.0139958858,10.8232069016,83.7281188965,-161.7338256836,0.0257529616,0.0250152200,0.0211398602,48.8190574646,35.4432029724,-173.7564849854,0.0657355189,-0.0195180774,-0.0106343627,
238.203,-3.2565565109,1.3675874472,27.6258068085,0.0580463260,0.0401893221,0.0028771758,-112.8595352173,74.3368682861,72.6559219360,0.0380609632,0.0617040992,0.0115184784,10.8272552490,83.7265548706,-161.7187500000,0.0233085752,0.0230491571,0.0269730687,48.8199806213,35.4463157654,-173.7479095459,0.0550376177,-0.0243858695,-0.0125575066,
238.213,-3.2565705776,1.3680018187,27.6287765503,0.0609832443,0.0465372130,0.0019006729,-112.8603973389,74.3403625488,72.6614990234,0.0288001299,0.0631129742,0.0168703794,10.8129129410,83.7282638550,-161.7226409912,0.0194056034,0.0201526135,0.0152795911,48.8235778809,35.4483451843,-173.7377929688,0.0565313101,-0.0131735206,-0.0222707391,
238.223,-3.2576036453,1.3679262400,27.6293525696,0.0580522344,0.0431372449,0.0053198338,-112.8629455566,74.3433761597,72.6665725708,0.0302791595,0.0640387833,0.0095377564,10.7991085052,83.7283325195,-161.7271118164,0.0257533789,0.0187142156,0.0245527625,48.8254127502,35.4478988647,-173.7261352539,0.0736147761,-0.0166121721,-0.0207892656,
238.233,-3.2578999996,1.3659503460,27.6305198669,0.0648536980,0.0392362028,0.0062954426,-112.8737258911,74.3470230103,72.6638107300,0.0332260132,0.0590798855,0.0061429739,10.8081541061,83.7284240723,-161.7088928223,0.0247769952,0.0230916366,0.0230916142,48.8236541748,35.4480972290,-173.7183990479,0.0643402338,-0.0209886432,-0.0110410452,
238.243,-3.2582983971,1.3654320240,27.6310501099,0.0619149655,0.0431494005,0.0102025867,-112.8808288574,74.3505401611,72.6659164429,0.0327543020,0.0609658062,0.0100572109,10.8098621368,83.7278594971,-161.6985626221,0.0247759223,0.0225982592,0.0235710144,48.8221588135,35.4503250122,-173.7115936279,0.0546063185,-0.0219342709,-0.0095773935,
238.253,-3.2578067780,1.3648605347,27.6334228516,0.0648346841,0.0460705347,0.0155719519,-112.8890991211,74.3544921875,72.6664962769,0.0317963362,0.0647958219,0.0071378946,10.8046503067,83.7259216309,-161.6945800781,0.0194011331,0.0255317762,0.0313495994,48.8232612610,35.4539108276,-173.7028503418,0.0551456213,-0.0189875960,-0.0149129033,
238.263,-3.2575764656,1.3641936779,27.6352062225,0.0604285151,0.0431368537,0.0072713494,-112.9007415771,74.3547210693,72.6617507935,0.0303325653,0.0589117110,0.0037690401,10.8064317703,83.7261428833,-161.6822967529,0.0262374878,0.0206464082,0.0225656629,48.8209114075,35.4558219910,-173.6963195801,0.0478484631,-0.0282284617,-0.0080892444,
238.273,-3.2586519718,1.3661079407,27.6356334686,0.0599736348,0.0407141373,0.0145970583,-112.8952331543,74.3562316895,72.6749267578,0.0322927833,0.0569448471,0.0169189572,10.7839221954,83.7261428833,-161.6962127686,0.0223312378,0.0216657929,0.0259748697,48.8223915100,35.4516716003,-173.6864013672,0.0736684203,-0.0126488209,-0.0110307336,
238.283,-3.2602014542,1.3668552637,27.6367683411,0.0575452745,0.0412293971,0.0087398291,-112.9105758667,74.3551483154,72.6663284302,0.0327759981,0.0608400106,0.0052738786,10.7849769592,83.7258987427,-161.6858520508,0.0262370110,0.0201983526,0.0220660567,48.8219299316,35.4554252625,-173.6793060303,0.0551670790,-0.0248229504,-0.0134521723,
238.293,-3.2597613335,1.3681360483,27.6378650665,0.0575676188,0.0397568531,0.0009275079,-112.9111251831,74.3553848267,72.6674728394,0.0376598835,0.0583935082,0.0096694231,10.8041009903,83.7255477905,-161.6588134766,0.0247715116,0.0245552063,0.0196251869,48.8242607117,35.4526023865,-173.6695861816,0.0697754025,-0.0146123767,-0.0080748796,
238.303,-3.2593150139,1.3669866323,27.6396770477,0.0619420931,0.0460967682,0.0023915172,-112.9194717407,74.3538055420,72.6596832275,0.0366759300,0.0618211925,0.0077627897,10.8214330673,83.7290496826,-161.6342010498,0.0198953748,0.0235565566,0.0162706971,48.8219375610,35.4511337280,-173.6632995605,0.0658482909,-0.0233908892,-0.0081095695,
238.313,-3.2604091167,1.3673886061,27.6401329041,0.0629256666,0.0407447219,0.0087404847,-112.9154129028,74.3517684937,72.6618881226,0.0327600837,0.0623483658,0.0111764073,10.8126010895,83.7267379761,-161.6365661621,0.0247737765,0.0167305134,0.0318566561,48.8233718872,35.4531135559,-173.6561279297,0.0590404272,-0.0175298452,-0.0105222464,
238.323,-3.2591345310,1.3663145304,27.6419467926,0.0619303659,0.0446287915,0.0092266202,-112.9105987549,74.3480606079,72.6638641357,0.0386019945,0.0585075617,0.0136210322,10.8101034164,83.7275161743,-161.6311645508,0.0233104229,0.0221085809,0.0157536864,48.8218345642,35.4545211792,-173.6499481201,0.0605252981,-0.0160399079,-0.0061348677,
238.333,-3.2570624352,1.3648557663,27.6420059204,0.0604400709,0.0519169420,-0.0000530481,-112.9076843262,74.3427124023,72.6654052734,0.0346705317,0.0629902631,0.0126668215,10.8172035217,83.7272720337,-161.6160736084,0.0247747898,0.0220941640,0.0201461911,48.8226127625,35.4543495178,-173.6425170898,0.0658939481,-0.0184900165,-0.0134525299,
238.343,-3.2545833588,1.3650106192,27.6443519592,0.0619076155,0.0445495434,0.0058037043,-112.9002990723,74.3385467529,72.6719665527,0.0356274843,0.0630680174,0.0165678859,10.8202075958,83.7285156250,-161.6076202393,0.0228240490,0.0250221491,0.0221214294,48.8244132996,35.4545707703,-173.6351928711,0.0663853884,-0.0214346647,-0.0188017488,
238.353,-3.2533245087,1.3644566536,27.6448936462,0.0618979484,0.0425744988,0.0062906146,-112.8902359009,74.3341293335,72.6821594238,0.0380480886,0.0572955608,0.0111816525,10.7940940857,83.7293624878,-161.6266784668,0.0213608146,0.0128676929,0.0255447626,48.8258743286,35.4577560425,-173.6266174316,0.0527588725,-0.0150765777,-0.0138829947,
238.363,-3.2538933754,1.3652303219,27.6466140747,0.0594700426,0.0425843932,0.0014086962,-112.8914871216,74.3303756714,72.6822814941,0.0390069485,0.0632104427,0.0077937245,10.7828521729,83.7301406860,-161.6317596436,0.0242919922,0.0202157423,0.0245764256,48.8264236450,35.4609336853,-173.6189575195,0.0523157120,-0.0209168792,-0.0104376674,
238.373,-3.2547616959,1.3670946360,27.6489200592,0.0580377281,0.0435760319,0.0048284531,-112.8878021240,74.3307571411,72.6852798462,0.0282665491,0.0666294396,0.0146110058,10.7713994980,83.7321472168,-161.6369934082,0.0262489319,0.0192673467,0.0202111602,48.8265724182,35.4590377808,-173.6111450195,0.0727965832,-0.0175147057,-0.0114251971,
238.383,-3.2558126450,1.3685904741,27.6500701904,0.0546458587,0.0431060269,-0.0005409718,-112.8820495605,74.3310775757,72.6912460327,0.0365688801,0.0671228766,0.0116541982,10.7648811340,83.7330551147,-161.6361694336,0.0267389417,0.0222123303,0.0212004185,48.8286819458,35.4637680054,-173.6032104492,0.0538208485,-0.0179867148,-0.0186954141,
238.393,-3.2559995651,1.3684941530,27.6506996155,0.0561090223,0.0460389704,0.0092247725,-112.8714828491,74.3314514160,72.7035217285,0.0253401399,0.0627419651,0.0096525550,10.7632484436,83.7343063354,-161.6292266846,0.0262530446,0.0222193636,0.0197556019,48.8277969360,35.4602546692,-173.5960845947,0.0713490248,-0.0180051327,-0.0084743500,
238.403,-3.2562565804,1.3678580523,27.6524734497,0.0604924560,0.0392075256,0.0121544003,-112.8624877930,74.3358459473,72.7152481079,0.0302436948,0.0680620670,0.0149558783,10.7489852905,83.7315521240,-161.6361236572,0.0267360806,0.0237026624,0.0275170207,48.8280830383,35.4570045471,-173.5899810791,0.0732559562,-0.0136380792,-0.0075164437,
238.413,-3.2547409534,1.3668693304,27.6542873383,0.0614517666,0.0455288067,0.0043399930,-112.8608245850,74.3385620117,72.7216186523,0.0351392627,0.0616752654,0.0066302419,10.7453927994,83.7284240723,-161.6315917969,0.0267301202,0.0197934918,0.0235582590,48.8277854919,35.4538078308,-173.5835571289,0.0697925091,-0.0161010623,-0.0055875778,
238.423,-3.2521851063,1.3671027422,27.6560058594,0.0638972446,0.0469491221,0.0121499300,-112.8583984375,74.3401641846,72.7285079956,0.0385648012,0.0587253124,0.0017263293,10.7463302612,83.7294540405,-161.6227111816,0.0228258371,0.0232130364,0.0206466317,48.8234252930,35.4523620605,-173.5798492432,0.0653774738,-0.0238837004,-0.0056439042,
238.433,-3.2522075176,1.3675843477,27.6559047699,0.0599993952,0.0425549671,-0.0020099282,-112.8556213379,74.3420867920,72.7364730835,0.0351558924,0.0606538653,0.0090259314,10.7493486404,83.7319869995,-161.6117858887,0.0199009776,0.0232152008,0.0182479024,48.8224029541,35.4513587952,-173.5734710693,0.0658514500,-0.0180224180,-0.0100560784,
238.443,-3.2517826557,1.3670725822,27.6600627899,0.0668264031,0.0479186699,0.0077551007,-112.8625488281,74.3461227417,72.7338180542,0.0312686563,0.0639973581,0.0021938682,10.7707004547,83.7312088013,-161.5825653076,0.0282002687,0.0275665261,0.0245900154,48.8237190247,35.4513740540,-173.5650482178,0.0590157509,-0.0121752620,-0.0144363642,
238.453,-3.2516982555,1.3687927723,27.6605625153,0.0561142303,0.0405929461,0.0072671175,-112.8573913574,74.3463058472,72.7425384521,0.0385937095,0.0557028949,0.0119360685,10.7640533447,83.7278289795,-161.5797271729,0.0257524252,0.0173146315,0.0352737904,48.8300895691,35.4512748718,-173.5518646240,0.0702447891,-0.0132121444,-0.0241345167,
238.463,-3.2539613247,1.3697649240,27.6628608704,0.0590608828,0.0386792161,0.0062938929,-112.8625564575,74.3454513550,72.7424011230,0.0376131535,0.0596126616,0.0070810914,10.7500905991,83.7297058105,-161.5850067139,0.0233145952,0.0173472315,0.0167456269,48.8292160034,35.4555969238,-173.5449066162,0.0576109886,-0.0234249830,-0.0138611197,
238.473,-3.2535905838,1.3672885895,27.6641597748,0.0624356419,0.0479501635,0.0092216730,-112.8704376221,74.3470993042,72.7400207520,0.0381091833,0.0639680475,0.0105225444,10.7303619385,83.7329559326,-161.5955200195,0.0208793879,0.0188598633,0.0172803402,48.8289108276,35.4554748535,-173.5366058350,0.0722576380,-0.0195169449,-0.0124009848,
238.483,-3.2534735203,1.3701243401,27.6651840210,0.0585788712,0.0450183712,0.0018987060,-112.8692932129,74.3460617065,72.7463836670,0.0312683582,0.0595909208,0.0139425397,10.7169218063,83.7312088013,-161.5996093750,0.0282002687,0.0198566504,0.0299425125,48.8298797607,35.4567108154,-173.5279541016,0.0605564713,-0.0185398459,-0.0109165311,
238.493,-3.2523114681,1.3696155548,27.6657409668,0.0595465563,0.0401153229,0.0048270226,-112.8793029785,74.3453598022,72.7429885864,0.0366361737,0.0610478520,0.0086196065,10.7023324966,83.7299880981,-161.6037750244,0.0242916942,0.0218335874,0.0269860625,48.8276023865,35.4569511414,-173.5215301514,0.0678840876,-0.0185168386,-0.0133816004,
238.503,-3.2545988560,1.3695565462,27.6681385040,0.0585689656,0.0406434536,0.0116648078,-112.8806991577,74.3466339111,72.7470397949,0.0288296342,0.0605391413,0.0144764781,10.7235031128,83.7302703857,-161.5753631592,0.0262453556,0.0266768709,0.0172325373,48.8269424438,35.4568710327,-173.5141906738,0.0639767051,-0.0204642415,-0.0045993924,
238.513,-3.2567391396,1.3690377474,27.6680259705,0.0614896007,0.0372627787,0.0019016266,-112.8824844360,74.3456420898,72.7496643066,0.0356609225,0.0620149076,0.0154675245,10.7274036407,83.7316131592,-161.5629425049,0.0242947936,0.0242324919,0.0148164034,48.8242607117,35.4587097168,-173.5066223145,0.0600966215,-0.0238432288,-0.0090110302,
238.523,-3.2576308250,1.3677866459,27.6691913605,0.0624443330,0.0392314680,0.0097140074,-112.8874816895,74.3469848633,72.7495422363,0.0278547406,0.0644264817,0.0110859275,10.7380218506,83.7309570313,-161.5444030762,0.0277115107,0.0256747678,0.0294560790,48.8254699707,35.4600296021,-173.4992828369,0.0591387749,-0.0179849863,-0.0158244371,
238.533,-3.2584609985,1.3688765764,27.6721744537,0.0566039756,0.0436404385,0.0053209066,-112.8998107910,74.3482208252,72.7416000366,0.0283488631,0.0629195422,0.0042956471,10.7487735748,83.7298278809,-161.5270538330,0.0277093649,0.0295571908,0.0221184492,48.8280105591,35.4605102539,-173.4888000488,0.0606104732,-0.0204466581,-0.0216541886,
238.543,-3.2568545341,1.3684900999,27.6726646423,0.0634331703,0.0416593328,0.0058076978,-112.8976058960,74.3488616943,72.7484207153,0.0332346559,0.0565664023,0.0145358443,10.7517156601,83.7294235229,-161.5161437988,0.0252671838,0.0227143317,0.0250421762,48.8305625916,35.4602508545,-173.4795989990,0.0625599027,-0.0087537766,-0.0123510957,
238.553,-3.2558162212,1.3681626320,27.6732006073,0.0614743270,0.0416412577,0.0165486336,-112.8892288208,74.3514099121,72.7612075806,0.0342232585,0.0648431480,0.0159474611,10.7259140015,83.7278976440,-161.5345306396,0.0247759819,0.0208054744,0.0225654840,48.8307151794,35.4612159729,-173.4724731445,0.0620853901,-0.0165602565,-0.0094134212,
238.563,-3.2546086311,1.3692854643,27.6761684418,0.0585642345,0.0465030037,0.0033643842,-112.8737106323,74.3508758545,72.7807464600,0.0342206955,0.0590206385,0.0134420395,10.7173376083,83.7253265381,-161.5345458984,0.0233062506,0.0242316909,0.0269140005,48.8339271545,35.4601020813,-173.4621276855,0.0733000636,-0.0102511644,-0.0201284885,
238.573,-3.2523534298,1.3676357269,27.6768474579,0.0595120117,0.0459754765,0.0121501088,-112.8701248169,74.3514022827,72.7835617065,0.0342231989,0.0580421090,0.0026809573,10.6907997131,83.7239913940,-161.5541687012,0.0281865001,0.0179306492,0.0254185200,48.8367691040,35.4564323425,-173.4528198242,0.0732477903,-0.0127471685,-0.0137748122,
238.583,-3.2520833015,1.3668081760,27.6774215698,0.0585210100,0.0391348489,0.0048260093,-112.8586883545,74.3515319824,72.7950820923,0.0254347324,0.0580610037,0.0128841400,10.6873283386,83.7241134644,-161.5515899658,0.0296515822,0.0233084336,0.0215110183,48.8387222290,35.4572029114,-173.4440307617,0.0547041297,-0.0093417168,-0.0108195543,
238.593,-3.2516651154,1.3665425777,27.6785602570,0.0609577820,0.0396158472,0.0048248768,-112.8522567749,74.3544082642,72.8027191162,0.0357021689,0.0658412576,0.0162553191,10.6753273010,83.7207717896,-161.5573730469,0.0272037983,0.0223443098,0.0292637348,48.8404388428,35.4535598755,-173.4350128174,0.0707655549,-0.0108503699,-0.0103368163,
238.603,-3.2506372929,1.3670823574,27.6790771484,0.0599906370,0.0439924672,-0.0000586510,-112.8490905762,74.3527145386,72.8097610474,0.0332528353,0.0556189716,0.0074633956,10.6809711456,83.7186508179,-161.5436859131,0.0237817764,0.0228150003,0.0287413001,48.8409004211,35.4538764954,-173.4283905029,0.0634458661,-0.0132935643,-0.0098414421,
238.613,-3.2504608631,1.3660905361,27.6791095734,0.0589967668,0.0474073850,0.0053119063,-112.8457870483,74.3521804810,72.8149948120,0.0308088660,0.0634459555,0.0113588572,10.6954011917,83.7190856934,-161.5201721191,0.0281771421,0.0266953707,0.0185018182,48.8408279419,35.4571151733,-173.4210357666,0.0581208467,-0.0215690136,-0.0151916146,
238.623,-3.2485733032,1.3646064997,27.6797504425,0.0609240010,0.0468862653,0.0077507496,-112.8520507813,74.3523254395,72.8122177124,0.0332509875,0.0648967475,0.0035726428,10.7041797638,83.7190551758,-161.5027770996,0.0267122388,0.0227721520,0.0253396630,48.8427276611,35.4593658447,-173.4111175537,0.0615707636,-0.0201048255,-0.0132032633,
238.633,-3.2493286133,1.3657931089,27.6796092987,0.0599681437,0.0420165770,0.0062872767,-112.8534393311,74.3516311646,72.8166046143,0.0327594280,0.0614876896,0.0084660053,10.7027931213,83.7183074951,-161.4942626953,0.0271990895,0.0198426954,0.0219084620,48.8447151184,35.4570350647,-173.4012145996,0.0756977797,-0.0196529627,-0.0166155100,
238.643,-3.2473099232,1.3651268482,27.6814041138,0.0604447983,0.0429579951,0.0077497959,-112.8508071899,74.3513031006,72.8246917725,0.0332461596,0.0614976585,0.0143160224,10.7011623383,83.7180557251,-161.4878234863,0.0247572064,0.0188683793,0.0228795409,48.8476371765,35.4578170776,-173.3903808594,0.0576424599,-0.0099087358,-0.0102314949,
238.653,-3.2464640141,1.3657824993,27.6820030212,0.0555734262,0.0453846455,0.0077492595,-112.8602752686,74.3506393433,72.8203659058,0.0356844664,0.0634430051,0.0036194921,10.6988162994,83.7163391113,-161.4820709229,0.0306133032,0.0213090442,0.0287107825,48.8495445251,35.4590873718,-173.3808593750,0.0654730201,-0.0250536203,-0.0155737400,
238.663,-3.2463779449,1.3658586740,27.6837463379,0.0599692874,0.0405003279,0.0072609186,-112.8698272705,74.3506393433,72.8169250488,0.0371493101,0.0653785467,0.0095204115,10.7204513550,83.7179565430,-161.4501647949,0.0286632776,0.0271320120,0.0228849649,48.8475036621,35.4578247070,-173.3732147217,0.0732676387,-0.0177198648,-0.0102328062,
238.673,-3.2464268208,1.3669501543,27.6848392487,0.0604766123,0.0444074050,0.0043318868,-112.8770065308,74.3516921997,72.8115310669,0.0366659760,0.0609545112,0.0071034431,10.7277946472,83.7174301147,-161.4347839355,0.0262208581,0.0222337879,0.0204392076,48.8498687744,35.4617271423,-173.3626708984,0.0552567244,-0.0221068263,-0.0155526400,
238.683,-3.2486722469,1.3668130636,27.6859893799,0.0604742244,0.0410285555,0.0038453341,-112.8687057495,74.3616409302,72.8143386841,0.0372010469,0.0691172630,0.0153033733,10.7671003342,83.7193069458,-161.3863372803,0.0315955281,0.0246059448,0.0141363144,48.8476142883,35.4672813416,-173.3557586670,0.0582653284,-0.0225316286,-0.0155397058,
238.693,-3.2492716312,1.3666660786,27.6859149933,0.0604716577,0.0425038449,0.0097055435,-112.8596954346,74.3858642578,72.8188247681,0.0348735452,0.0834083259,0.0185244083,10.8011636734,83.7158355713,-161.3435668945,0.0325654745,0.0216000788,0.0214145184,48.8491630554,35.4749984741,-173.3493347168,0.0588632822,-0.0200459361,-0.0188897252,
238.703,-3.2484207153,1.3670741320,27.6876316071,0.0609670579,0.0410241671,0.0077518225,-112.8534851074,74.4249191284,72.8262634277,0.0301739573,0.0881878436,0.0192198753,10.8383159637,83.7132797241,-161.2996063232,0.0227949619,0.0239624456,0.0194329023,48.8505706787,35.4821357727,-173.3423004150,0.0579881072,-0.0180515647,-0.0144326091,
238.713,-3.2495703697,1.3693327904,27.6869087219,0.0541705266,0.0405558646,0.0136133432,-112.8366546631,74.4717102051,72.8546676636,0.0269749761,0.0835889876,0.0281198621,10.8623495102,83.7051086426,-161.2667999268,0.0227793455,0.0234020464,0.0368831754,48.8500709534,35.4868240356,-173.3357086182,0.0604962111,-0.0150814056,-0.0129417181,
238.723,-3.2521448135,1.3715796471,27.6885490417,0.0590925440,0.0396240950,0.0160577893,-112.8266067505,74.5233078003,72.8772125244,0.0213562846,0.0808571577,0.0204167366,10.8775262833,83.7015686035,-161.2391967773,0.0271670818,0.0204318315,0.0255984664,48.8503990173,35.4907684326,-173.3269195557,0.0668999553,-0.0228669047,-0.0173065066,
238.733,-3.2511756420,1.3731130362,27.6902790070,0.0571661741,0.0435134210,0.0121514797,-112.7721710205,74.5704879761,72.9619750977,0.0342710018,0.0641137511,0.0345242620,10.9109325409,83.6976699829,-161.1916198730,0.0315541625,0.0237733163,0.0245689750,48.8546447754,35.4960327148,-173.3158874512,0.0576974154,-0.0150539279,-0.0211322904,
238.743,-3.2501823902,1.3740298748,27.6919975281,0.0591352955,0.0415429734,0.0062915087,-112.6563491821,74.5976562500,73.1202850342,0.0260962844,0.0453465283,0.0275030136,10.9490919113,83.6942214966,-161.1369934082,0.0251998901,0.0285718404,0.0235484838,48.8559951782,35.4984436035,-173.3029479980,0.0699387193,-0.0135833025,-0.0147539973,
238.753,-3.2526578903,1.3737921715,27.6919784546,0.0586428717,0.0445157886,0.0097118616,-112.4515304565,74.6043243408,73.3694915771,0.0256388783,0.0226584673,0.0353689194,10.9730186462,83.6946258545,-161.0940704346,0.0217826962,0.0260858610,0.0289349556,48.8554267883,35.4968986511,-173.2897644043,0.0757761002,-0.0087069869,-0.0059813857,
238.763,-3.2502970695,1.3743028641,27.6950664520,0.0542572476,0.0483809039,0.0018972158,-112.1793365479,74.5875930786,73.6837081909,0.0363035202,0.0155861080,0.0211195350,10.9503679276,83.6962738037,-161.0994873047,0.0276452303,0.0192989372,0.0250496268,48.8541870117,35.4989929199,-173.2756652832,0.0562745929,-0.0145388246,-0.0079336762,
238.773,-3.2507753372,1.3746494055,27.6973571777,0.0635406375,0.0405767299,0.0101985931,-111.8572082520,74.5470199585,74.0420379639,0.0292791128,0.0084768534,0.0077749491,10.9195632935,83.6998825073,-161.1156463623,0.0208162069,0.0227874182,0.0270510316,48.8574752808,35.4955673218,-173.2601318359,0.0694095492,-0.0077597499,-0.0152455568,
238.783,-3.2525382042,1.3763695955,27.6984233856,0.0581995584,0.0406074002,0.0019003153,-111.4753036499,74.4901351929,74.4531250000,0.0343852043,0.0168573260,0.0098847747,10.8679590225,83.7038040161,-161.1557617188,0.0242416859,0.0238754228,0.0270978212,48.8581428528,35.4909744263,-173.2469329834,0.0688560009,-0.0200080872,-0.0094095469,
238.793,-3.2507266998,1.3771812916,27.6983337402,0.0611434095,0.0488765985,0.0023871064,-111.0215606689,74.4161758423,74.9342498779,0.0447814465,0.0168302357,0.0200663209,10.8262338638,83.7100982666,-161.1891021729,0.0203474760,0.0229987800,0.0130274892,48.8531227112,35.4870643616,-173.2398529053,0.0648941994,-0.0268267989,-0.0007002950,
238.803,-3.2485678196,1.3760982752,27.7007865906,0.0621010773,0.0498155765,0.0097088814,-110.4889602661,74.3303146362,75.4883499146,0.0424246192,0.0195517242,0.0216432810,10.7904462814,83.7161178589,-161.2163848877,0.0242652297,0.0211332068,0.0214155316,48.8534240723,35.4852256775,-173.2300567627,0.0580320954,-0.0200077295,-0.0114514828,
238.813,-3.2464432716,1.3738124371,27.7032890320,0.0620611906,0.0453840941,0.0106819272,-109.8464050293,74.2357559204,76.1352081299,0.0414893031,0.0255051255,0.0344630480,10.7537860870,83.7204895020,-161.2469940186,0.0286681056,0.0207288191,0.0180571079,48.8513450623,35.4831962585,-173.2247009277,0.0682571530,-0.0229334831,-0.0085576773,
238.823,-3.2476086617,1.3736927509,27.7043914795,0.0625473857,0.0405215882,0.0038473606,-109.1396255493,74.1410675049,76.8331375122,0.0346913338,0.0349582732,0.0313228369,10.6792230606,83.7233352661,-161.3189849854,0.0296500921,0.0145324804,0.0258901715,48.8497772217,35.4827003479,-173.2172698975,0.0658087134,-0.0243874788,-0.0193200111,
238.833,-3.2490665913,1.3722007275,27.7048397064,0.0693572909,0.0395704508,0.0038483739,-108.3830718994,74.0482788086,77.5730133057,0.0244818926,0.0463815928,0.0171524286,10.6131820679,83.7267684937,-161.3825836182,0.0257503986,0.0195522718,0.0278779864,48.8513069153,35.4823989868,-173.2099304199,0.0545739532,-0.0200095773,-0.0158876777,
238.843,-3.2467126846,1.3743183613,27.7059822083,0.0547458008,0.0463653393,0.0038468838,-107.5828399658,73.9552078247,78.3612976074,0.0220810771,0.0622361898,0.0310476422,10.5248432159,83.7311477661,-161.4698638916,0.0272235870,0.0226640590,0.0264542699,48.8502426147,35.4753684998,-173.2042083740,0.0652161837,-0.0141938329,-0.0052036047,
238.853,-3.2472040653,1.3727732897,27.7065029144,0.0654610321,0.0385614373,0.0087294579,-106.7956008911,73.8577651978,79.1504516602,0.0362581015,0.0771255791,0.0166464448,10.4521408081,83.7385330200,-161.5398559570,0.0164954662,0.0257551856,0.0187392831,48.8558540344,35.4731407166,-173.1945953369,0.0578603745,-0.0225641131,-0.0198069215,
238.863,-3.2468063831,1.3729590178,27.7058372498,0.0591166131,0.0439255983,0.0077526569,-106.0289154053,73.7492752075,79.9303665161,0.0362182260,0.0696657896,0.0008700490,10.3902645111,83.7425384521,-161.6000976563,0.0257804394,0.0268621184,0.0319691300,48.8596191406,35.4638900757,-173.1853637695,0.0767717957,-0.0104628205,-0.0168985724,
238.873,-3.2463099957,1.3745340109,27.7062740326,0.0610972196,0.0419637822,0.0126355886,-105.2711486816,73.6342010498,80.7195892334,0.0420019031,0.0808195770,0.0139127970,10.2803115845,83.7478103638,-161.7063446045,0.0218842030,0.0153687745,0.0295772552,48.8615913391,35.4605751038,-173.1778564453,0.0567051172,-0.0192955732,-0.0105517507,
238.883,-3.2461161613,1.3714710474,27.7074813843,0.0664148703,0.0409839191,0.0038452148,-104.5620727539,73.5051956177,81.4823226929,0.0384353399,0.0711043775,-0.0040634871,10.2237091064,83.7517242432,-161.7570190430,0.0292158723,0.0262306705,0.0310887694,48.8618469238,35.4527931213,-173.1703033447,0.0697780848,-0.0174041390,-0.0027883053,
238.893,-3.2474279404,1.3747670650,27.7091426849,0.0552419126,0.0419832543,0.0111716986,-103.8783569336,73.3640365601,82.2385864258,0.0338266492,0.0644566715,0.0049244761,10.1595563889,83.7617111206,-161.8130340576,0.0238637328,0.0293123908,0.0185384750,48.8643608093,35.4443855286,-173.1579132080,0.0725882649,-0.0135854483,-0.0096532702,
238.903,-3.2487888336,1.3745661974,27.7096805573,0.0606095009,0.0420069695,0.0048254728,-103.1802368164,73.2010421753,83.0228195190,0.0325200558,0.0518050790,0.0202070475,10.0843400955,83.7699203491,-161.8787078857,0.0258324146,0.0245972015,0.0245108604,48.8662490845,35.4369850159,-173.1449432373,0.0573463440,-0.0097532868,-0.0077292323,
238.913,-3.2490024567,1.3748408556,27.7120094299,0.0615908541,0.0415223986,0.0087321997,-102.4653778076,73.0137863159,83.8257293701,0.0301055908,0.0312351286,0.0134464502,9.9963560104,83.7828063965,-161.9558105469,0.0204856992,0.0179661624,0.0193247199,48.8689308167,35.4278640747,-173.1328735352,0.0684471130,-0.0103361607,-0.0087378025,
238.923,-3.2511746883,1.3734871149,27.7119731903,0.0601023883,0.0371657424,0.0009212494,-101.7045135498,72.8084487915,84.6585311890,0.0324704051,0.0217208266,0.0176578164,9.8958120346,83.7919921875,-162.0474243164,0.0224561691,0.0230664760,0.0213986039,48.8684616089,35.4196701050,-173.1224975586,0.0527055264,-0.0235778093,-0.0019614100,
238.933,-3.2535510063,1.3729156256,27.7130928040,0.0644869506,0.0425782427,0.0131304264,-100.8829498291,72.5878219604,85.5329895020,0.0279072523,0.0276148915,0.0224817395,9.7893819809,83.8016662598,-162.1455688477,0.0166150331,0.0228077918,0.0229910016,48.8719825745,35.4076423645,-173.1101989746,0.0662063360,-0.0158898234,-0.0107927322,
238.943,-3.2538731098,1.3732920885,27.7154521942,0.0591224246,0.0411190055,0.0097128749,-100.0214309692,72.3522415161,86.4420394897,0.0354578495,0.0303266943,0.0206775665,9.6591892242,83.8138809204,-162.2687072754,0.0264036655,0.0201592222,0.0148527622,48.8754959106,35.3946723938,-173.0971832275,0.0709046721,-0.0184628963,-0.0108414292,
238.953,-3.2534973621,1.3736791611,27.7160034180,0.0591291785,0.0435538515,0.0219196677,-99.1316146851,72.0942001343,87.3761291504,0.0360359550,0.0338675082,0.0230478048,9.5177602768,83.8267898560,-162.4037475586,0.0244747996,0.0219274499,0.0218596458,48.8729782104,35.3828048706,-173.0887603760,0.0599935651,-0.0180414319,-0.0021582842,
238.963,-3.2519981861,1.3740228415,27.7165164948,0.0606000163,0.0435277298,-0.0020074248,-98.2401428223,71.8137435913,88.3188934326,0.0389141440,0.0421125889,0.0043225288,9.3610229492,83.8405227661,-162.5559387207,0.0196177363,0.0217727572,0.0205763578,48.8747291565,35.3714408875,-173.0782165527,0.0627615452,-0.0205855966,-0.0110036731,
238.973,-3.2534086704,1.3755526543,27.7182369232,0.0572087429,0.0415991396,0.0131312609,-97.3511734009,71.5086898804,89.2716217041,0.0426100492,0.0433731675,0.0089457035,9.1939496994,83.8514175415,-162.7178039551,0.0274506211,0.0196753219,0.0211948752,48.8764457703,35.3583831787,-173.0673217773,0.0684350133,-0.0182596445,-0.0076541901,
238.983,-3.2530155182,1.3755928278,27.7181072235,0.0635571033,0.0440336913,-0.0044471025,-96.4911804199,71.1740341187,90.2067031860,0.0514836311,0.0479650497,0.0043436289,9.0575380325,83.8624343872,-162.8527069092,0.0264946222,0.0233794451,0.0145040751,48.8752403259,35.3474655151,-173.0609588623,0.0629085898,-0.0285852551,-0.0052981377,
238.993,-3.2546710968,1.3732290268,27.7193374634,0.0620510131,0.0386915058,0.0097135901,-95.6717681885,70.8151397705,91.1277694702,0.0562796593,0.0660502017,0.0061866045,8.9293584824,83.8670959473,-162.9773559570,0.0269916058,0.0202144608,0.0287043452,48.8773002625,35.3395767212,-173.0525360107,0.0632845759,-0.0252465010,-0.0102112889,
239.003,-3.2546229362,1.3736596107,27.7211647034,0.0542460270,0.0425968990,0.0004363656,-94.9419326782,70.4245910645,92.0112075806,0.0642716289,0.0718514323,-0.0086694360,8.8497381210,83.8720169067,-163.0540924072,0.0343250036,0.0228182450,0.0238811970,48.8755950928,35.3353729248,-173.0471801758,0.0573653579,-0.0228210688,-0.0039097667,
239.013,-3.2534282207,1.3719948530,27.7210750580,0.0678888559,0.0445292518,0.0082470179,-94.3025970459,70.0054779053,92.8574066162,0.0456823707,0.0638627112,-0.0084710121,8.7759637833,83.8792266846,-163.1242980957,0.0318970084,0.0200456008,0.0205626488,48.8768119812,35.3329811096,-173.0396728516,0.0636789203,-0.0243155360,-0.0175845623,
239.023,-3.2537178993,1.3742231131,27.7232818604,0.0610917918,0.0391631499,0.0062951446,-93.7129440308,69.5541076660,93.6781768799,0.0497954488,0.0197108984,-0.0051636100,8.7107305527,83.8869781494,-163.1871185303,0.0328879952,0.0162813999,0.0162782073,48.8742523193,35.3311424255,-173.0360717773,0.0582816005,-0.0218641162,-0.0039523244,
239.033,-3.2521839142,1.3763691187,27.7237606049,0.0567347072,0.0435309149,0.0062945485,-93.1435394287,69.0954589844,94.4700317383,0.0396449566,0.0244502425,0.0122815967,8.6818361282,83.8923416138,-163.2173309326,0.0319213867,0.0231851898,0.0222194791,48.8740959167,35.3279113770,-173.0306549072,0.0684895515,-0.0179809332,-0.0078816414,
239.043,-3.2538042068,1.3779116869,27.7254543304,0.0592030287,0.0430708230,0.0097148418,-92.6009750366,68.6259231567,95.2142639160,0.0391309857,0.0249152184,-0.0068671703,8.6239881516,83.9036483765,-163.2771606445,0.0158290863,0.0203926601,0.0101869702,48.8748092651,35.3219375610,-173.0266418457,0.0674279332,-0.0126620531,-0.0088907480,
239.053,-3.2560927868,1.3753652573,27.7266464233,0.0664828122,0.0431107394,-0.0024910569,-92.0501327515,68.1450119019,95.9480361938,0.0257852674,0.0206323266,0.0099236965,8.5364885330,83.9098587036,-163.3690643311,0.0216999650,0.0215483755,0.0283335447,48.8771972656,35.3147430420,-173.0228271484,0.0619543791,-0.0127389431,-0.0089119077,
