Time(sec),Gyr1_X(deg/sec),Gyr1_Y(deg/sec),Gyr1_Z(deg/sec),Acc1_X(m/s^2),Acc1_Y(m/s^2),Acc1_Z(m/s^2),Gyr2_X(deg/sec),Gyr2_Y(deg/sec),Gyr2_Z(deg/sec),Acc2_X(m/s^2),Acc2_Y(m/s^2),Acc2_Z(m/s^2),Gyr_X(deg/sec),Gyr_Y(deg/sec),Gyr_Z(deg/sec),Acc_X(m/s^2),Acc_Y(m/s^2),Acc_Z(m/s^2),Gyr_X(deg/sec),Gyr_Y(deg/sec),Gyr_Z(deg/sec),Acc_X(m/s^2),Acc_Y(m/s^2),Acc_Z(m/s^2),
239.043,-3.3077375889,1.4263792038,26.2339134216,0.0600486919,0.0430325642,0.0078362226,-115.3466186523,74.2846527100,45.2622375488,0.0329317451,0.0557465851,-0.0008046031,15.3897113800,83.1965408325,-171.2647399902,0.0237200856,0.0144704804,0.0193033814,43.2553939819,41.0322761536,158.4689331055,0.0641989708,-0.0131058693,-0.0011544228,
239.053,-3.3066542149,1.4250007868,26.2351760864,0.0585597977,0.0439902879,0.0088109970,-115.3635253906,74.2827606201,45.2623367310,0.0265751481,0.0581821948,0.0026995540,15.4166345596,83.1977539063,-171.2260894775,0.0295819640,0.0217453763,0.0178719759,43.2541580200,41.0304450989,158.4778594971,0.0690576434,-0.0140848756,-0.0006926060,
239.063,-3.3063895702,1.4243726730,26.2387599945,0.0648964942,0.0474036634,0.0058807135,-115.3730392456,74.2807235718,45.2669944763,0.0309600234,0.0567290634,0.0110556483,15.4362010956,83.1984176636,-171.1929931641,0.0281184912,0.0241504759,0.0178950429,43.2547721863,41.0321235657,158.4868774414,0.0641969442,-0.0160308480,-0.0065330267,
239.073,-3.3074626923,1.4239062071,26.2417449951,0.0600055456,0.0405864380,0.0083231926,-115.3819274902,74.2797088623,45.2691497803,0.0250958800,0.0513551235,0.0076830387,15.4617290497,83.1993942261,-171.1570434570,0.0276322365,0.0250799172,0.0189021826,43.2513389587,41.0350074768,158.4924621582,0.0583755970,-0.0125571489,-0.0031210184,
239.083,-3.3098111153,1.4255357981,26.2434406281,0.0590574145,0.0425804146,0.0146734715,-115.3969421387,74.2805709839,45.2612495422,0.0270530581,0.0552181900,-0.0000711679,15.4777717590,83.1981887817,-171.1311492920,0.0295828581,0.0250420012,0.0247507691,43.2515678406,41.0365066528,158.5009307861,0.0676726699,-0.0135241747,-0.0075013638,
239.093,-3.3140246868,1.4249725342,26.2451381683,0.0619772747,0.0363061726,0.0010062456,-115.3954238892,74.2827987671,45.2672996521,0.0290167332,0.0522576571,0.0077187419,15.4919185638,83.2002334595,-171.1091766357,0.0271456838,0.0269757695,0.0150262713,43.2508850098,41.0396041870,158.5085449219,0.0550180674,-0.0173996687,-0.0094353557,
239.103,-3.3161458969,1.4251067638,26.2456531525,0.0614913367,0.0436673388,0.0024727583,-115.3871231079,74.2834167480,45.2772750854,0.0280430913,0.0454295129,0.0042607188,15.5032052994,83.2015380859,-171.0912933350,0.0300780535,0.0279353485,0.0174951553,43.2497329712,41.0412254333,158.5134124756,0.0579690933,-0.0129813552,-0.0055255890,
239.113,-3.3162689209,1.4263721704,26.2467041016,0.0600485690,0.0397631973,0.0097978711,-115.3869857788,74.2837753296,45.2790031433,0.0324392915,0.0551902205,-0.0025783777,15.4911861420,83.1997451782,-171.0971832275,0.0295860767,0.0255101062,0.0301544666,43.2501487732,41.0385322571,158.5189056396,0.0764883757,-0.0115416050,-0.0074974298,
239.123,-3.3169374466,1.4284619093,26.2471504211,0.0566670634,0.0402630717,-0.0019191504,-115.3782653809,74.2854919434,45.2887191772,0.0304942727,0.0537168533,0.0081141591,15.4919795990,83.2012405396,-171.0916900635,0.0227532387,0.0274683572,0.0150424242,43.2521247864,41.0382690430,158.5242767334,0.0662310123,-0.0086329579,-0.0069935918,
239.133,-3.3156495094,1.4262493849,26.2478351593,0.0590698682,0.0426821001,0.0044257641,-115.3764801025,74.2870712280,45.2898941040,0.0300135016,0.0566261411,0.0027239919,15.4899902344,83.2017593384,-171.0864257813,0.0247074366,0.0260100402,0.0199331045,43.2534675598,41.0373573303,158.5304107666,0.0676837564,-0.0150006413,-0.0143132806,
239.143,-3.3129010201,1.4266064167,26.2477436066,0.0610292219,0.0455639102,0.0151656866,-115.3751525879,74.2884902954,45.2925796509,0.0349029899,0.0585605204,0.0022199154,15.4648046494,83.2003479004,-171.1047210693,0.0330052972,0.0221483409,0.0360094309,43.2553443909,41.0360755920,158.5363159180,0.0701082945,-0.0130755305,-0.0050294995,
239.153,-3.3125009537,1.4241521358,26.2478046417,0.0619629622,0.0460452735,0.0053984523,-115.3705062866,74.2873382568,45.2977828979,0.0334327221,0.0556575656,0.0046496987,15.4408407211,83.1986770630,-171.1199645996,0.0266541839,0.0197478347,0.0291327238,43.2578163147,41.0328025818,158.5437622070,0.0715301037,-0.0092186332,-0.0060109496,
239.163,-3.3111059666,1.4237960577,26.2508697510,0.0595153421,0.0513920859,0.0049086809,-115.3644561768,74.2851486206,45.3052482605,0.0343989134,0.0600976348,0.0051276088,15.4318981171,83.1983871460,-171.1219787598,0.0300715566,0.0173230842,0.0227747560,43.2589569092,41.0327606201,158.5503234863,0.0588341951,-0.0092300177,-0.0011188388,
239.173,-3.3129043579,1.4262014627,26.2518730164,0.0600455925,0.0426342823,0.0010052919,-115.3636779785,74.2807617188,45.3111343384,0.0348664522,0.0582128465,0.0027143359,15.4298524857,83.1972961426,-171.1159667969,0.0242099166,0.0236697793,0.0295911431,43.2609176636,41.0311851501,158.5582733154,0.0734618902,-0.0092611313,-0.0123444200,
239.183,-3.3146765232,1.4259605408,26.2536048889,0.0634593591,0.0446182899,0.0137022734,-115.3658752441,74.2783203125,45.3139648438,0.0270424485,0.0577558726,0.0086006522,15.4282560349,83.1980133057,-171.1089324951,0.0242114067,0.0202584118,0.0149540305,43.2609748840,41.0309677124,158.5646514893,0.0680879951,-0.0107282400,-0.0084393024,
239.193,-3.3173978329,1.4277912378,26.2558536530,0.0605616122,0.0412476696,0.0127291679,-115.3762893677,74.2779998779,45.3125839233,0.0304588675,0.0621350408,0.0062062740,15.4226274490,83.1992263794,-171.1039276123,0.0261670351,0.0168573037,0.0218065381,43.2605285645,41.0303649902,158.5706787109,0.0695448518,-0.0082873106,-0.0040538907,
239.203,-3.3171713352,1.4273415804,26.2575397491,0.0659248605,0.0431968644,0.0029632449,-115.3898925781,74.2749938965,45.3092384338,0.0304446816,0.0611757934,0.0028682947,15.4366941452,83.2008666992,-171.0776062012,0.0217759013,0.0251373686,0.0184247494,43.2585105896,41.0299491882,158.5782012939,0.0714924932,-0.0190133452,-0.0109114647,
239.213,-3.3197329044,1.4265216589,26.2592067719,0.0673753917,0.0398235358,0.0068717003,-115.4100799561,74.2724304199,45.3002624512,0.0304325223,0.0645922869,-0.0014212728,15.4519939423,83.2042999268,-171.0482330322,0.0227595568,0.0226804577,0.0145826936,43.2566566467,41.0314216614,158.5860748291,0.0641877055,-0.0184956789,-0.0060330629,
239.223,-3.3219327927,1.4270207882,26.2590847015,0.0600598864,0.0413266867,0.0015030503,-115.4298248291,74.2707748413,45.2951393127,0.0304247141,0.0577404052,-0.0008364320,15.4365224838,83.2075958252,-171.0499725342,0.0252077579,0.0144260041,0.0199998021,43.2569808960,41.0330390930,158.5950622559,0.0607910156,-0.0131151676,-0.0094352961,
239.233,-3.3228216171,1.4264508486,26.2614002228,0.0644444749,0.0413421728,0.0058983564,-115.4349136353,74.2704772949,45.3045730591,0.0299350023,0.0494341403,0.0133478045,15.4532699585,83.2064666748,-171.0198822021,0.0242288709,0.0290355086,0.0185258389,43.2560005188,41.0319023132,158.6031036377,0.0739596486,-0.0170208216,-0.0055463910,
239.243,-3.3233520985,1.4277850389,26.2629852295,0.0620263480,0.0340271667,0.0083408356,-115.4508285522,74.2731704712,45.3015556335,0.0245766640,0.0542438626,0.0065607429,15.4500598907,83.2068710327,-171.0116119385,0.0213000178,0.0275788419,0.0185301304,43.2526473999,41.0319976807,158.6093597412,0.0651718378,-0.0189411640,-0.0036237836,
239.253,-3.3214707375,1.4296419621,26.2633934021,0.0620587468,0.0447365344,0.0073632002,-115.4564971924,74.2755279541,45.3051834106,0.0260526538,0.0488249958,0.0055915713,15.4409875870,83.2044754028,-171.0120391846,0.0237364769,0.0222153626,0.0238574147,43.2518272400,41.0318336487,158.6150665283,0.0597985983,-0.0184460878,-0.0060729980,
239.263,-3.3187425137,1.4306796789,26.2645416260,0.0586588830,0.0476186760,0.0083370209,-115.4717330933,74.2812881470,45.2926673889,0.0211970806,0.0521250665,-0.0017088652,15.4151916504,83.2028884888,-171.0323333740,0.0208035111,0.0222598799,0.0243033171,43.2509346008,41.0313529968,158.6203613281,0.0671164393,-0.0150235295,-0.0036443472,
239.273,-3.3178627491,1.4312237501,26.2644195557,0.0601332188,0.0412556902,0.0083367825,-115.4707336426,74.2835388184,45.2909240723,0.0290201902,0.0511171222,0.0031535029,15.4144573212,83.2000579834,-171.0305480957,0.0276336074,0.0232253186,0.0223043561,43.2568283081,41.0288734436,158.6282348633,0.0714783669,-0.0014274716,-0.0099587440,
239.283,-3.3155386448,1.4326902628,26.2643585205,0.0547877178,0.0441448502,0.0093114972,-115.4657058716,74.2870101929,45.2876319885,0.0344077349,0.0588867366,0.0065248609,15.4062356949,83.1963958740,-171.0363922119,0.0300674438,0.0271316394,0.0256575942,43.2589912415,41.0290298462,158.6329650879,0.0656210184,-0.0146307945,-0.0094506741,
239.293,-3.3161425591,1.4330582619,26.2649898529,0.0523527302,0.0402491093,0.0102884769,-115.4541931152,74.2908706665,45.2894630432,0.0305197239,0.0612935126,0.0044947267,15.3913698196,83.1933975220,-171.0482788086,0.0310378075,0.0261716768,0.0260885954,43.2627449036,41.0301818848,158.6376495361,0.0651479363,-0.0117279291,-0.0128245354,
239.303,-3.3157985210,1.4362802505,26.2666034698,0.0553386360,0.0392664783,0.0058956742,-115.4428253174,74.2938385010,45.2945213318,0.0271157622,0.0607835799,0.0097957850,15.3926572800,83.1920471191,-171.0439300537,0.0266404748,0.0251862369,0.0260664225,43.2647323608,41.0296287537,158.6413726807,0.0656289458,-0.0088216662,-0.0103698969,
239.313,-3.3137810230,1.4371172190,26.2677783966,0.0573063605,0.0450906828,0.0112645626,-115.4347839355,74.2922973633,45.3000450134,0.0315030217,0.0622879118,0.0083075166,15.4008073807,83.1943206787,-171.0290374756,0.0227389336,0.0242035724,0.0197612047,43.2668914795,41.0276069641,158.6467742920,0.0782976151,-0.0093465447,-0.0049960613,
239.323,-3.3131127357,1.4350091219,26.2684555054,0.0587344244,0.0426376909,0.0054038763,-115.4280319214,74.2861022949,45.3070182800,0.0324503183,0.0580008924,0.0112528205,15.3853569031,83.1933135986,-171.0352630615,0.0266430974,0.0227653235,0.0260832310,43.2686309814,41.0260391235,158.6531066895,0.0729058385,-0.0069341660,-0.0074348450,
239.333,-3.3142118454,1.4359763861,26.2689456940,0.0607044250,0.0450982191,0.0019870400,-115.4346694946,74.2795715332,45.3044013977,0.0329077244,0.0629691035,0.0069336295,15.3781309128,83.1904067993,-171.0366058350,0.0261487961,0.0159308612,0.0338437557,43.2671470642,41.0231590271,158.6577606201,0.0743328333,-0.0113369823,-0.0025894642,
239.343,-3.3127052784,1.4354940653,26.2688865662,0.0616725720,0.0455602705,0.0107749701,-115.4352035522,74.2731323242,45.3100204468,0.0304358602,0.0616002381,0.0138182044,15.3693656921,83.1907196045,-171.0361328125,0.0320088267,0.0218093917,0.0201722383,43.2680130005,41.0232734680,158.6660156250,0.0674984455,-0.0059733391,-0.0045338273,
239.353,-3.3115332127,1.4341715574,26.2699966431,0.0689737126,0.0465164483,0.0058900118,-115.4364776611,74.2669372559,45.3175430298,0.0294299722,0.0592500418,0.0114268661,15.3616514206,83.1911544800,-171.0345458984,0.0261503458,0.0203623138,0.0245703459,43.2646751404,41.0226631165,158.6725769043,0.0709083080,-0.0171766281,-0.0006629229,
239.363,-3.3143036366,1.4326530695,26.2722797394,0.0699237883,0.0411936492,0.0063804984,-115.4395904541,74.2576065063,45.3239593506,0.0347568989,0.0574317575,0.0085775852,15.3751993179,83.1919860840,-171.0093994141,0.0266403556,0.0252213441,0.0187316537,43.2618141174,41.0247650146,158.6799316406,0.0606820583,-0.0161560774,-0.0070186853,
239.373,-3.3165390491,1.4320259094,26.2752017975,0.0650300235,0.0407443270,0.0127303004,-115.4631423950,74.2509155273,45.3113479614,0.0303306580,0.0618793219,-0.0020153522,15.3953323364,83.1923980713,-170.9756011963,0.0168755651,0.0232295990,0.0265634656,43.2588577271,41.0239524841,158.6865539551,0.0694603920,-0.0088099241,-0.0016810894,
239.383,-3.3170709610,1.4317078590,26.2757396698,0.0611182302,0.0427067243,0.0078477859,-115.4732360840,74.2497940063,45.3109054565,0.0215362906,0.0618757159,0.0048721433,15.4061737061,83.1951522827,-170.9530792236,0.0290883183,0.0202900581,0.0168473721,43.2592773438,41.0271339417,158.6938934326,0.0626664162,-0.0156248808,-0.0158109665,
239.393,-3.3196599483,1.4303339720,26.2769145966,0.0630473867,0.0417752936,0.0146856308,-115.4794769287,74.2507629395,45.3149147034,0.0264236927,0.0633127540,0.0166108012,15.4455757141,83.1959304810,-170.9026031494,0.0232305527,0.0270501152,0.0183486342,43.2594032288,41.0289268494,158.7040252686,0.0626900196,-0.0151237249,-0.0055409670,
239.403,-3.3186285496,1.4313580990,26.2779884338,0.0630652532,0.0481049605,0.0102907419,-115.4884414673,74.2507476807,45.3161582947,0.0274001956,0.0510874838,0.0107898116,15.4446878433,83.1971511841,-170.8919219971,0.0217682123,0.0236390568,0.0178780556,43.2546958923,41.0280303955,158.7073669434,0.0656079054,-0.0145972967,0.0012451410,
239.413,-3.3200852871,1.4305217266,26.2773017883,0.0625623763,0.0417826995,0.0044323802,-115.4971237183,74.2519454956,45.3173675537,0.0220347643,0.0534947813,0.0010527968,15.4461421967,83.1978988647,-170.8788757324,0.0251877308,0.0246164650,0.0159397125,43.2590255737,41.0292053223,158.7176666260,0.0670881867,-0.0131647587,-0.0138427019,
239.423,-3.3209340572,1.4320101738,26.2783050537,0.0611235015,0.0374029130,0.0015041232,-115.5054702759,74.2550659180,45.3173255920,0.0337682962,0.0544057637,0.0025311112,15.4406270981,83.1987380981,-170.8751525879,0.0198183656,0.0212134421,0.0198565125,43.2599067688,41.0306739807,158.7247467041,0.0632013083,-0.0136499405,-0.0060099959,
239.433,-3.3203537464,1.4334872961,26.2800598145,0.0572430231,0.0486232378,0.0083401799,-115.5164413452,74.2656402588,45.3122520447,0.0304003954,0.0595946461,0.0044550300,15.4212961197,83.1999130249,-170.8859405518,0.0242153406,0.0212574936,0.0179102421,43.2617988586,41.0306930542,158.7326049805,0.0622249842,-0.0087851286,-0.0079460144,
239.443,-3.3202416897,1.4331179857,26.2811756134,0.0635842383,0.0427619182,0.0083397627,-115.5191726685,74.2744293213,45.3133354187,0.0328834057,0.0521320105,0.0073329210,15.4168701172,83.1967468262,-170.8816375732,0.0305564404,0.0222291909,0.0266471505,43.2591285706,41.0296783447,158.7356872559,0.0626998544,-0.0156034827,0.0017872453,
239.453,-3.3217537403,1.4346092939,26.2816505432,0.0567743219,0.0393702462,0.0029709339,-115.5196380615,74.2819595337,45.3165931702,0.0314541459,0.0554355085,0.0028861761,15.4217996597,83.1997756958,-170.8707122803,0.0217736363,0.0241857357,0.0140027404,43.2624473572,41.0304603577,158.7430267334,0.0597804785,-0.0078166723,-0.0103834271,
239.463,-3.3227140903,1.4336426258,26.2815647125,0.0631051064,0.0413401276,0.0034598112,-115.5078125000,74.2897872925,45.3303642273,0.0314911604,0.0563179553,0.0164508820,15.4130163193,83.1968002319,-170.8744812012,0.0266503096,0.0212603137,0.0237145424,43.2635536194,41.0319213867,158.7496490479,0.0637059808,-0.0058626533,-0.0049900413,
239.473,-3.3231077194,1.4344556332,26.2826538086,0.0616544560,0.0452532135,0.0102966428,-115.5110321045,74.2947463989,45.3278579712,0.0334677100,0.0586778224,0.0008038878,15.3973083496,83.1964874268,-170.8828430176,0.0290910602,0.0232436657,0.0237002373,43.2657051086,41.0311584473,158.7569732666,0.0749263763,-0.0088189840,-0.0118129849,
239.483,-3.3223023415,1.4354394674,26.2850856781,0.0548356846,0.0471922792,0.0093196034,-115.5031127930,74.2949066162,45.3361434937,0.0280973911,0.0552732795,0.0085813403,15.3814144135,83.1938934326,-170.8930816650,0.0285974145,0.0203344561,0.0270667672,43.2656936646,41.0328369141,158.7621612549,0.0671359897,-0.0136885643,-0.0083811283,
239.493,-3.3240032196,1.4387248755,26.2879199982,0.0553812832,0.0384327695,0.0063930154,-115.4991607666,74.2966232300,45.3409576416,0.0285937786,0.0572091043,0.0100169778,15.3903179169,83.1921615601,-170.8756561279,0.0315235257,0.0261681713,0.0206964016,43.2660980225,41.0335731506,158.7672119141,0.0647042394,-0.0117335320,-0.0054418445,
239.503,-3.3233709335,1.4389554262,26.2908535004,0.0617329702,0.0423279926,0.0049277544,-115.4997482300,74.2936706543,45.3453521729,0.0339509249,0.0631114691,0.0056461096,15.3969907761,83.1913299561,-170.8620605469,0.0320100784,0.0217564590,0.0265464783,43.2660408020,41.0316505432,158.7730560303,0.0744446516,-0.0146777630,-0.0064347386,
239.513,-3.3205275536,1.4376509190,26.2933044434,0.0626867712,0.0500910021,0.0044360757,-115.5072326660,74.2891998291,45.3419227600,0.0300235152,0.0607223660,0.0047338605,15.3936100006,83.1927413940,-170.8556671143,0.0285950303,0.0212814249,0.0143605471,43.2662162781,41.0338363647,158.7804718018,0.0612897873,-0.0136857033,-0.0078800321,
239.523,-3.3192973137,1.4352470636,26.2945842743,0.0621565431,0.0466516651,0.0088281631,-115.5186004639,74.2817535400,45.3354606628,0.0319414735,0.0573937595,-0.0019996166,15.3985242844,83.1921920776,-170.8438873291,0.0246876478,0.0212687328,0.0250954032,43.2642211914,41.0323066711,158.7869415283,0.0676172972,-0.0083074570,-0.0000979304,
239.533,-3.3186652660,1.4338973761,26.2963027954,0.0675040931,0.0422461554,0.0171278715,-115.5332336426,74.2755279541,45.3260498047,0.0358182788,0.0589228421,0.0020141006,15.4001054764,83.1899414063,-170.8318481445,0.0198001862,0.0251618810,0.0245723128,43.2663345337,41.0370140076,158.7948303223,0.0598667860,-0.0170797706,-0.0141998529,
239.543,-3.3205616474,1.4313999414,26.2974929810,0.0669722334,0.0442323796,0.0137107372,-115.5349655151,74.2666854858,45.3294715881,0.0279639363,0.0546578914,0.0059916973,15.4140472412,83.1908645630,-170.8085479736,0.0246849060,0.0183013752,0.0192219615,43.2679405212,41.0368003845,158.8031616211,0.0696296096,-0.0063547492,-0.0053980350,
239.553,-3.3205475807,1.4309327602,26.2992477417,0.0620812699,0.0422790200,0.0132222176,-115.5351867676,74.2611770630,45.3353080750,0.0303792953,0.0601119250,0.0153098106,15.4335393906,83.1919555664,-170.7790832520,0.0202926397,0.0226621144,0.0197423100,43.2667083740,41.0375518799,158.8104553223,0.0686629415,-0.0151261091,-0.0088208914,
239.563,-3.3211755753,1.4324579239,26.2997779846,0.0567367859,0.0466844551,0.0054106712,-115.5410614014,74.2530517578,45.3345870972,0.0288759470,0.0543639958,0.0056279302,15.4415044785,83.1914978027,-170.7618865967,0.0266393423,0.0211785845,0.0177839398,43.2626075745,41.0366744995,158.8162841797,0.0681630969,-0.0160701871,-0.0015410185,
239.573,-3.3217926025,1.4309059381,26.3015651703,0.0635456443,0.0423007086,0.0078522563,-115.5477142334,74.2493362427,45.3346977234,0.0312997699,0.0578236878,0.0091012716,15.4409770966,83.1902923584,-170.7524871826,0.0276134014,0.0206859186,0.0226467848,43.2621994019,41.0376663208,158.8236846924,0.0671995878,-0.0111756921,-0.0054427385,
239.583,-3.3231260777,1.4306647778,26.3033466339,0.0591469035,0.0418356620,0.0137128234,-115.5522842407,74.2456283569,45.3365936279,0.0307939053,0.0568939596,0.0062180758,15.4565429688,83.1908645630,-170.7284698486,0.0276145935,0.0270045809,0.0153403282,43.2595062256,41.0396156311,158.8297119141,0.0633190274,-0.0184587240,-0.0083804727,
239.593,-3.3232574463,1.4323407412,26.3044128418,0.0586878657,0.0418379083,0.0122489333,-115.5621337891,74.2430267334,45.3341522217,0.0346878171,0.0544717610,0.0067674518,15.4530286789,83.1914138794,-170.7234497070,0.0281040072,0.0235963091,0.0173008442,43.2608261108,41.0407295227,158.8392639160,0.0613805056,-0.0101619363,-0.0064061880,
239.603,-3.3240675926,1.4323874712,26.3055553436,0.0577121191,0.0374574885,0.0044373274,-115.5670700073,74.2412033081,45.3354377747,0.0288197994,0.0583955348,0.0019189715,15.4527349472,83.1900863647,-170.7163085938,0.0251715779,0.0221260525,0.0236265659,43.2617301941,41.0433502197,158.8467712402,0.0619032979,-0.0155211091,-0.0102823973,
239.613,-3.3247804642,1.4338042736,26.3066425323,0.0572485588,0.0399112701,0.0059034228,-115.5687103271,74.2407684326,45.3389587402,0.0312591791,0.0559574068,0.0082767606,15.4752340317,83.1906585693,-170.6865692139,0.0256610513,0.0294073075,0.0212072134,43.2647857666,41.0439987183,158.8553314209,0.0687478185,-0.0082210302,-0.0117143393,
239.623,-3.3274219036,1.4345368147,26.3083782196,0.0577496178,0.0394689813,0.0098122358,-115.5742263794,74.2406082153,45.3345031738,0.0317466855,0.0559486151,0.0019538999,15.4872856140,83.1902923584,-170.6666107178,0.0232188702,0.0264517181,0.0192555189,43.2673454285,41.0433540344,158.8629150391,0.0697158575,-0.0136218667,-0.0146263242,
239.633,-3.3278698921,1.4363900423,26.3113288879,0.0563171133,0.0448478311,0.0132317543,-115.5773010254,74.2409973145,45.3333969116,0.0297954082,0.0559363067,-0.0009653568,15.4794330597,83.1921005249,-170.6676635742,0.0271288753,0.0201281570,0.0183040500,43.2666282654,41.0428848267,158.8684539795,0.0658034682,-0.0102006197,-0.0063359141,
239.643,-3.3295733929,1.4353590012,26.3130931854,0.0616702139,0.0385298729,0.0063967705,-115.5794982910,74.2459793091,45.3345260620,0.0337252617,0.0636686534,0.0019379258,15.4631271362,83.1890487671,-170.6785278320,0.0256577134,0.0269831643,0.0270337462,43.2663421631,41.0420036316,158.8742218018,0.0662801266,-0.0116696358,-0.0058575273,
239.653,-3.3285741806,1.4349321127,26.3148555756,0.0616627671,0.0458367020,0.0054196119,-115.5862197876,74.2471771240,45.3297920227,0.0298246741,0.0577778518,-0.0092725754,15.4664688110,83.1865463257,-170.6678009033,0.0280939341,0.0245234072,0.0289465189,43.2647094727,41.0405883789,158.8776397705,0.0711443424,-0.0141065121,-0.0019777417,
239.663,-3.3273155689,1.4366838932,26.3165779114,0.0563222356,0.0423967615,0.0098130703,-115.5868225098,74.2508621216,45.3313446045,0.0303304195,0.0567438751,0.0063284039,15.4556264877,83.1857070923,-170.6724548340,0.0232093930,0.0211241618,0.0147690773,43.2665557861,41.0430374146,158.8840026855,0.0570163727,-0.0141050220,-0.0117064118,
239.673,-3.3262104988,1.4350215197,26.3185005188,0.0553166717,0.0418892801,0.0063936114,-115.5926361084,74.2520828247,45.3265724182,0.0298479199,0.0576909781,0.0034149289,15.4373655319,83.1793212891,-170.6827545166,0.0271024108,0.0260145888,0.0336949825,43.2649154663,41.0448265076,158.8888397217,0.0658290386,-0.0170049071,-0.0068234205,
239.683,-3.3260838985,1.4355072975,26.3202648163,0.0587431155,0.0448167473,0.0137180090,-115.6170883179,74.2515563965,45.3064231873,0.0293571353,0.0649723560,-0.0057536960,15.4548578262,83.1798171997,-170.6560516357,0.0266151428,0.0240282454,0.0195528269,43.2658920288,41.0460166931,158.8946838379,0.0663329363,-0.0126103759,-0.0107108355,
239.693,-3.3263535500,1.4356269836,26.3201789856,0.0616748929,0.0457980037,0.0098121762,-115.6225433350,74.2537155151,45.3052482605,0.0308322310,0.0615105927,0.0123203993,15.4473409653,83.1784896851,-170.6535949707,0.0271006823,0.0201313682,0.0258751512,43.2684593201,41.0463256836,158.9035797119,0.0682901144,-0.0087263584,-0.0077553988,
239.703,-3.3273131847,1.4356136322,26.3212928772,0.0621629395,0.0433733091,0.0034654140,-115.6311111450,74.2523574829,45.3025512695,0.0327789187,0.0600490719,0.0060192347,15.4629220963,83.1794357300,-170.6281738281,0.0285674930,0.0230335668,0.0180861950,43.2716598511,41.0458374023,158.9111480713,0.0702368617,-0.0082725286,-0.0091955066,
239.713,-3.3285543919,1.4357657433,26.3229866028,0.0641187206,0.0443714932,0.0107909441,-115.6415710449,74.2506713867,45.2999191284,0.0317943692,0.0610289872,0.0119356513,15.4926528931,83.1814270020,-170.5881042480,0.0266184807,0.0259119794,0.0132524967,43.2711791992,41.0444755554,158.9192657471,0.0697306395,-0.0092552900,-0.0038402081,
239.723,-3.3300960064,1.4358953238,26.3246459961,0.0621678531,0.0346327126,0.0142106414,-115.6523666382,74.2490158081,45.2982635498,0.0317865014,0.0605443567,0.0041814446,15.5060138702,83.1839523315,-170.5635986328,0.0290651321,0.0190605298,0.0128135085,43.2700843811,41.0472908020,158.9262390137,0.0629317760,-0.0184999704,-0.0106625557,
239.733,-3.3306281567,1.4357793331,26.3251285553,0.0646072403,0.0448958986,0.0054215193,-115.6704635620,74.2448959351,45.2904968262,0.0288373232,0.0571506768,0.0057538748,15.5292711258,83.1829757690,-170.5280151367,0.0227154493,0.0248685740,0.0216007233,43.2677192688,41.0455207825,158.9328155518,0.0697443485,-0.0121435523,-0.0014213324,
239.743,-3.3291227818,1.4338576794,26.3256931305,0.0645737052,0.0434048772,0.0073730946,-115.6884918213,74.2414703369,45.2817153931,0.0302858949,0.0557005107,0.0039029717,15.5610685349,83.1846160889,-170.4851379395,0.0241836905,0.0233464427,0.0167611241,43.2682113647,41.0486602783,158.9410552979,0.0600200891,-0.0135884285,-0.0062735081,
239.753,-3.3297441006,1.4337879419,26.3268470764,0.0601779595,0.0424391404,0.0020017028,-115.7040100098,74.2402420044,45.2743644714,0.0263738632,0.0527572483,0.0015369058,15.5678319931,83.1848526001,-170.4671783447,0.0232076049,0.0208926238,0.0216527581,43.2636718750,41.0482139587,158.9464569092,0.0629438758,-0.0174546838,0.0058888793,
239.763,-3.3310878277,1.4346542358,26.3285465240,0.0592165142,0.0419742391,0.0034690499,-115.7048492432,74.2383880615,45.2819976807,0.0224587917,0.0542493463,0.0064368844,15.5749492645,83.1842727661,-170.4508361816,0.0285775065,0.0228286907,0.0196940899,43.2613563538,41.0455398560,158.9515686035,0.0716977715,-0.0179417133,-0.0024548173,
239.773,-3.3301537037,1.4355689287,26.3308925629,0.0616738796,0.0497704484,0.0137218237,-115.7100219727,74.2374954224,45.2845573425,0.0248959661,0.0537631363,0.0040241480,15.5697021484,83.1858901978,-170.4461212158,0.0246745944,0.0164987035,0.0167863965,43.2598571777,41.0429649353,158.9582214355,0.0711755753,-0.0101351142,0.0033694506,
239.783,-3.3280894756,1.4373277426,26.3307247162,0.0621928461,0.0497344472,0.0049318075,-115.7190246582,74.2395935059,45.2802581787,0.0278356075,0.0620137304,0.0050240755,15.5846090317,83.1857070923,-170.4233551025,0.0261390805,0.0272100493,0.0158159733,43.2623825073,41.0455627441,158.9649505615,0.0604676008,-0.0164865851,-0.0131877661,
239.793,-3.3277366161,1.4373760223,26.3324375153,0.0621936880,0.0414275229,0.0068842173,-115.7178955078,74.2414550781,45.2833328247,0.0234498978,0.0595466942,0.0040290952,15.5785646439,83.1887588501,-170.4227905273,0.0261453986,0.0238184854,0.0119572878,43.2613601685,41.0457077026,158.9705200195,0.0668172240,-0.0130575895,-0.0034298897,
239.803,-3.3257517815,1.4397448301,26.3335342407,0.0558873676,0.0472522564,0.0000479221,-115.7145843506,74.2432632446,45.2873191833,0.0302944183,0.0541545600,0.0098611712,15.5642719269,83.1922836304,-170.4303894043,0.0212698579,0.0204455256,0.0100536942,43.2631759644,41.0426101685,158.9771118164,0.0755654573,-0.0091932416,-0.0014870167,
239.813,-3.3250823021,1.4390884638,26.3347053528,0.0622235648,0.0447992049,0.0019991398,-115.7032852173,74.2448043823,45.2991561890,0.0303017497,0.0605025142,0.0117546320,15.5740804672,83.1906585693,-170.4143524170,0.0246844888,0.0238364004,0.0256584287,43.2662010193,41.0450592041,158.9830780029,0.0648555160,-0.0155504942,-0.0146220922,
239.823,-3.3236572742,1.4367479086,26.3346767426,0.0660889819,0.0452627316,0.0117629766,-115.6948165894,74.2455291748,45.3085136414,0.0346996784,0.0619743615,0.0068301558,15.5485115051,83.1897735596,-170.4324188232,0.0246826410,0.0180246383,0.0251408815,43.2681694031,41.0476722717,158.9883728027,0.0634250641,-0.0135958791,-0.0087237358,
239.833,-3.3249530792,1.4348480701,26.3351802826,0.0665441155,0.0379611216,0.0049273968,-115.6913757324,74.2448501587,45.3142776489,0.0273722410,0.0556434691,0.0136564374,15.5252647400,83.1912384033,-170.4496459961,0.0266388059,0.0224725455,0.0173377395,43.2708587646,41.0465660095,158.9951934814,0.0712230206,-0.0121653080,-0.0091964006,
239.843,-3.3251905441,1.4339656830,26.3339328766,0.0587162152,0.0394301303,0.0166461468,-115.6958465576,74.2433395386,45.3127899170,0.0342010260,0.0615165681,0.0048974752,15.5053358078,83.1909179688,-170.4627532959,0.0315209627,0.0210471936,0.0212302208,43.2675819397,41.0466804504,158.9996795654,0.0673182607,-0.0131097436,0.0024930835,
239.853,-3.3257758617,1.4328964949,26.3350696564,0.0660217851,0.0467645675,0.0078573227,-115.6852264404,74.2391357422,45.3247451782,0.0327162743,0.0537896305,0.0141596794,15.5018787384,83.1923065186,-170.4588623047,0.0271292925,0.0205713809,0.0197823644,43.2691955566,41.0443115234,159.0059509277,0.0741230249,-0.0053311586,-0.0053238869,
239.863,-3.3251967430,1.4321306944,26.3362979889,0.0586842000,0.0443130955,0.0127391815,-115.6819915771,74.2334671021,45.3322029114,0.0341542363,0.0577877164,0.0063745379,15.5099811554,83.1891632080,-170.4445343018,0.0266345143,0.0264006928,0.0280391574,43.2723617554,41.0448760986,159.0131378174,0.0638765097,-0.0043807030,-0.0062681437,
239.873,-3.3261203766,1.4306951761,26.3368968964,0.0606122799,0.0413995348,0.0039498806,-115.6999588013,74.2276077271,45.3148117065,0.0282670856,0.0597921610,-0.0052247047,15.5195903778,83.1868896484,-170.4269866943,0.0310243368,0.0268588774,0.0270293355,43.2755546570,41.0461845398,159.0186920166,0.0663352013,-0.0141664743,-0.0198994875,
239.883,-3.3230850697,1.4299520254,26.3387184143,0.0605993122,0.0486708991,0.0044355392,-115.7042999268,74.2250747681,45.3134956360,0.0336261392,0.0603096187,0.0119021535,15.5304489136,83.1847076416,-170.4087829590,0.0305315256,0.0248738974,0.0201640129,43.2724800110,41.0442237854,159.0230712891,0.0755866766,-0.0131759048,-0.0033420324,
239.893,-3.3237731457,1.4301481247,26.3410644531,0.0596261732,0.0398938134,0.0059006214,-115.7140121460,74.2217483521,45.3085098267,0.0228681564,0.0613170415,0.0041555762,15.5243501663,83.1864852905,-170.4056854248,0.0266289711,0.0239178464,0.0221433640,43.2711524963,41.0393104553,159.0300140381,0.0789399743,-0.0078306198,-0.0019302368,
239.903,-3.3236715794,1.4309757948,26.3415641785,0.0591523349,0.0428217202,0.0049244165,-115.7242813110,74.2213745117,45.3041343689,0.0277491808,0.0627664030,0.0139680505,15.5270156860,83.1850204468,-170.3919372559,0.0232079625,0.0229290798,0.0216319561,43.2754173279,41.0404243469,159.0421142578,0.0716304779,-0.0117691159,-0.0160431266,
239.913,-3.3220279217,1.4260745049,26.3429203033,0.0663910359,0.0481643043,0.0029677153,-115.7495269775,74.2196350098,45.2879066467,0.0257878304,0.0632279366,-0.0025124550,15.5336732864,83.1856536865,-170.3766479492,0.0178381801,0.0219418816,0.0216457248,43.2739639282,41.0383911133,159.0493621826,0.0716036558,-0.0078648329,-0.0038654804,
239.923,-3.3234798908,1.4242593050,26.3428516388,0.0663593560,0.0437951088,0.0107808113,-115.7524795532,74.2178039551,45.2940483093,0.0340799093,0.0573902726,0.0150915980,15.5651502609,83.1875228882,-170.3360900879,0.0241897106,0.0262812488,0.0075342655,43.2771110535,41.0369071960,159.0603637695,0.0735372901,-0.0103480220,-0.0082441568,
239.933,-3.3230834007,1.4246635437,26.3439331055,0.0629484504,0.0437881872,0.0063859224,-115.7535171509,74.2152404785,45.3032836914,0.0291849375,0.0549855232,0.0160912275,15.5736188889,83.1883087158,-170.3172607422,0.0285858512,0.0267560631,0.0212242603,43.2762145996,41.0373573303,159.0688781738,0.0618244410,-0.0142421722,-0.0048304796,
239.943,-3.3232638836,1.4232388735,26.3426265717,0.0668298379,0.0462327786,0.0093151927,-115.7474517822,74.2145767212,45.3185691833,0.0325997472,0.0550074279,0.0160700679,15.5651655197,83.1893081665,-170.3164825439,0.0300527811,0.0214066915,0.0202594995,43.2786788940,41.0378456116,159.0781402588,0.0662254095,-0.0098674893,-0.0106641054,
239.953,-3.3245215416,1.4232679605,26.3437461853,0.0624358207,0.0443015583,0.0151759386,-115.7540893555,74.2174835205,45.3193321228,0.0296838880,0.0564154238,0.0107063055,15.5430965424,83.1895141602,-170.3287200928,0.0256586671,0.0214520767,0.0251321793,43.2797508240,41.0400238037,159.0857543945,0.0643009543,-0.0157200098,-0.0111240149,
239.963,-3.3238685131,1.4231584072,26.3448696136,0.0604807772,0.0403839387,0.0068743825,-115.7572326660,74.2195663452,45.3216209412,0.0282288790,0.0573537648,0.0043570399,15.5466146469,83.1927642822,-170.3147735596,0.0276185274,0.0204835497,0.0095639229,43.2762603760,41.0404167175,159.0892486572,0.0652826428,-0.0186131597,-0.0101757646,
239.973,-3.3253126144,1.4229316711,26.3460083008,0.0585236959,0.0374794081,0.0000398755,-115.7582702637,74.2241210938,45.3237953186,0.0341098905,0.0616790950,0.0062813163,15.5514745712,83.1945266724,-170.3026580811,0.0276221633,0.0253645778,0.0169197917,43.2765197754,41.0392379761,159.0949554443,0.0706382394,-0.0113006830,-0.0053004026,
239.983,-3.3252160549,1.4221870899,26.3471469879,0.0624169521,0.0428488404,-0.0009370446,-115.7535552979,74.2268753052,45.3313331604,0.0272870064,0.0572513193,0.0077060461,15.5618734360,83.1954803467,-170.2836914063,0.0242061615,0.0248594545,0.0193820596,43.2774848938,41.0377464294,159.1011505127,0.0686655045,-0.0103451014,-0.0067690611,
239.993,-3.3235511780,1.4223797321,26.3482532501,0.0614437573,0.0418432690,0.0034555197,-115.7498550415,74.2284393311,45.3372306824,0.0292475820,0.0523524880,0.0067021847,15.5726490021,83.1923980713,-170.2667236328,0.0261529088,0.0233587660,0.0217791796,43.2775840759,41.0397491455,159.1063842773,0.0599028468,-0.0181428194,-0.0096811056,
240.003,-3.3251426220,1.4228161573,26.3505954742,0.0590099618,0.0408944152,0.0127349496,-115.7579956055,74.2300872803,45.3335266113,0.0351147652,0.0576822162,-0.0005991459,15.5850648880,83.1919021606,-170.2463836670,0.0315229893,0.0262610875,0.0227544904,43.2749938965,41.0383224487,159.1097412109,0.0686730742,-0.0122697949,-0.0058103204,
240.013,-3.3247976303,1.4209127426,26.3505306244,0.0643478483,0.0394236147,0.0063862801,-115.7617568970,74.2324066162,45.3352088928,0.0370788574,0.0600806028,0.0052595735,15.5745315552,83.1939468384,-170.2489624023,0.0207850337,0.0238503702,0.0227823257,43.2742156982,41.0367660522,159.1151428223,0.0730471015,-0.0127628446,-0.0053420067,
240.023,-3.3259167671,1.4193601608,26.3522129059,0.0677387267,0.0384665802,0.0054101944,-115.7589111328,74.2336044312,45.3428955078,0.0326900482,0.0615339279,0.0101214647,15.5657711029,83.1955337524,-170.2509460449,0.0261594057,0.0199691430,0.0149911642,43.2718276978,41.0356941223,159.1203460693,0.0676618814,-0.0137249827,-0.0048842430,
240.033,-3.3247327805,1.4179457426,26.3539886475,0.0652726442,0.0443053693,0.0093137622,-115.7713165283,74.2332916260,45.3345794678,0.0414776206,0.0590714216,0.0018761158,15.5568428040,83.1960220337,-170.2492828369,0.0305549502,0.0180362612,0.0218299031,43.2731475830,41.0315589905,159.1270141602,0.0749316812,-0.0079106688,-0.0005122423,
240.043,-3.3250534534,1.4190669060,26.3550872803,0.0584562644,0.0433343686,0.0112684965,-115.7766876221,74.2324371338,45.3330917358,0.0292665362,0.0541903526,0.0053233504,15.5622005463,83.1949539185,-170.2345886230,0.0242050886,0.0229032822,0.0306041837,43.2728233337,41.0298652649,159.1333923340,0.0680734515,-0.0084092021,0.0004472136,
240.053,-3.3267035484,1.4171775579,26.3581275940,0.0628178343,0.0428748764,0.0073632002,-115.7800598145,74.2291717529,45.3341369629,0.0277861953,0.0517907888,0.0058500171,15.5513257980,83.1936569214,-170.2369079590,0.0212727189,0.0248724557,0.0252054334,43.2696914673,41.0308189392,159.1392974854,0.0602734685,-0.0156958103,0.0048217773,
240.063,-3.3275101185,1.4172959328,26.3598575592,0.0598902106,0.0394709446,0.0093168020,-115.7909088135,74.2244949341,45.3266830444,0.0258108974,0.0567221045,0.0025124550,15.5592231750,83.1933975220,-170.2196655273,0.0261549950,0.0209490545,0.0252056122,43.2709388733,41.0328559875,159.1481933594,0.0671362877,-0.0108091235,-0.0132170916,
240.073,-3.3269546032,1.4166508913,26.3603973389,0.0623203591,0.0443441011,0.0093162060,-115.7995834351,74.2212677002,45.3235244751,0.0301901102,0.0582176894,0.0089209080,15.5723962784,83.1893692017,-170.1977539063,0.0217521191,0.0243221633,0.0290542245,43.2690162659,41.0341949463,159.1542968750,0.0637359023,-0.0132214427,-0.0034569502,
240.083,-3.3270971775,1.4165666103,26.3616123199,0.0584126413,0.0482528396,0.0117577314,-115.8021087646,74.2199554443,45.3280220032,0.0253010392,0.0621384084,0.0113826394,15.5749187469,83.1884460449,-170.1859893799,0.0276095867,0.0213830397,0.0173212886,43.2688522339,41.0342674255,159.1625061035,0.0622720718,-0.0141957998,-0.0029695034,
240.093,-3.3290522099,1.4150744677,26.3627796173,0.0632694215,0.0419392809,0.0093176365,-115.7958221436,74.2182006836,45.3406791687,0.0272458196,0.0577833056,0.0221107006,15.5630083084,83.1876449585,-170.1862487793,0.0261430740,0.0228682682,0.0226722360,43.2668952942,41.0363388062,159.1706848145,0.0642523766,-0.0166022778,-0.0058997869,
240.103,-3.3250133991,1.4143486023,26.3646297455,0.0608153492,0.0521228500,0.0122428536,-115.8040618896,74.2170944214,45.3398857117,0.0306586027,0.0597357750,0.0099470019,15.5733509064,83.1874084473,-170.1655426025,0.0246777534,0.0287056454,0.0270688534,43.2679634094,41.0375595093,159.1786651611,0.0564560294,-0.0141614676,-0.0078330040,
240.113,-3.3246839046,1.4143031836,26.3652191162,0.0578848645,0.0457694530,0.0034534335,-115.8090057373,74.2129592896,45.3430366516,0.0369865894,0.0563698858,0.0095101595,15.5970144272,83.1898574829,-170.1328887939,0.0188234448,0.0272038691,0.0095430613,43.2685089111,41.0342178345,159.1852569580,0.0720369816,-0.0117515326,-0.0039497614,
240.123,-3.3258447647,1.4150002003,26.3669109344,0.0618032739,0.0448130891,-0.0004512668,-115.8075485229,74.2139511108,45.3505020142,0.0272256732,0.0578234196,0.0090083480,15.5905942917,83.1881332397,-170.1313171387,0.0193081498,0.0247677192,0.0241604447,43.2660255432,41.0343399048,159.1899414063,0.0695972443,-0.0146564245,-0.0034828186,
240.133,-3.3245053291,1.4164502621,26.3673362732,0.0613402985,0.0428366028,0.0073604584,-115.8029251099,74.2127914429,45.3589706421,0.0306381583,0.0558965951,0.0114383101,15.5811309814,83.1871795654,-170.1320953369,0.0222358704,0.0208763517,0.0236515403,43.2655944824,41.0332260132,159.1956024170,0.0676294565,-0.0122197270,-0.0059374571,
240.143,-3.3247268200,1.4146724939,26.3697204590,0.0647272468,0.0413756631,0.0146842003,-115.8074874878,74.2118759155,45.3571510315,0.0335634947,0.0612720847,0.0075584054,15.5717287064,83.1855697632,-170.1340637207,0.0329747200,0.0203998089,0.0202020407,43.2639884949,41.0340423584,159.1998443604,0.0632456541,-0.0131744146,-0.0054568052,
240.153,-3.3254783154,1.4165898561,26.3707485199,0.0598778874,0.0418769866,0.0088264346,-115.8128738403,74.2126007080,45.3553314209,0.0242896080,0.0602736771,0.0046465993,15.5596189499,83.1849670410,-170.1393127441,0.0290672183,0.0184682198,0.0201843977,43.2662200928,41.0344085693,159.2075653076,0.0700863600,-0.0107515454,-0.0127578974,
240.163,-3.3253266811,1.4181290865,26.3718566895,0.0569750555,0.0428508744,0.0107799768,-115.8119430542,74.2142028809,45.3563346863,0.0311331153,0.0631810427,0.0134199858,15.5621852875,83.1841049194,-170.1305236816,0.0256474614,0.0223652162,0.0240774751,43.2650680542,41.0324401855,159.2128143311,0.0749433041,-0.0102677345,-0.0049722791,
240.173,-3.3249776363,1.4189305305,26.3717479706,0.0589421690,0.0438213348,-0.0004505515,-115.8162155151,74.2124557495,45.3558654785,0.0267302990,0.0568509102,0.0002674460,15.5709161758,83.1828308105,-170.1137390137,0.0256448388,0.0238066129,0.0265030861,43.2645072937,41.0321388245,159.2187347412,0.0612674952,-0.0122177601,-0.0040032268,
240.183,-3.3260478973,1.4161446095,26.3735713959,0.0657294989,0.0428634807,0.0078501105,-115.8114242554,74.2114791870,45.3666801453,0.0277022123,0.0568756014,0.0090430379,15.5734777451,83.1814270020,-170.1025848389,0.0197825432,0.0262364671,0.0284348130,43.2664070129,41.0319480896,159.2272186279,0.0671243072,-0.0102843642,-0.0069174767,
240.193,-3.3263099194,1.4159179926,26.3753471375,0.0588896051,0.0414032042,0.0073618889,-115.8153686523,74.2086181641,45.3674583435,0.0286651850,0.0554454923,0.0041978955,15.5724287033,83.1815338135,-170.0937347412,0.0285718441,0.0213561542,0.0225762725,43.2651367188,41.0294647217,159.2348022461,0.0753924251,-0.0083385706,-0.0001137257,
240.203,-3.3277447224,1.4177150726,26.3758392334,0.0535498634,0.0375219025,0.0019931197,-115.8186950684,74.2068099976,45.3718566895,0.0286566019,0.0549779087,0.0066668987,15.5737152100,83.1830673218,-170.0845184326,0.0290632844,0.0242905095,0.0196734667,43.2650985718,41.0301513672,159.2420196533,0.0627061725,-0.0132156014,-0.0030376911,
240.213,-3.3296778202,1.4182324409,26.3781185150,0.0628362373,0.0419500917,0.0073664784,-115.8214950562,74.2050628662,45.3769760132,0.0281600356,0.0569515079,0.0052267909,15.5646066666,83.1817703247,-170.0880737305,0.0280840397,0.0218615830,0.0201352239,43.2668457031,41.0303115845,159.2503204346,0.0685675740,-0.0132310987,-0.0059504509,
240.223,-3.3297858238,1.4206720591,26.3810157776,0.0560428649,0.0419519097,0.0010195971,-115.8298263550,74.2061080933,45.3741378784,0.0296298265,0.0564303249,0.0091612339,15.5705547333,83.1820526123,-170.0759429932,0.0305260420,0.0223391540,0.0191667676,43.2674369812,41.0296783447,159.2568817139,0.0710006356,-0.0142183304,-0.0069268346,
240.233,-3.3284945488,1.4190567732,26.3828163147,0.0638271794,0.0468122736,0.0093190670,-115.8386459351,74.2048950195,45.3687973022,0.0320654511,0.0574065745,0.0018838048,15.5640859604,83.1819152832,-170.0749511719,0.0217366815,0.0208867788,0.0230671763,43.2671165466,41.0277137756,159.2629241943,0.0734162331,-0.0098361373,-0.0025517344,
240.243,-3.3295552731,1.4193472862,26.3857612610,0.0594377220,0.0385299660,0.0063900352,-115.8468475342,74.2062149048,45.3629531860,0.0301186442,0.0607875288,0.0028858185,15.5338249207,83.1797866821,-170.0958557129,0.0246619582,0.0180086233,0.0274093151,43.2704620361,41.0295906067,159.2709655762,0.0685580969,-0.0108300447,-0.0147129297,
240.253,-3.3278355598,1.4197657108,26.3874759674,0.0633512735,0.0482656173,0.0151777267,-115.8616943359,74.2048645020,45.3512840271,0.0310887694,0.0593124777,-0.0038765669,15.5366659164,83.1790084839,-170.0849151611,0.0183126926,0.0214173682,0.0244688988,43.2699851990,41.0303306580,159.2764892578,0.0661264062,-0.0147259235,-0.0049455762,
240.263,-3.3284163475,1.4172852039,26.3899726868,0.0603783019,0.0424164273,0.0044351220,-115.8795089722,74.2070693970,45.3366851807,0.0276812911,0.0665662289,0.0049729347,15.5402774811,83.1787796021,-170.0725708008,0.0305192471,0.0209203660,0.0273952484,43.2678260803,41.0298576355,159.2832794189,0.0661202669,-0.0132440329,-0.0069220066,
240.273,-3.3282999992,1.4184787273,26.3911190033,0.0579577237,0.0492503047,0.0034589171,-115.8891906738,74.2062301636,45.3322753906,0.0296304226,0.0597228408,0.0050204992,15.5412445068,83.1792984009,-170.0623779297,0.0324734449,0.0233622044,0.0225216746,43.2660026550,41.0294227600,159.2901153564,0.0700207949,-0.0132299662,-0.0010826588,
240.283,-3.3271598816,1.4187848568,26.3916263580,0.0608927496,0.0443476252,0.0024814010,-115.9046325684,74.2081756592,45.3242111206,0.0350107551,0.0664976388,0.0109319687,15.5564460754,83.1800460815,-170.0379638672,0.0285687447,0.0247999169,0.0205906034,43.2644233704,41.0300178528,159.2974395752,0.0627043247,-0.0156515837,-0.0030449629,
240.293,-3.3252344131,1.4181050062,26.3922805786,0.0579512008,0.0491969176,0.0029670000,-115.9105682373,74.2066574097,45.3255615234,0.0418394804,0.0577191859,0.0124334097,15.5612735748,83.1817703247,-170.0216369629,0.0261309147,0.0272392668,0.0211091042,43.2675971985,41.0332641602,159.3068237305,0.0617704988,-0.0093088746,-0.0142197609,
240.303,-3.3270413876,1.4183073044,26.3916072845,0.0569781698,0.0404393263,0.0102937818,-115.9155197144,74.2050628662,45.3283576965,0.0276717544,0.0562673807,0.0056303740,15.5789690018,83.1826324463,-169.9935302734,0.0280858278,0.0262309015,0.0221102238,43.2701721191,41.0359268188,159.3160400391,0.0647352934,-0.0132189393,-0.0112446547,
240.313,-3.3277943134,1.4197667837,26.3926391602,0.0613981672,0.0419172496,0.0063884258,-115.9288482666,74.2026901245,45.3231468201,0.0305901766,0.0533462465,0.0042400360,15.5948019028,83.1864852905,-169.9679260254,0.0236992836,0.0227984488,0.0133931041,43.2701416016,41.0373382568,159.3234863281,0.0628007650,-0.0122309923,-0.0126980543,
240.323,-3.3289873600,1.4187465906,26.3930797577,0.0677280203,0.0404732078,0.0044361949,-115.9356002808,74.1993789673,45.3249626160,0.0291095972,0.0558232814,0.0023401380,15.5896720886,83.1864318848,-169.9625854492,0.0256522894,0.0223203599,0.0216903687,43.2689781189,41.0355415344,159.3305511475,0.0710778236,-0.0151636600,-0.0102821589,
240.333,-3.3300428391,1.4178037643,26.3948612213,0.0613639131,0.0429330245,0.0063900352,-115.9400939941,74.1997985840,45.3283157349,0.0261818767,0.0597138703,0.0067508817,15.5863180161,83.1845855713,-169.9547424316,0.0241836309,0.0208538473,0.0275175571,43.2692375183,41.0367050171,159.3373870850,0.0618158579,-0.0122272372,-0.0092934370,
240.343,-3.3288516998,1.4154583216,26.3972759247,0.0686472058,0.0507248342,0.0088292360,-115.9367065430,74.2013854980,45.3371620178,0.0325371027,0.0601854622,0.0096544027,15.5726814270,83.1826019287,-169.9591674805,0.0188084245,0.0247787088,0.0279658437,43.2670669556,41.0356292725,159.3404693604,0.0686376691,-0.0141679645,-0.0000447631,
240.353,-3.3283574581,1.4149892330,26.4008560181,0.0622913688,0.0438803025,0.0083404183,-115.9309387207,74.1998596191,45.3476943970,0.0335063934,0.0543612987,0.0086643100,15.5826864243,83.1851959229,-169.9411926270,0.0266262889,0.0228171498,0.0158069730,43.2668876648,41.0393600464,159.3455200195,0.0603859425,-0.0156018734,-0.0097808838,
240.363,-3.3274390697,1.4156429768,26.4020271301,0.0554668382,0.0414228812,0.0000386238,-115.9344329834,74.1976013184,45.3488845825,0.0286128521,0.0529228747,0.0033247471,15.5975656509,83.1877212524,-169.9183502197,0.0237018466,0.0227988660,0.0114634633,43.2658653259,41.0413169861,159.3508911133,0.0633413792,-0.0204595327,-0.0161214471,
240.373,-3.3274378777,1.4141920805,26.4050712585,0.0613008961,0.0443525836,0.0078507662,-115.9301605225,74.1984634399,45.3580741882,0.0266638398,0.0587782413,0.0081828833,15.5768690109,83.1883621216,-169.9317169189,0.0197969079,0.0208903998,0.0182974935,43.2650337219,41.0407905579,159.3555755615,0.0706586838,-0.0165494680,-0.0083208084,
240.383,-3.3252143860,1.4120116234,26.4050693512,0.0632159784,0.0438256264,0.0073593259,-115.9280395508,74.1982803345,45.3645896912,0.0334988832,0.0602496266,0.0052455068,15.5598173141,83.1867446899,-169.9407348633,0.0320006013,0.0218940191,0.0275382400,43.2700386047,41.0413246155,159.3649597168,0.0716422796,-0.0112221241,-0.0160838366,
240.393,-3.3271322250,1.4127079248,26.4055500031,0.0598101579,0.0399527662,0.0107790828,-115.9381256104,74.1996688843,45.3597755432,0.0291109681,0.0602085292,0.0057668090,15.5502071381,83.1913833618,-169.9436035156,0.0251742601,0.0190050341,0.0095428228,43.2679061890,41.0418548584,159.3694152832,0.0662781596,-0.0170569420,-0.0014501810,
240.403,-3.3266451359,1.4119901657,26.4067459106,0.0602859184,0.0462919623,0.0015012026,-115.9327316284,74.1985168457,45.3671264648,0.0310586095,0.0563307405,0.0125880837,15.5407590866,83.1911773682,-169.9457244873,0.0300566554,0.0234178305,0.0202766657,43.2685966492,41.0426597595,159.3763427734,0.0687301159,-0.0131510496,-0.0048552752,
240.413,-3.3261513710,1.4123535156,26.4091300964,0.0568742864,0.0418888181,0.0049189329,-115.9438858032,74.1959991455,45.3592720032,0.0271403790,0.0534155816,0.0014238954,15.5710783005,83.1934280396,-169.9081573486,0.0207839608,0.0292260237,0.0198420286,43.2716369629,41.0455360413,159.3841705322,0.0658383369,-0.0126692653,-0.0155460238,
240.423,-3.3249866962,1.4116560221,26.4126968384,0.0651628971,0.0462630764,0.0063822865,-115.9489440918,74.1949462891,45.3579444885,0.0334830284,0.0543974340,0.0078010559,15.5573759079,83.1924514771,-169.9138793945,0.0266413093,0.0229016319,0.0237243772,43.2676467896,41.0471611023,159.3865661621,0.0629300475,-0.0145713687,-0.0033612251,
240.433,-3.3255071640,1.4093568325,26.4144325256,0.0685407519,0.0404128246,0.0132176876,-115.9611434937,74.1956405640,45.3509712219,0.0315332413,0.0616857111,0.0054067373,15.5499916077,83.1928787231,-169.9131622314,0.0276187658,0.0199886858,0.0247032642,43.2705841064,41.0480880737,159.3960723877,0.0624539852,-0.0106860399,-0.0096747279,
240.443,-3.3253397942,1.4110306501,26.4167137146,0.0588043295,0.0428512767,0.0078473687,-115.9664535522,74.1961669922,45.3508758545,0.0315356851,0.0582489073,0.0151914954,15.5270481110,83.1920471191,-169.9249267578,0.0290818810,0.0180784501,0.0212599635,43.2716941833,41.0479087830,159.4028778076,0.0673344135,-0.0087448955,0.0005877018,
240.453,-3.3273108006,1.4105753899,26.4178466797,0.0617260747,0.0419090614,0.0078492165,-115.9642181396,74.1953964233,45.3579025269,0.0310437679,0.0597296953,0.0171405077,15.5456342697,83.1938934326,-169.8982849121,0.0305505395,0.0204904489,0.0169050694,43.2702751160,41.0475463867,159.4072418213,0.0614702702,-0.0101990104,-0.0028462410,
240.463,-3.3263788223,1.4098042250,26.4196758270,0.0607360527,0.0477522165,0.0054057240,-115.9827957153,74.1925964355,45.3448295593,0.0276125073,0.0631513000,-0.0013139248,15.5564794540,83.1926574707,-169.8777008057,0.0276182890,0.0272986665,0.0237262845,43.2700576782,41.0465774536,159.4144287109,0.0682934523,-0.0121576190,-0.0048090816,
240.473,-3.3264570236,1.4093592167,26.4207820892,0.0617048554,0.0399410874,0.0083361864,-115.9802932739,74.1912918091,45.3523635864,0.0339539647,0.0563403219,0.0128450394,15.5436658859,83.1923065186,-169.8811340332,0.0246878862,0.0190227479,0.0212743282,43.2660827637,41.0464439392,159.4192962646,0.0648736954,-0.0155385137,-0.0019164681,
240.483,-3.3273375034,1.4090390205,26.4219131470,0.0631641150,0.0458158106,0.0015004277,-115.9829559326,74.1860275269,45.3578910828,0.0280695558,0.0481126010,0.0045944452,15.5495834351,83.1961975098,-169.8685150146,0.0300670266,0.0214697309,0.0140162110,43.2655029297,41.0481376648,159.4266204834,0.0629429221,-0.0135666132,-0.0072786808,
240.493,-3.3276367188,1.4088064432,26.4224300385,0.0607186481,0.0414264947,0.0049188137,-115.9918670654,74.1874847412,45.3566246033,0.0300295949,0.0612563044,0.0090164542,15.5643777847,83.1983566284,-169.8451232910,0.0242121220,0.0234027579,0.0169895291,43.2620353699,41.0482139587,159.4320983887,0.0712446570,-0.0135327578,-0.0004734993,
240.503,-3.3286104202,1.4062162638,26.4248733521,0.0631148592,0.0409552343,0.0102900267,-115.9966354370,74.1893844604,45.3582115173,0.0329683423,0.0621937960,0.0104878545,15.5591821671,83.1969451904,-169.8422088623,0.0261623263,0.0204770565,0.0242874026,43.2622985840,41.0481872559,159.4375000000,0.0707560778,-0.0164651275,-0.0121901035,
240.513,-3.3277158737,1.4031808376,26.4243278503,0.0640384629,0.0477756672,0.0097994804,-116.0035018921,74.1897735596,45.3574256897,0.0329701900,0.0626620203,0.0061197877,15.5544738770,83.2005233765,-169.8382568359,0.0247048736,0.0185497925,0.0165308118,43.2617378235,41.0478401184,159.4434967041,0.0678218007,-0.0174389482,-0.0131744742,
240.523,-3.3293552399,1.4052665234,26.4253444672,0.0591920391,0.0409682319,0.0058956742,-116.0042114258,74.1884231567,45.3609008789,0.0354051590,0.0519387275,0.0032030940,15.5503625870,83.2026824951,-169.8349151611,0.0251976252,0.0195445791,0.0190056562,43.2582740784,41.0504608154,159.4467468262,0.0610203743,-0.0203148723,-0.0014650226,
240.533,-3.3288102150,1.4063447714,26.4270782471,0.0587225705,0.0463298075,0.0107785463,-116.0032577515,74.1885452271,45.3652267456,0.0290580988,0.0568220913,0.0095456839,15.5519132614,83.2027740479,-169.8241271973,0.0310571790,0.0219831802,0.0199841261,43.2558975220,41.0499382019,159.4518432617,0.0649197102,-0.0134603977,-0.0010031462,
240.543,-3.3300218582,1.4076690674,26.4275360107,0.0597222373,0.0424446352,0.0098037124,-115.9995574951,74.1872711182,45.3718795776,0.0319817066,0.0544071794,0.0056330562,15.5596599579,83.1997756958,-169.8088836670,0.0203087926,0.0229304247,0.0267753601,43.2582015991,41.0501251221,159.4595947266,0.0693166852,-0.0061566830,-0.0083039999,
240.553,-3.3290653229,1.4087234735,26.4299011230,0.0568109490,0.0434045047,0.0117559433,-116.0005493164,74.1850891113,45.3730697632,0.0295299292,0.0554144233,0.0056533813,15.5535936356,83.1997451782,-169.8068237305,0.0227501392,0.0190363899,0.0223773122,43.2604598999,41.0483894348,159.4669647217,0.0712469816,-0.0115631223,-0.0112288594,
240.563,-3.3303925991,1.4092071056,26.4291477203,0.0602373593,0.0400096439,0.0088284612,-115.9998550415,74.1814270020,45.3755722046,0.0324422121,0.0530297160,0.0027474761,15.5500755310,83.1989669800,-169.8030395508,0.0222602487,0.0268522054,0.0291973948,43.2596893311,41.0492706299,159.4727020264,0.0673523545,-0.0125253797,-0.0039036274,
240.573,-3.3306713104,1.4080152512,26.4284610748,0.0641228110,0.0414793752,0.0127335191,-115.9946212769,74.1815948486,45.3836250305,0.0314664245,0.0559675694,0.0173723102,15.5533981323,83.1975555420,-169.7923431396,0.0310463905,0.0253741704,0.0247816443,43.2588653564,41.0481796265,159.4772796631,0.0692911148,-0.0135025382,-0.0014788508,
240.583,-3.3331396580,1.4079405069,26.4289474487,0.0602152571,0.0381044000,0.0063891411,-115.9989166260,74.1820297241,45.3847007751,0.0314685106,0.0618111491,0.0076217055,15.5414657593,83.1961669922,-169.7969207764,0.0222544670,0.0239273459,0.0232882500,43.2573776245,41.0475082397,159.4823455811,0.0629345775,-0.0115404725,-0.0049157143,
240.593,-3.3334395885,1.4068026543,26.4300937653,0.0641016588,0.0434807464,0.0073649883,-116.0107727051,74.1812057495,45.3788185120,0.0299997330,0.0603347570,0.0037724972,15.5209846497,83.1955947876,-169.8082122803,0.0256712437,0.0225011930,0.0232667923,43.2571983337,41.0487251282,159.4907379150,0.0600209236,-0.0095760822,-0.0088135004,
240.603,-3.3347339630,1.4058130980,26.4311676025,0.0655492321,0.0400853492,0.0029718876,-116.0213165283,74.1807556152,45.3766136169,0.0285327435,0.0598310232,0.0052859783,15.5296888351,83.1942367554,-169.7902374268,0.0232270360,0.0244307965,0.0247155428,43.2575035095,41.0486869812,159.4990692139,0.0639266968,-0.0086027384,-0.0073462129,
240.613,-3.3375978470,1.4053953886,26.4329185486,0.0616356917,0.0430649295,0.0054155588,-116.0254440308,74.1781234741,45.3802337646,0.0353561640,0.0583970547,0.0077643991,15.5142698288,83.1932296753,-169.7958068848,0.0251780748,0.0210391805,0.0242008567,43.2595596313,41.0513191223,159.5069122314,0.0634731054,-0.0159260035,-0.0126769543,
240.623,-3.3370013237,1.4020463228,26.4335212708,0.0674366355,0.0445194654,0.0073669553,-116.0308227539,74.1772994995,45.3796463013,0.0280280113,0.0579098910,0.0038873553,15.5338125229,83.1918792725,-169.7682647705,0.0290815234,0.0258762240,0.0251659751,43.2581291199,41.0503196716,159.5115661621,0.0688309669,-0.0100607872,-0.0014677048,
240.633,-3.3363342285,1.4014215469,26.4352245331,0.0644960478,0.0425547399,0.0054129958,-116.0307693481,74.1734390259,45.3846588135,0.0319159031,0.0491789728,0.0087981820,15.5303554535,83.1903228760,-169.7630157471,0.0183361173,0.0219698176,0.0256265998,43.2583999634,41.0499191284,159.5179443359,0.0673608780,-0.0125079155,-0.0039099455,
240.643,-3.3358540535,1.4029054642,26.4375610352,0.0552445911,0.0396166518,0.0098072290,-116.0444869995,74.1716003418,45.3740386963,0.0260477662,0.0565018356,-0.0043128729,15.5278673172,83.1914367676,-169.7567443848,0.0227329731,0.0175855011,0.0202726722,43.2607460022,41.0507850647,159.5242156982,0.0678605437,-0.0115470290,-0.0087643862,
240.653,-3.3356301785,1.4013382196,26.4375228882,0.0630297512,0.0454721637,0.0024828911,-116.0518875122,74.1701278687,45.3702888489,0.0250641704,0.0628566593,0.0040305257,15.4999237061,83.1949005127,-169.7760467529,0.0266463757,0.0176578909,0.0149432421,43.2583465576,41.0501556396,159.5299835205,0.0702936649,-0.0125055313,-0.0009787083,
240.663,-3.3363780975,1.4020600319,26.4392871857,0.0576712489,0.0440203287,0.0059009790,-116.0531463623,74.1718444824,45.3727531433,0.0270255208,0.0579452515,0.0123239756,15.5027904510,83.1947860718,-169.7670135498,0.0315289497,0.0235109925,0.0227556229,43.2544555664,41.0517005920,159.5329742432,0.0532242060,-0.0139209032,0.0072999001,
240.673,-3.3372163773,1.4018369913,26.4403629303,0.0630384535,0.0415935293,0.0073674321,-116.0553817749,74.1700134277,45.3738594055,0.0314112902,0.0589448065,0.0084409118,15.4800128937,83.1908645630,-169.7823791504,0.0232200623,0.0240275897,0.0348856449,43.2558174133,41.0532226563,159.5410766602,0.0644746423,-0.0119689107,-0.0068354011,
240.683,-3.3369715214,1.4009361267,26.4433689117,0.0615578853,0.0430541337,0.0088311434,-116.0589523315,74.1686096191,45.3749046326,0.0284749269,0.0535865277,0.0045602322,15.4681081772,83.1910705566,-169.7839202881,0.0266384482,0.0235641003,0.0216977000,43.2555580139,41.0537223816,159.5483245850,0.0591101646,-0.0095210671,-0.0053685308,
240.693,-3.3362479210,1.4006204605,26.4445247650,0.0591109730,0.0406001285,0.0083420873,-116.0679397583,74.1702575684,45.3716659546,0.0235999823,0.0613562167,0.0089812279,15.4414758682,83.1892852783,-169.8005676270,0.0246816278,0.0172623023,0.0236067176,43.2577514648,41.0526390076,159.5570831299,0.0708146691,-0.0095505714,-0.0107290149,
240.703,-3.3372645378,1.4009941816,26.4456233978,0.0610706210,0.0430592336,0.0107847452,-116.0779266357,74.1648254395,45.3675193787,0.0352928638,0.0531156659,0.0012516975,15.4620876312,83.1901168823,-169.7707977295,0.0246833563,0.0250368454,0.0163077116,43.2574615479,41.0513725281,159.5649414063,0.0707979798,-0.0144405961,-0.0078126192,
240.713,-3.3379523754,1.4029146433,26.4454612732,0.0596392825,0.0464891344,0.0093214512,-116.0851821899,74.1640777588,45.3671913147,0.0299181938,0.0604365468,0.0022648573,15.4801445007,83.1891937256,-169.7448272705,0.0285876989,0.0269492641,0.0197209120,43.2583465576,41.0521965027,159.5717010498,0.0669025779,-0.0154191256,-0.0092625022,
240.723,-3.3390114307,1.4002151489,26.4472961426,0.0654515550,0.0450428091,0.0083444118,-116.0822448730,74.1625976563,45.3741798401,0.0260049105,0.0565586090,0.0090990663,15.4826536179,83.1898269653,-169.7343750000,0.0290772915,0.0235291421,0.0163149238,43.2599830627,41.0531005859,159.5790252686,0.0634964705,-0.0081034899,-0.0077753067,
240.733,-3.3373763561,1.4000499249,26.4471569061,0.0649603978,0.0459908955,0.0132258534,-116.0689392090,74.1630859375,45.3921127319,0.0274720788,0.0604851544,0.0173390508,15.4993734360,83.1902923584,-169.7085723877,0.0237071514,0.0259387754,0.0138903856,43.2578125000,41.0545501709,159.5849761963,0.0659570098,-0.0158839226,-0.0053420067,
240.743,-3.3375716209,1.3995903730,26.4489631653,0.0576281585,0.0415997766,0.0093196034,-116.0721893311,74.1655349731,45.3958091736,0.0279720426,0.0619064569,0.0124521852,15.4996652603,83.1898269653,-169.6998596191,0.0256593227,0.0303306505,0.0226723552,43.2564773560,41.0554046631,159.5911560059,0.0659682155,-0.0163526535,-0.0102292299,
240.753,-3.3384263515,1.3987081051,26.4519271851,0.0634721369,0.0435678177,0.0044372082,-116.0704498291,74.1655044556,45.4033241272,0.0289484262,0.0550745577,0.0100036263,15.5016784668,83.1896286011,-169.6900024414,0.0246823430,0.0264194682,0.0197405815,43.2605781555,41.0562629700,159.6011047363,0.0645146370,-0.0110141635,-0.0155562758,
240.763,-3.3387982845,1.3981983662,26.4530143738,0.0639515221,0.0411328897,0.0049257278,-116.0738296509,74.1641616821,45.4073638916,0.0299186110,0.0589939505,0.0051450133,15.4866542816,83.1930618286,-169.6971282959,0.0266425610,0.0225592256,0.0158821940,43.2617034912,41.0576934814,159.6089935303,0.0679514408,-0.0183379650,-0.0091865659,
240.773,-3.3391139507,1.3971213102,26.4547080994,0.0663741380,0.0411384217,0.0127379894,-116.0829772949,74.1629028320,45.4045257568,0.0289360285,0.0555756688,0.0056819916,15.4653882980,83.1936874390,-169.7102813721,0.0227376223,0.0186989456,0.0261348486,43.2614097595,41.0560569763,159.6140441895,0.0674417019,-0.0120003223,-0.0052965283,
240.783,-3.3390185833,1.3944205046,26.4571666718,0.0633973256,0.0426016748,0.0073658228,-116.0904617310,74.1649627686,45.4012603760,0.0299224257,0.0618767142,0.0125349760,15.4434509277,83.1910095215,-169.7241516113,0.0271266103,0.0211725459,0.0280314088,43.2645912170,41.0552749634,159.6221771240,0.0679196715,-0.0130134821,-0.0077158213,
240.793,-3.3389186859,1.3952895403,26.4588699341,0.0595062412,0.0425999053,0.0122488737,-116.0824050903,74.1629028320,45.4141540527,0.0308891535,0.0511825085,0.0159334540,15.4447898865,83.1904373169,-169.7150573730,0.0281019807,0.0304446146,0.0226517916,43.2669372559,41.0558853149,159.6303558350,0.0625566244,-0.0135194659,-0.0145254135,
240.803,-3.3392052650,1.3948099613,26.4594345093,0.0594978705,0.0435814708,0.0063896179,-116.0820236206,74.1636352539,45.4205932617,0.0362637639,0.0614258796,0.0173911452,15.4354496002,83.1898880005,-169.7151031494,0.0251711607,0.0206952840,0.0241019726,43.2653579712,41.0565376282,159.6363220215,0.0630534887,-0.0169171095,-0.0062335134,
240.813,-3.3364226818,1.3965929747,26.4617252350,0.0605055466,0.0498806201,0.0058992505,-116.0893707275,74.1632919312,45.4200515747,0.0264964700,0.0589747429,0.0022886395,15.4365797043,83.1860275269,-169.7065582275,0.0236983299,0.0250700191,0.0298984051,43.2633934021,41.0537719727,159.6416320801,0.0708295703,-0.0130138397,0.0015381575,
240.823,-3.3332767487,1.3977639675,26.4634971619,0.0561314449,0.0468961000,0.0068731308,-116.0880737305,74.1622619629,45.4279289246,0.0269798636,0.0536212474,0.0149858594,15.4307031631,83.1852264404,-169.7032165527,0.0173490047,0.0226370022,0.0191403031,43.2616233826,41.0540504456,159.6481018066,0.0683917999,-0.0154359937,-0.0014048815,
240.833,-3.3334856033,1.3993989229,26.4657287598,0.0629959106,0.0459231399,0.0015028119,-116.0884399414,74.1616210938,45.4330368042,0.0289299488,0.0604658723,0.0154804587,15.4299650192,83.1874618530,-169.6960754395,0.0188184977,0.0255784392,0.0191771388,43.2623863220,41.0534248352,159.6544342041,0.0674070120,-0.0086123943,-0.0028687119,
240.843,-3.3341507912,1.4004073143,26.4655857086,0.0605720989,0.0444698595,0.0058984160,-116.1002731323,74.1619110107,45.4264526367,0.0240485072,0.0628788769,0.0062518120,15.4320774078,83.1841354370,-169.6846466064,0.0246709585,0.0236058310,0.0298654437,43.2633094788,41.0518569946,159.6613464355,0.0678746700,-0.0105866194,-0.0077553391,
240.853,-3.3325173855,1.4001629353,26.4691905975,0.0615443960,0.0478593819,0.0093147159,-116.1107406616,74.1599655151,45.4204559326,0.0264806151,0.0565374941,0.0038697124,15.4314794540,83.1849060059,-169.6760406494,0.0305319428,0.0226339623,0.0201120377,43.2634658813,41.0534286499,159.6680603027,0.0654539466,-0.0105758905,-0.0072535276,
240.863,-3.3350603580,1.4001210928,26.4690551758,0.0620319471,0.0400911793,0.0039462447,-116.1128005981,74.1606292725,45.4239311218,0.0284368992,0.0584782362,0.0072915554,15.4411993027,83.1835479736,-169.6576232910,0.0227166414,0.0226080902,0.0249778628,43.2637863159,41.0539550781,159.6742858887,0.0679022670,-0.0105746388,-0.0106632710,
240.873,-3.3351798058,1.3969913721,26.4709129333,0.0649070293,0.0439995863,0.0107808709,-116.1104888916,74.1583557129,45.4324607849,0.0274495482,0.0560743660,0.0116929412,15.4343004227,83.1834106445,-169.6559295654,0.0246694684,0.0231097713,0.0225306153,43.2654304504,41.0559272766,159.6816253662,0.0645102859,-0.0159461498,-0.0160038471,
240.883,-3.3346719742,1.3969955444,26.4695968628,0.0619774126,0.0464321412,0.0137100816,-116.1160125732,74.1558074951,45.4327545166,0.0289022326,0.0565894842,0.0063644648,15.4477100372,83.1825180054,-169.6339416504,0.0256441832,0.0255200826,0.0225238800,43.2659530640,41.0550727844,159.6900939941,0.0698701143,-0.0071687698,-0.0067285895,
240.893,-3.3340852261,1.3967988491,26.4701709747,0.0585560128,0.0444688052,0.0078499913,-116.1237106323,74.1561584473,45.4319953918,0.0323218703,0.0624272227,0.0103012323,15.4245996475,83.1842727661,-169.6483764648,0.0241829753,0.0192270875,0.0225393176,43.2661705017,41.0543785095,159.6976013184,0.0683961511,-0.0091294050,-0.0067324638,
240.903,-3.3317565918,1.3965804577,26.4719581604,0.0609936118,0.0483344942,0.0068706274,-116.1321945190,74.1554870605,45.4293937683,0.0259710550,0.0609543324,0.0064361691,15.4334964752,83.1850204468,-169.6303405762,0.0251610875,0.0245837085,0.0176743865,43.2680511475,41.0519142151,159.7045135498,0.0664106011,-0.0062370896,-0.0091775060,
240.913,-3.3313057423,1.3990037441,26.4729862213,0.0581062064,0.0439320579,0.0088250637,-116.1382751465,74.1559371948,45.4285736084,0.0332973599,0.0648420304,0.0103653669,15.4465999603,83.1827545166,-169.6081695557,0.0275977850,0.0289408788,0.0230133533,43.2688789368,41.0490112305,159.7126770020,0.0712551475,-0.0048030019,0.0005716085,
240.923,-3.3304014206,1.3986678123,26.4735584259,0.0590769053,0.0434280187,0.0088234544,-116.1502838135,74.1549148560,45.4207878113,0.0274331570,0.0604361445,-0.0003178120,15.4338874817,83.1819458008,-169.6117553711,0.0280843973,0.0255453028,0.0225059390,43.2700729370,41.0465126038,159.7200622559,0.0721988678,-0.0062988997,-0.0028564930,
240.933,-3.3322653770,1.4004306793,26.4745578766,0.0605725050,0.0400424860,0.0132213235,-116.1454086304,74.1562805176,45.4294891357,0.0215802789,0.0570100099,0.0162526369,15.4198579788,83.1786346436,-169.6165161133,0.0300306678,0.0231172740,0.0307441950,43.2705421448,41.0470123291,159.7263031006,0.0663460493,-0.0121588707,-0.0091956258,
240.943,-3.3330781460,1.4016484022,26.4756145477,0.0601054728,0.0395683311,0.0063857436,-116.1407928467,74.1564483643,45.4391632080,0.0337880850,0.0579927266,0.0128138661,15.4248437881,83.1792678833,-169.6041870117,0.0246608853,0.0245748684,0.0209918022,43.2681121826,41.0483894348,159.7293395996,0.0634344816,-0.0155426860,-0.0077413321,
240.953,-3.3337697983,1.4012907743,26.4779548645,0.0615640767,0.0420217887,0.0058988333,-116.1443939209,74.1546859741,45.4392547607,0.0293851495,0.0550817549,0.0011235476,15.4287252426,83.1773681641,-169.5911407471,0.0275866389,0.0269997567,0.0287750363,43.2682342529,41.0503921509,159.7360992432,0.0590662956,-0.0130868554,-0.0096772909,
240.963,-3.3320143223,1.4007461071,26.4797306061,0.0600897297,0.0419912301,0.0098025203,-116.1401901245,74.1589431763,45.4471321106,0.0298937559,0.0682099164,0.0210935473,15.4399337769,83.1780853271,-169.5725860596,0.0295412540,0.0245390609,0.0170751810,43.2675094604,41.0489730835,159.7405090332,0.0702781677,-0.0106494427,-0.0038353205,
240.973,-3.3296902180,1.4028495550,26.4814414978,0.0571967438,0.0482983440,0.0083365440,-116.1330032349,74.1610107422,45.4594535828,0.0333215594,0.0623351932,0.0176295042,15.4354715347,83.1746749878,-169.5690612793,0.0275810361,0.0245326161,0.0262939930,43.2711296082,41.0492248535,159.7495574951,0.0668634772,-0.0131237507,-0.0067309737,
240.983,-3.3278970718,1.4013974667,26.4819526672,0.0674253106,0.0443608984,0.0122399330,-116.1416931152,74.1606292725,45.4553833008,0.0289251804,0.0608578622,0.0059509873,15.4414939880,83.1738357544,-169.5550842285,0.0236730576,0.0245165229,0.0194473267,43.2715225220,41.0490989685,159.7564392090,0.0658853054,-0.0141049623,-0.0081929564,
240.993,-3.3277559280,1.4021102190,26.4817543030,0.0640197843,0.0428935811,0.0132173300,-116.1425094604,74.1578903198,45.4600906372,0.0269590020,0.0560137331,0.0118340254,15.4436540604,83.1724853516,-169.5449218750,0.0226936936,0.0235293657,0.0238205194,43.2721786499,41.0478706360,159.7619323730,0.0692870617,-0.0136327744,-0.0033150315,
241.003,-3.3288531303,1.4023492336,26.4842090607,0.0552348867,0.0448658094,0.0068700910,-116.1489868164,74.1552429199,45.4612350464,0.0254815817,0.0531106293,0.0065100789,15.4303817749,83.1691818237,-169.5494232178,0.0285462141,0.0211002752,0.0305962563,43.2726707458,41.0468521118,159.7691192627,0.0668322444,-0.0170632601,-0.0067360401,
241.013,-3.3303670883,1.4040586948,26.4846439362,0.0581944026,0.0414741673,0.0044317842,-116.1508712769,74.1565246582,45.4642906189,0.0196282864,0.0569932759,0.0113916397,15.4231586456,83.1702423096,-169.5469512939,0.0270835757,0.0264905766,0.0247491002,43.2742729187,41.0442428589,159.7767639160,0.0736337900,-0.0063571334,-0.0043029785,
241.023,-3.3302719593,1.4035524130,26.4858360291,0.0596504100,0.0448905043,0.0044309497,-116.1584701538,74.1562194824,45.4631652832,0.0289041996,0.0618653297,0.0084968805,15.4176092148,83.1699829102,-169.5419311523,0.0290361643,0.0201529413,0.0262063146,43.2730979919,41.0482254028,159.7807769775,0.0609909892,-0.0199862719,-0.0086739063,
241.033,-3.3285202980,1.4028296471,26.4864082336,0.0601260848,0.0443717241,0.0000344515,-116.1628112793,74.1569137573,45.4663124084,0.0230481625,0.0579392016,0.0109517574,15.4200220108,83.1694641113,-169.5302429199,0.0246405602,0.0211223625,0.0183870792,43.2717056274,41.0473403931,159.7866973877,0.0697683692,-0.0170503855,0.0000941753,
241.043,-3.3298392296,1.4003720284,26.4888629913,0.0625246093,0.0419533439,0.0068708062,-116.1730270386,74.1569137573,45.4647407532,0.0279309750,0.0608472973,0.0022066236,15.4184389114,83.1703033447,-169.5220031738,0.0280602574,0.0225941017,0.0203526020,43.2727546692,41.0474128723,159.7944030762,0.0717224479,-0.0175479650,-0.0164964199,
241.053,-3.3324029446,1.4003065825,26.4888172150,0.0581289344,0.0419980027,0.0127323866,-116.1810455322,74.1539154053,45.4633979797,0.0411002636,0.0584340394,0.0037279725,15.4217720032,83.1713409424,-169.5113372803,0.0270858407,0.0255217776,0.0257428288,43.2734184265,41.0473175049,159.8002166748,0.0634203553,-0.0116959214,0.0001094937,
241.063,-3.3317008018,1.3980081081,26.4894542694,0.0615068004,0.0449155159,0.0044305325,-116.1924514771,74.1529388428,45.4574165344,0.0274237394,0.0637954772,0.0032960176,15.4298114777,83.1736068726,-169.4941406250,0.0300202370,0.0225862935,0.0121136308,43.2723999023,41.0460700989,159.8055725098,0.0673102140,-0.0092543960,-0.0043038130,
241.073,-3.3306121826,1.3984600306,26.4899520874,0.0605381206,0.0419668630,0.0068701506,-116.2062225342,74.1531219482,45.4490585327,0.0284011364,0.0579050183,0.0009123683,15.4203615189,83.1729736328,-169.4973144531,0.0309954882,0.0191845894,0.0238165259,43.2729415894,41.0473594666,159.8117218018,0.0619560480,-0.0146206617,-0.0047771335,
241.083,-3.3284218311,1.3995168209,26.4910411835,0.0610448420,0.0477880612,0.0171229839,-116.1994476318,74.1506042480,45.4586257935,0.0322954059,0.0599098057,0.0126205683,15.4179973602,83.1730575562,-169.4922637939,0.0251362920,0.0221194960,0.0213752985,43.2753601074,41.0500717163,159.8184051514,0.0658980608,-0.0121808648,-0.0120558739,
241.093,-3.3296430111,1.4009506702,26.4921436310,0.0571636111,0.0424381979,0.0049173236,-116.2028198242,74.1514663696,45.4575691223,0.0337643623,0.0623310357,0.0067692995,15.4253644943,83.1742095947,-169.4768524170,0.0256269574,0.0211329833,0.0189561248,43.2756271362,41.0472831726,159.8245391846,0.0707441568,-0.0107406974,-0.0067067146,
241.103,-3.3280220032,1.3998646736,26.4940147400,0.0576329455,0.0458279587,0.0078452229,-116.2130966187,74.1499786377,45.4521293640,0.0264330506,0.0637971163,0.0048711896,15.4252080917,83.1732330322,-169.4677276611,0.0251366496,0.0225938298,0.0243116021,43.2777175903,41.0497055054,159.8316802979,0.0644283891,-0.0117181540,-0.0076431632,
241.113,-3.3287570477,1.4028494358,26.4951057434,0.0518256463,0.0419344455,0.0078472495,-116.2039718628,74.1463623047,45.4644584656,0.0303220749,0.0550805926,0.0131596327,15.4280118942,83.1719970703,-169.4550933838,0.0285520554,0.0240474828,0.0242932439,43.2772560120,41.0490036011,159.8368682861,0.0683254004,-0.0058600307,0.0030879378,
241.123,-3.3283047676,1.4023078680,26.4956645966,0.0596286990,0.0419265702,0.0039402843,-116.2045669556,74.1444015503,45.4697532654,0.0268947482,0.0619464815,0.0131766200,15.4248342514,83.1707611084,-169.4508972168,0.0236666799,0.0230716951,0.0218294263,43.2779464722,41.0485610962,159.8424377441,0.0707609653,-0.0112410784,-0.0047209859,
241.133,-3.3270928860,1.4016509056,26.4969158173,0.0581523925,0.0487414189,0.0078451037,-116.2179565430,74.1388931274,45.4652175903,0.0302864313,0.0605348051,0.0044858456,15.4554157257,83.1666564941,-169.4103088379,0.0221933126,0.0234792382,0.0251972079,43.2747306824,41.0482940674,159.8470458984,0.0692926049,-0.0131656528,-0.0013351440,
241.143,-3.3267409801,1.4015990496,26.4973888397,0.0644991398,0.0458055995,0.0083329082,-116.2340621948,74.1318740845,45.4603004456,0.0312294960,0.0581646860,0.0060717463,15.4625654221,83.1641311646,-169.3919830322,0.0324419737,0.0210117586,0.0232062936,43.2756729126,41.0487976074,159.8539886475,0.0683226585,-0.0087760687,-0.0096227527,
241.153,-3.3266775608,1.4005569220,26.5003776550,0.0639926791,0.0467810892,0.0034497976,-116.2556838989,74.1216201782,45.4503631592,0.0282508731,0.0538786948,0.0028226972,15.4625396729,83.1653060913,-169.3814086914,0.0270733237,0.0190640464,0.0232257247,43.2748374939,41.0507850647,159.8601531982,0.0659074187,-0.0141234994,-0.0110785961,
241.163,-3.3280019760,1.3986477852,26.5021572113,0.0649359226,0.0419213921,0.0112627149,-116.2736511230,74.1081848145,45.4424629211,0.0267218351,0.0472063571,0.0059289932,15.4803476334,83.1636428833,-169.3538208008,0.0265815854,0.0263445564,0.0222319961,43.2737541199,41.0513038635,159.8668518066,0.0615196824,-0.0131325126,-0.0062011480,
241.173,-3.3259706497,1.4003459215,26.5037918091,0.0630124360,0.0472570583,0.0112612844,-116.2955245972,74.0938644409,45.4243545532,0.0232353806,0.0459100455,0.0017349124,15.4827756882,83.1650466919,-169.3433074951,0.0236548185,0.0190217420,0.0188381076,43.2758407593,41.0491333008,159.8759613037,0.0712568164,-0.0082868338,-0.0110837221,
241.183,-3.3267507553,1.4001460075,26.5037021637,0.0605675392,0.0418995582,0.0073557496,-116.3057556152,74.0835037231,45.4103927612,0.0270920992,0.0509263426,0.0096681714,15.4559917450,83.1671142578,-169.3620605469,0.0275653601,0.0190855116,0.0193452835,43.2786865234,41.0495033264,159.8822479248,0.0663788319,-0.0117290616,-0.0120310187,
241.193,-3.3273749352,1.4011491537,26.5048141479,0.0566787943,0.0380041525,0.0097978115,-116.3020935059,74.0762557983,45.4069862366,0.0334050059,0.0593439192,0.0155655742,15.4681882858,83.1689529419,-169.3443603516,0.0265926123,0.0234634615,0.0184050798,43.2778282166,41.0474166870,159.8863067627,0.0673279762,-0.0132021308,-0.0071732998,
241.203,-3.3268918991,1.4023176432,26.5077419281,0.0586523078,0.0438550860,0.0107751489,-116.2920379639,74.0718154907,45.4073066711,0.0343603492,0.0604082048,0.0126253963,15.4744157791,83.1684341431,-169.3314514160,0.0314743519,0.0254017338,0.0193770528,43.2741279602,41.0480117798,159.8887634277,0.0653825998,-0.0190215111,-0.0018314719,
241.213,-3.3285107613,1.4034913778,26.5087738037,0.0625790358,0.0409535691,0.0112646818,-116.2686233521,74.0716247559,45.4227027893,0.0289883614,0.0638788939,0.0164320469,15.4886770248,83.1658782959,-169.3110809326,0.0270745158,0.0263375789,0.0217840672,43.2725372314,41.0502967834,159.8915252686,0.0678541660,-0.0170349479,-0.0081734657,
241.223,-3.3293139935,1.4046448469,26.5086364746,0.0577163510,0.0419440977,-0.0004519224,-116.2562713623,74.0735855103,45.4312858582,0.0299742818,0.0672934204,0.0056222081,15.5194559097,83.1644439697,-169.2740173340,0.0304895043,0.0233390778,0.0217790604,43.2714920044,41.0524673462,159.8970947266,0.0727655292,-0.0126134753,-0.0067008734,
241.233,-3.3283724785,1.4059457779,26.5109329224,0.0601804554,0.0433925092,0.0098010898,-116.2411651611,74.0780563354,45.4463233948,0.0319488049,0.0662818402,0.0172426701,15.5302352905,83.1621551514,-169.2562713623,0.0251136422,0.0189119205,0.0236994028,43.2731437683,41.0513992310,159.9026489258,0.0722631812,-0.0072664618,-0.0066938400,
241.243,-3.3299412727,1.4077726603,26.5107841492,0.0577709228,0.0434197932,0.0078504682,-116.2516021729,74.0845336914,45.4400100708,0.0251438618,0.0632330030,0.0055209994,15.5342435837,83.1632995605,-169.2455444336,0.0270691514,0.0233035311,0.0149315000,43.2716178894,41.0531044006,159.9086608887,0.0698442459,-0.0135862827,-0.0066944361,
241.253,-3.3279001713,1.4092352390,26.5118427277,0.0617026910,0.0472904518,0.0151733756,-116.2592544556,74.0932083130,45.4413490295,0.0261619687,0.0669926107,0.0113490820,15.5528964996,83.1607742310,-169.2171020508,0.0314584374,0.0271604247,0.0241782069,43.2688522339,41.0525207520,159.9128417969,0.0713014007,-0.0150290728,-0.0042818785,
241.263,-3.3270375729,1.4064153433,26.5148677826,0.0680011511,0.0453223735,0.0019873381,-116.2848281860,74.1020736694,45.4254302979,0.0286457539,0.0668052733,0.0099286437,15.5503559113,83.1592864990,-169.2110137939,0.0280373693,0.0237410814,0.0236652493,43.2702827454,41.0532722473,159.9213256836,0.0654518604,-0.0121073723,-0.0057286024,
241.273,-3.3239538670,1.4060544968,26.5160579681,0.0592057854,0.0467335097,0.0063791871,-116.3022537231,74.1099395752,45.4208526611,0.0242888331,0.0622558743,0.0197110176,15.5549898148,83.1560440063,-169.1960754395,0.0270540714,0.0290876254,0.0289842486,43.2729835510,41.0558395386,159.9306640625,0.0620677471,-0.0135776997,-0.0120294690,
241.283,-3.3256208897,1.4060541391,26.5172481537,0.0582292154,0.0428562947,0.0151689649,-116.3439865112,74.1164245605,45.3941917419,0.0257846713,0.0591405928,0.0095884800,15.5643129349,83.1553268433,-169.1770324707,0.0226580501,0.0285773054,0.0226310492,43.2730636597,41.0541114807,159.9373779297,0.0674160123,-0.0067563653,-0.0027667284,
241.293,-3.3266422749,1.4042971134,26.5185070038,0.0577102825,0.0409210101,0.0078456402,-116.3861007690,74.1210021973,45.3645858765,0.0336190462,0.0540996492,0.0072939396,15.5645303726,83.1579666138,-169.1650543213,0.0260815024,0.0183350742,0.0163270235,43.2706794739,41.0538063049,159.9421691895,0.0688769221,-0.0155247450,-0.0047429800,
241.303,-3.3279464245,1.4021594524,26.5209598541,0.0615792312,0.0419203378,0.0117524266,-116.4447708130,74.1273727417,45.3187675476,0.0375556946,0.0568084717,-0.0051968694,15.5684385300,83.1557312012,-169.1506347656,0.0270534158,0.0236879289,0.0255696177,43.2691688538,41.0506362915,159.9474945068,0.0732297301,-0.0072345138,0.0010756850,
241.313,-3.3267896175,1.4008396864,26.5216064453,0.0581382364,0.0443416238,0.0058913231,-116.4779586792,74.1368408203,45.2955245972,0.0288118124,0.0590374917,0.0153825879,15.5813541412,83.1542663574,-169.1254730225,0.0285152197,0.0251197256,0.0216462016,43.2698326111,41.0521583557,159.9549713135,0.0683668852,-0.0140647888,-0.0150188208,
241.323,-3.3273882866,1.3998173475,26.5239200592,0.0659328997,0.0423989594,0.0034501553,-116.5005874634,74.1406707764,45.2836380005,0.0259003639,0.0511195958,0.0139862895,15.5848464966,83.1526641846,-169.1114349365,0.0275353193,0.0187574774,0.0172266364,43.2706680298,41.0541419983,159.9617614746,0.0644867420,-0.0111275911,-0.0081588626,
241.333,-3.3275115490,1.3967790604,26.5257663727,0.0644150376,0.0419128872,0.0063785911,-116.5245208740,74.1392898560,45.2720413208,0.0249172449,0.0496243536,0.0082397461,15.5928564072,83.1520614624,-169.0908966064,0.0294871926,0.0202037916,0.0250362754,43.2717514038,41.0559082031,159.9694213867,0.0693928599,-0.0121005774,-0.0110635757,
241.343,-3.3311815262,1.3952615261,26.5275135040,0.0634119958,0.0380706042,0.0073581338,-116.5439453125,74.1394348145,45.2677001953,0.0317538381,0.0569045842,0.0112515688,15.6046552658,83.1495742798,-169.0698547363,0.0270406008,0.0226088539,0.0284157395,43.2677574158,41.0569152832,159.9712677002,0.0698944330,-0.0227966905,-0.0027909875,
241.353,-3.3325405121,1.3957179785,26.5286064148,0.0604902804,0.0420005172,0.0024769306,-116.5691680908,74.1318969727,45.2591323853,0.0278116465,0.0511045456,0.0016503930,15.6161146164,83.1469650269,-169.0503082275,0.0241054893,0.0240387917,0.0220336914,43.2656402588,41.0595283508,159.9759368896,0.0655342340,-0.0139666200,-0.0091351271,
241.363,-3.3309094906,1.3948321342,26.5297641754,0.0634045079,0.0458783805,0.0122404099,-116.5951461792,74.1205902100,45.2469406128,0.0272693634,0.0473121852,0.0033112168,15.6263418198,83.1453933716,-169.0320434570,0.0250787735,0.0225461945,0.0166439414,43.2667579651,41.0606765747,159.9836883545,0.0626196265,-0.0037146211,-0.0056985021,
241.373,-3.3316500187,1.3959879875,26.5313968658,0.0604949892,0.0375904776,0.0078473091,-116.6069488525,74.1095123291,45.2447280884,0.0301461220,0.0508699715,0.0083276629,15.6362352371,83.1445617676,-169.0139465332,0.0260536075,0.0176393613,0.0185887814,43.2630004883,41.0631484985,159.9868927002,0.0592342019,-0.0153777599,-0.0022929907,
241.383,-3.3323040009,1.3993577957,26.5311279297,0.0590889417,0.0400431827,0.0166380405,-116.6156234741,74.0962066650,45.2421035767,0.0325239897,0.0530039519,0.0089527965,15.6363763809,83.1442413330,-169.0074768066,0.0275177956,0.0166608915,0.0180946589,43.2611579895,41.0659675598,159.9915924072,0.0617126822,-0.0143615603,-0.0032632351,
241.393,-3.3346109390,1.3998976946,26.5316085815,0.0600749254,0.0430130474,0.0024810433,-116.6370849609,74.0825729370,45.2226448059,0.0280641913,0.0541378260,0.0042644739,15.6582336426,83.1431274414,-168.9800415039,0.0226326585,0.0239354894,0.0210184455,43.2578811646,41.0670013428,159.9944610596,0.0646560192,-0.0157867074,-0.0071899295,
241.403,-3.3339431286,1.4009761810,26.5326251984,0.0625351518,0.0405599810,0.0010154843,-116.6550369263,74.0732498169,45.2049560547,0.0299726725,0.0605862439,0.0083178282,15.6705741882,83.1410140991,-168.9621276855,0.0260462165,0.0229240097,0.0185492635,43.2564201355,41.0707244873,159.9979553223,0.0632401705,-0.0191614628,-0.0081487894,
241.413,-3.3332743645,1.4010254145,26.5337543488,0.0600946024,0.0425014496,0.0117571950,-116.6596908569,74.0663681030,45.1982421875,0.0235920548,0.0577502102,0.0205965042,15.6926183701,83.1413574219,-168.9328002930,0.0275117755,0.0272752643,0.0195441842,43.2561531067,41.0745201111,160.0047454834,0.0545009971,-0.0122931600,-0.0061663389,
241.423,-3.3337137699,1.4024709463,26.5354671478,0.0552370138,0.0386028141,0.0093170404,-116.6505966187,74.0610580444,45.2002296448,0.0260080099,0.0554069132,0.0245035291,15.7070283890,83.1384963989,-168.9127655029,0.0304355025,0.0262563489,0.0282955766,43.2560653687,41.0774002075,160.0098724365,0.0594217777,-0.0147111416,-0.0090727806,
241.433,-3.3335008621,1.4020626545,26.5371818542,0.0640189499,0.0429936498,0.0127344728,-116.6427841187,74.0545425415,45.1986656189,0.0274416208,0.0555213690,0.0132883191,15.7218379974,83.1371536255,-168.8924560547,0.0270147324,0.0252434239,0.0219342113,43.2555885315,41.0792198181,160.0136260986,0.0711644292,-0.0215282440,-0.0119917393,
241.443,-3.3339312077,1.4003767967,26.5383377075,0.0635012537,0.0410480648,-0.0024026036,-116.6225814819,74.0519943237,45.2107238770,0.0284059644,0.0599975437,0.0141971111,15.7315044403,83.1361846924,-168.8773498535,0.0260361433,0.0271719135,0.0238750577,43.2545013428,41.0814666748,160.0189208984,0.0648463368,-0.0166172981,-0.0119823813,
241.453,-3.3347306252,1.3997021914,26.5406684875,0.0625129193,0.0395971611,0.0015041828,-116.5875778198,74.0491943359,45.2436294556,0.0293691158,0.0610914230,0.0189500451,15.7177944183,83.1349029541,-168.8836822510,0.0279865861,0.0227995291,0.0223819613,43.2504005432,41.0832595825,160.0222930908,0.0653582215,-0.0175404549,-0.0056567192,
241.463,-3.3351936340,1.3987487555,26.5412254333,0.0610314421,0.0430232137,0.0029692650,-116.5844116211,74.0501708984,45.2541275024,0.0279089212,0.0713374317,0.0076987743,15.6969232559,83.1334075928,-168.8965148926,0.0284717679,0.0203938112,0.0238103867,43.2498092651,41.0849533081,160.0287322998,0.0653804541,-0.0150802135,-0.0163906813,
241.473,-3.3362224102,1.3971229792,26.5424594879,0.0590499490,0.0410880558,-0.0024019480,-116.5813522339,74.0550842285,45.2692680359,0.0240262747,0.0722469985,0.0130197406,15.6968393326,83.1348114014,-168.8891754150,0.0231035948,0.0218656436,0.0189520717,43.2523880005,41.0837898254,160.0370178223,0.0697597265,-0.0097427964,-0.0114934444,
241.483,-3.3349497318,1.3993529081,26.5429744720,0.0542060435,0.0469252057,0.0029691458,-116.5768432617,74.0574340820,45.2903289795,0.0298969150,0.0629445612,0.0168890953,15.6967048645,83.1343002319,-168.8778228760,0.0294501781,0.0291876644,0.0262673497,43.2524452209,41.0828857422,160.0423278809,0.0673063993,-0.0073091388,-0.0051538348,
241.493,-3.3366224766,1.4005399942,26.5440406799,0.0581330098,0.0386535339,0.0083425045,-116.5839843750,74.0593261719,45.2983207703,0.0313708186,0.0570412427,0.0095813274,15.6831684113,83.1347579956,-168.8809661865,0.0221269131,0.0228696615,0.0194309354,43.2516021729,41.0851516724,160.0491027832,0.0561057925,-0.0146073699,-0.0051414967,
241.503,-3.3330554962,1.3988565207,26.5471267700,0.0624981672,0.0503101945,0.0181037784,-116.6082763672,74.0604476929,45.2869033813,0.0333293080,0.0569721162,0.0047946572,15.6599426270,83.1321563721,-168.8947906494,0.0274925828,0.0189987943,0.0340232849,43.2552146912,41.0849380493,160.0604858398,0.0722162127,-0.0126907229,-0.0158538818,
241.513,-3.3335058689,1.3977262974,26.5501041412,0.0644315705,0.0449469723,0.0068733096,-116.6421813965,74.0614547729,45.2631492615,0.0264981985,0.0520013869,-0.0004380345,15.6487169266,83.1305313110,-168.8960723877,0.0260243416,0.0190140717,0.0212942958,43.2555847168,41.0865783691,160.0686798096,0.0654017925,-0.0160992146,-0.0085119009,
241.523,-3.3350231647,1.3986245394,26.5499897003,0.0590761490,0.0435085408,0.0137113333,-116.6806869507,74.0638427734,45.2318878174,0.0352987051,0.0611601770,0.0070338845,15.6528377533,83.1306152344,-168.8832397461,0.0235831141,0.0190061405,0.0164156556,43.2520637512,41.0857925415,160.0740814209,0.0707626343,-0.0165600181,0.0002381802,
241.533,-3.3355636597,1.3995281458,26.5504322052,0.0610450432,0.0405882411,0.0054110289,-116.7164382935,74.0672531128,45.1992263794,0.0304322243,0.0576140881,0.0110681057,15.6725015640,83.1280136108,-168.8554840088,0.0226011276,0.0233485661,0.0237082839,43.2496757507,41.0893630981,160.0781555176,0.0678799152,-0.0209034681,-0.0134244561,
241.543,-3.3359410763,1.4010795355,26.5521354675,0.0571658574,0.0430361815,0.0142017603,-116.7558059692,74.0690307617,45.1646766663,0.0358118415,0.0545727313,0.0097590685,15.7102193832,83.1265869141,-168.8083953857,0.0284575224,0.0213118680,0.0168704391,43.2496337891,41.0931892395,160.0818481445,0.0684185028,-0.0106192827,-0.0070462823,
241.553,-3.3363547325,1.4022547007,26.5526294708,0.0601160526,0.0474378876,0.0059012771,-116.7950973511,74.0700378418,45.1306037903,0.0289807320,0.0569142401,0.0060139298,15.7355527878,83.1228485107,-168.7754821777,0.0308911204,0.0217313543,0.0212191939,43.2481422424,41.0927124023,160.0854492188,0.0757364035,-0.0081671476,-0.0036448240,
241.563,-3.3360047340,1.4020879269,26.5537281036,0.0630428270,0.0435255468,0.0127369761,-116.8320083618,74.0700607300,45.1038093567,0.0319105387,0.0597638637,0.0110549927,15.7751970291,83.1213150024,-168.7296752930,0.0294230580,0.0250611454,0.0173097253,43.2459907532,41.0921707153,160.0896759033,0.0747527480,-0.0115689039,-0.0041581392,
241.573,-3.3371324539,1.4016546011,26.5536956787,0.0591290183,0.0450100489,0.0039489269,-116.8516921997,74.0690231323,45.0927276611,0.0250695944,0.0548532456,0.0199364424,15.7797374725,83.1160430908,-168.7168579102,0.0240409374,0.0196566135,0.0294340849,43.2418594360,41.0981216431,160.0929565430,0.0611591339,-0.0163652897,-0.0046330690,
241.583,-3.3351743221,1.4005520344,26.5555400848,0.0600863434,0.0469290912,0.0151768923,-116.8829193115,74.0656967163,45.0711021423,0.0196825862,0.0553242117,0.0108181834,15.8005695343,83.1125946045,-168.6867370605,0.0240337253,0.0230155848,0.0220635533,43.2406234741,41.1004867554,160.0965728760,0.0641199350,-0.0114520788,-0.0007186532,
241.593,-3.3348212242,1.4002757072,26.5572509766,0.0634994879,0.0435049832,0.0112703443,-116.9063415527,74.0628433228,45.0545158386,0.0191806555,0.0567807257,0.0094754100,15.8170747757,83.1114273071,-168.6633758545,0.0289140940,0.0219999850,0.0205894709,43.2399673462,41.1031227112,160.1024322510,0.0729436874,-0.0104484558,-0.0094913244,
241.603,-3.3348348141,1.3983570337,26.5590133667,0.0649308562,0.0400872901,0.0102929473,-116.9168090820,74.0566329956,45.0448417664,0.0196391344,0.0500141978,0.0081025362,15.8098859787,83.1119613647,-168.6636962891,0.0240324140,0.0195758343,0.0205944180,43.2385063171,41.1038627625,160.1071014404,0.0592815876,-0.0114051700,-0.0026623607,
241.613,-3.3343648911,1.3978469372,26.5601539612,0.0619922690,0.0439853743,0.0098040104,-116.8907470703,74.0513076782,45.0641517639,0.0249847174,0.0477085561,0.0177965164,15.7785348892,83.1120223999,-168.6881713867,0.0250090957,0.0186636299,0.0269250274,43.2372245789,41.1042213440,160.1122283936,0.0607510805,-0.0162729621,-0.0070653558,
241.623,-3.3325834274,1.3992316723,26.5600528717,0.0571336187,0.0444425829,0.0063843727,-116.8534622192,74.0486145020,45.0882263184,0.0259483457,0.0517362058,0.0196099281,15.7820386887,83.1150970459,-168.6793060303,0.0211092830,0.0274598561,0.0201418996,43.2363395691,41.1034240723,160.1177825928,0.0617171526,-0.0148059726,0.0017084479,
241.633,-3.3331687450,1.4026507139,26.5616493225,0.0567049906,0.0424995720,0.0029686689,-116.7946853638,74.0511474609,45.1324462891,0.0210776925,0.0581737310,0.0188500285,15.7454566956,83.1138763428,-168.7098541260,0.0211067200,0.0260640495,0.0303543806,43.2390480042,41.0998191833,160.1254272461,0.0675291419,-0.0104655623,-0.0080618858,
241.643,-3.3353004456,1.4009822607,26.5627956390,0.0640000999,0.0391187780,0.0122475624,-116.7216415405,74.0555953979,45.1953468323,0.0230521560,0.0607071966,0.0209437609,15.7230720520,83.1172637939,-168.7276916504,0.0284380317,0.0285667889,0.0128186941,43.2347908020,41.0945205688,160.1265563965,0.0664828420,-0.0153493285,0.0040618181,
241.653,-3.3360576630,1.3992462158,26.5645217896,0.0644580871,0.0352257565,0.0146890879,-116.6382446289,74.0608825684,45.2730293274,0.0240540504,0.0637372881,0.0181040764,15.6910629272,83.1192016602,-168.7531738281,0.0303952098,0.0266881920,0.0221103430,43.2381553650,41.0879631042,160.1345520020,0.0746974349,-0.0081087351,-0.0042632222,
241.663,-3.3364846706,1.3973349333,26.5651168823,0.0624716170,0.0430457443,0.0093176365,-116.5376892090,74.0683441162,45.3722686768,0.0226249695,0.0653063208,0.0205453634,15.6623678207,83.1229934692,-168.7752838135,0.0284500122,0.0223695338,0.0162956715,43.2385749817,41.0860595703,160.1405334473,0.0644184351,-0.0154519677,-0.0135524869,
241.673,-3.3369317055,1.3981652260,26.5655460358,0.0615095384,0.0386589728,0.0112711191,-116.4287643433,74.0757369995,45.4842796326,0.0338908434,0.0600577891,0.0156266689,15.6416206360,83.1253051758,-168.7887268066,0.0284548402,0.0229110643,0.0197408795,43.2337837219,41.0829963684,160.1436004639,0.0726789236,-0.0168948770,-0.0058087707,
241.683,-3.3361599445,1.3968745470,26.5668239594,0.0580690540,0.0493877530,0.0029697418,-116.3132934570,74.0878524780,45.6029853821,0.0295543075,0.0669576526,0.0111332536,15.6168785095,83.1270141602,-168.8030700684,0.0294349790,0.0210162997,0.0197547674,43.2318572998,41.0812110901,160.1511535645,0.0741203427,-0.0129841566,-0.0048644543,
241.693,-3.3350365162,1.3964393139,26.5666694641,0.0678270832,0.0464385040,0.0073619485,-116.1936950684,74.1047134399,45.7251892090,0.0276818275,0.0630522668,0.0124465227,15.5850715637,83.1278686523,-168.8238220215,0.0226008296,0.0196202099,0.0221915841,43.2312431335,41.0806999207,160.1591796875,0.0628831387,-0.0066347122,-0.0004802346,
241.703,-3.3330657482,1.3937556744,26.5654983521,0.0624091662,0.0473808087,0.0024768710,-116.0543441772,74.1253890991,45.8650741577,0.0263157487,0.0591289997,0.0224363208,15.5754995346,83.1294403076,-168.8230133057,0.0226041079,0.0255065411,0.0256310105,43.2322998047,41.0800437927,160.1683197021,0.0672690272,-0.0100679398,-0.0102415085,
241.713,-3.3352949619,1.3939824104,26.5660533905,0.0570420288,0.0410719737,0.0068731308,-115.9387817383,74.1522140503,45.9825439453,0.0269320011,0.0667801499,0.0124647617,15.5520477295,83.1360702515,-168.8366394043,0.0235944986,0.0172835439,0.0174239874,43.2326622009,41.0789222717,160.1780242920,0.0594417453,-0.0095919967,-0.0029233694,
241.723,-3.3349657059,1.3931816816,26.5683441162,0.0658171177,0.0410662666,0.0200568438,-115.8301010132,74.1820220947,46.0990562439,0.0246325135,0.0719293207,0.0176387429,15.5186433792,83.1383285522,-168.8596649170,0.0231109262,0.0237097405,0.0281848907,43.2366409302,41.0752182007,160.1889038086,0.0681821108,-0.0077061057,-0.0073130131,
241.733,-3.3356225491,1.3926810026,26.5689315796,0.0575076044,0.0401011556,0.0088263154,-115.7430267334,74.2155075073,46.2008857727,0.0243033767,0.0750221759,0.0062786341,15.4528226852,83.1405258179,-168.9127349854,0.0206741095,0.0223890543,0.0301365852,43.2421073914,41.0712966919,160.2007293701,0.0681304932,-0.0107189417,-0.0121793747,
241.743,-3.3362443447,1.3922662735,26.5688781738,0.0589652136,0.0425533950,0.0010142922,-115.6609573364,74.2521057129,46.3069458008,0.0274066329,0.0687804520,0.0144497752,15.4006671906,83.1417541504,-168.9514923096,0.0328837037,0.0220127217,0.0276859999,43.2431106567,41.0665779114,160.2112121582,0.0656269789,-0.0093007684,-0.0034203529,
241.753,-3.3379735947,1.3937315941,26.5687332153,0.0589907765,0.0450248867,0.0063879490,-115.6040878296,74.2845077515,46.3924255371,0.0348841548,0.0659665763,0.0042060018,15.3478851318,83.1426162720,-168.9897766113,0.0255612731,0.0250539146,0.0257173181,43.2452468872,41.0627403259,160.2223052979,0.0631350875,-0.0117928386,-0.0029449463,
241.763,-3.3393990993,1.3941687346,26.5705070496,0.0565569960,0.0416317396,0.0068773627,-115.5486907959,74.3180618286,46.4771652222,0.0418785810,0.0650843978,0.0100740194,15.3065900803,83.1445922852,-169.0176544189,0.0275185108,0.0217293948,0.0203570127,43.2442665100,41.0580139160,160.2312316895,0.0708853602,-0.0118205547,-0.0039699078,
241.773,-3.3391640186,1.3929184675,26.5729217529,0.0604414344,0.0430925228,0.0068772435,-115.5061798096,74.3490219116,46.5446052551,0.0415362120,0.0578673482,-0.0000966787,15.2704715729,83.1454544067,-169.0390014648,0.0236140490,0.0193654858,0.0262101293,43.2439537048,41.0570755005,160.2421264648,0.0674550533,-0.0074303746,-0.0108165145,
241.783,-3.3378741741,1.3941000700,26.5752716064,0.0560675189,0.0425817445,0.0019935369,-115.4645080566,74.3836212158,46.6046180725,0.0373044014,0.0525451303,0.0068005919,15.2475156784,83.1434173584,-169.0483093262,0.0289809108,0.0159851350,0.0188393593,43.2458267212,41.0587310791,160.2520141602,0.0665003061,-0.0123181343,-0.0107857585,
241.793,-3.3393301964,1.3935556412,26.5764026642,0.0599642694,0.0372360237,0.0098068118,-115.4364852905,74.4191284180,46.6410713196,0.0320999622,0.0530415773,0.0064257979,15.2511405945,83.1433868408,-169.0324859619,0.0284925699,0.0242783800,0.0159111023,43.2441024780,41.0608139038,160.2575073242,0.0635980368,-0.0142384171,-0.0044363141,
241.803,-3.3382108212,1.3934571743,26.5769634247,0.0584977083,0.0440524705,0.0166423321,-115.4327621460,74.4547805786,46.6471443176,0.0361731648,0.0476268083,-0.0036123991,15.2603702545,83.1428680420,-169.0122528076,0.0221438408,0.0247455463,0.0178610682,43.2398643494,41.0598983765,160.2633209229,0.0674922466,-0.0122518539,-0.0005760193,
241.813,-3.3390076160,1.3925459385,26.5781364441,0.0614114925,0.0416249558,0.0142003298,-115.4392318726,74.4932708740,46.6435165405,0.0256108046,0.0621681809,-0.0004439950,15.2621936798,83.1439666748,-169.0001373291,0.0250757933,0.0262114815,0.0173914433,43.2434005737,41.0600051880,160.2736663818,0.0679818988,-0.0069137812,-0.0137266517,
241.823,-3.3363640308,1.3901321888,26.5781784058,0.0618576631,0.0474383496,0.0063848495,-115.4381713867,74.5301437378,46.6486816406,0.0267592072,0.0581934750,0.0090516210,15.2582731247,83.1450195313,-168.9931793213,0.0231248736,0.0242710151,0.0120351911,43.2432823181,41.0601043701,160.2816162109,0.0626120567,-0.0088649988,-0.0024964809,
241.833,-3.3386802673,1.3896172047,26.5793304443,0.0598955490,0.0406427756,0.0107814670,-115.4472503662,74.5605545044,46.6476211548,0.0327600241,0.0499044061,0.0010583997,15.2610988617,83.1485137939,-168.9787902832,0.0275266767,0.0247694626,0.0150250793,43.2441902161,41.0605239868,160.2895355225,0.0621293783,-0.0098469257,-0.0063909888,
241.843,-3.3377761841,1.3901163340,26.5798721313,0.0584394149,0.0455098301,0.0132221580,-115.4393844604,74.5845870972,46.6658592224,0.0333598852,0.0505315661,0.0081763864,15.2258567810,83.1520385742,-169.0036163330,0.0275340080,0.0175326690,0.0175037980,43.2384033203,41.0601387024,160.2948913574,0.0660305023,-0.0171188116,0.0062482953,
241.853,-3.3388595581,1.3912596703,26.5791072845,0.0599242076,0.0430872589,0.0044345856,-115.4311752319,74.5992507935,46.6846733093,0.0295216441,0.0434901416,0.0026652217,15.1937685013,83.1526031494,-169.0246887207,0.0280234814,0.0215071291,0.0199380517,43.2350959778,41.0560913086,160.3011016846,0.0737897754,-0.0146772265,0.0042327046,
241.863,-3.3402431011,1.3912721872,26.5807704926,0.0648072436,0.0416465141,0.0156663656,-115.4122848511,74.6056747437,46.7118034363,0.0363873243,0.0395236015,0.0025395751,15.1540679932,83.1540374756,-169.0540008545,0.0280264616,0.0196411945,0.0204274058,43.2371292114,41.0565719604,160.3085937500,0.0615890622,-0.0171345472,-0.0113709569,
241.873,-3.3402500153,1.3907749653,26.5812644958,0.0638220012,0.0445763394,0.0059006214,-115.4054107666,74.6029052734,46.7263603210,0.0373510718,0.0434855819,-0.0023522377,15.1203117371,83.1546401978,-169.0771636963,0.0294925570,0.0143417194,0.0199308991,43.2346992493,41.0545921326,160.3137054443,0.0654692650,-0.0151734948,-0.0026192665,
241.883,-3.3379273415,1.3884446621,26.5800552368,0.0632930622,0.0464890637,0.0019909143,-115.4034729004,74.5932312012,46.7332038879,0.0387710333,0.0485192239,-0.0081501007,15.1096944809,83.1566772461,-169.0786895752,0.0251022577,0.0241378322,0.0180045962,43.2326774597,41.0538177490,160.3187408447,0.0693653226,-0.0166252255,-0.0070397258,
241.893,-3.3388493061,1.3897215128,26.5810890198,0.0598973706,0.0391808711,0.0063871145,-115.3876266479,74.5826110840,46.7518920898,0.0309092999,0.0540826619,0.0035782456,15.1029186249,83.1543502808,-169.0767517090,0.0285153985,0.0207234323,0.0247989297,43.2327995300,41.0525398254,160.3249969482,0.0698367953,-0.0117534399,-0.0026535988,
241.903,-3.3370358944,1.3888397217,26.5822715759,0.0608585477,0.0445203967,0.0015016794,-115.3843154907,74.5689849854,46.7566909790,0.0391468406,0.0582015961,-0.0007321239,15.1118183136,83.1548995972,-169.0604705811,0.0333993435,0.0236375928,0.0194426775,43.2338294983,41.0529899597,160.3312530518,0.0659364462,-0.0083419681,-0.0085010529,
241.913,-3.3341817856,1.3905382156,26.5821247101,0.0584467724,0.0459354855,0.0146837234,-115.3696060181,74.5600585938,46.7709999084,0.0322694182,0.0632490665,0.0173362494,15.1229753494,83.1524353027,-169.0429992676,0.0221637487,0.0211624429,0.0267322063,43.2324562073,41.0546875000,160.3353424072,0.0674236417,-0.0107567310,-0.0089865923,
241.923,-3.3361377716,1.3908383846,26.5838737488,0.0569871701,0.0376687720,0.0054079890,-115.3730926514,74.5475463867,46.7671890259,0.0312347412,0.0570839942,0.0032807589,15.1391677856,83.1513748169,-169.0213470459,0.0275326371,0.0255190730,0.0189104080,43.2307319641,41.0567131042,160.3398895264,0.0664737225,-0.0160955191,-0.0104511380,
241.933,-3.3363087177,1.3900399208,26.5850868225,0.0564849563,0.0396248884,0.0073612332,-115.3721618652,74.5370101929,46.7703056335,0.0302091241,0.0601752698,0.0160477757,15.1349658966,83.1526947021,-169.0181427002,0.0192345977,0.0206506141,0.0184411407,43.2267112732,41.0564994812,160.3421478271,0.0713537335,-0.0121523142,0.0026953220,
241.943,-3.3376326561,1.3902547359,26.5880317688,0.0599066764,0.0396479405,0.0122451782,-115.3855209351,74.5309677124,46.7591438293,0.0257864594,0.0641462356,0.0102882981,15.1530008316,83.1549530029,-168.9945220947,0.0211924314,0.0216004848,0.0170234442,43.2293739319,41.0578689575,160.3484344482,0.0650240779,-0.0077726841,-0.0143597126,
241.953,-3.3381526470,1.3910245895,26.5891036987,0.0594318248,0.0406335406,0.0034571290,-115.3821029663,74.5214614868,46.7678451538,0.0272070169,0.0584379882,0.0176663995,15.1565017700,83.1556167603,-168.9830627441,0.0280297399,0.0240377560,0.0204545259,43.2282638550,41.0612106323,160.3535919189,0.0577438474,-0.0116419196,-0.0031102896,
241.963,-3.3389878273,1.3916047812,26.5914592743,0.0584653877,0.0435777642,0.0112708807,-115.3677749634,74.5143814087,46.7903327942,0.0335217118,0.0575975478,0.0186331868,15.1727867126,83.1550979614,-168.9587554932,0.0241224170,0.0220491402,0.0150839090,43.2276725769,41.0626220703,160.3590240479,0.0709460378,-0.0150432587,-0.0050579906,
241.973,-3.3396334648,1.3933777809,26.5931262970,0.0584963188,0.0421241298,0.0127370954,-115.3462753296,74.5085983276,46.8193283081,0.0320299268,0.0567514002,0.0132126808,15.1942949295,83.1531524658,-168.9299011230,0.0231418014,0.0273675881,0.0258054137,43.2225914001,41.0624923706,160.3617248535,0.0743622780,-0.0169485211,-0.0016860962,
241.983,-3.3423166275,1.3932714462,26.5936126709,0.0624007173,0.0416825861,0.0044385195,-115.3009490967,74.5073928833,46.8705520630,0.0271415114,0.0632078946,0.0252365470,15.1957139969,83.1521759033,-168.9204254150,0.0206983685,0.0229660496,0.0248147845,43.2147407532,41.0629730225,160.3630828857,0.0650912523,-0.0149164796,0.0050820708,
241.993,-3.3387682438,1.3913257122,26.5947780609,0.0648081750,0.0440622307,0.0078527927,-115.2562255859,74.5072174072,46.9183273315,0.0334883332,0.0608574450,0.0099118352,15.2033500671,83.1498565674,-168.9048309326,0.0192286968,0.0268461220,0.0291742086,43.2103195190,41.0613479614,160.3687591553,0.0714175701,-0.0134217143,-0.0013178587,
242.003,-3.3380291462,1.3914227486,26.5971183777,0.0599270537,0.0406313799,0.0044336915,-115.1926803589,74.5091247559,46.9832115173,0.0247081518,0.0565614402,0.0091407299,15.2134294510,83.1515426636,-168.8856506348,0.0250915885,0.0263450928,0.0165134072,43.2076721191,41.0619735718,160.3747863770,0.0680078864,-0.0143680573,-0.0042669773,
242.013,-3.3378024101,1.3899090290,26.5995407104,0.0613654889,0.0430688821,0.0068743825,-115.1146926880,74.5178451538,47.0630226135,0.0242605209,0.0614662915,0.0190022588,15.2009372711,83.1530609131,-168.8901824951,0.0207002163,0.0214944035,0.0184839964,43.2084655762,41.0638732910,160.3828735352,0.0558257699,-0.0124076605,-0.0037552714,
242.023,-3.3372790813,1.3883144855,26.6019687653,0.0618259460,0.0440363623,0.0117558241,-115.0077590942,74.5318832397,47.1706619263,0.0257907510,0.0653707683,0.0267503262,15.1963195801,83.1510620117,-168.8856506348,0.0260671377,0.0258892998,0.0282136202,43.2049827576,41.0629844666,160.3851776123,0.0655797720,-0.0206819773,-0.0057470798,
242.033,-3.3367149830,1.3887276649,26.6042385101,0.0632979944,0.0420734026,0.0098025799,-114.8665924072,74.5553359985,47.3121185303,0.0229701400,0.0687093735,0.0259866118,15.1954746246,83.1525192261,-168.8779296875,0.0280233026,0.0239443853,0.0204246044,43.2023162842,41.0609741211,160.3891296387,0.0679947138,-0.0109065771,-0.0013935566,
242.043,-3.3339946270,1.3898340464,26.6059684753,0.0584344864,0.0454439670,0.0049170852,-114.6892089844,74.5885162354,47.4928627014,0.0270304680,0.0661090910,0.0284205079,15.1659545898,83.1512603760,-168.8981933594,0.0319269300,0.0191161633,0.0233173370,43.2048072815,41.0618057251,160.3960266113,0.0724000931,-0.0104357004,-0.0174775124,
242.053,-3.3331422806,1.3894383907,26.6095714569,0.0598924309,0.0429877192,0.0083342791,-114.4819259644,74.6295776367,47.7045326233,0.0277089477,0.0673475713,0.0292104483,15.1884326935,83.1513748169,-168.8660125732,0.0246029496,0.0288366005,0.0204025507,43.2019958496,41.0606002808,160.4003448486,0.0694545507,-0.0109064579,-0.0067707896,
242.063,-3.3310544491,1.3897824287,26.6101169586,0.0589218698,0.0453927517,0.0112616420,-114.2194976807,74.6733322144,47.9706916809,0.0225399733,0.0574149042,0.0370759964,15.1839828491,83.1491394043,-168.8595123291,0.0265514255,0.0268823057,0.0267097950,43.2025146484,41.0652008057,160.4079589844,0.0592612028,-0.0167347789,-0.0125870109,
242.073,-3.3298590183,1.3916530609,26.6112518311,0.0535834171,0.0443953201,0.0078439713,-113.9092559814,74.7226715088,48.2838630676,0.0178844333,0.0562664270,0.0364045501,15.1663894653,83.1492309570,-168.8661651611,0.0250867605,0.0278955325,0.0286565423,43.2031250000,41.0610351563,160.4185180664,0.0699486136,-0.0050544739,0.0000790954,
242.083,-3.3312237263,1.3903415203,26.6136589050,0.0628378689,0.0439308397,0.0078441501,-113.5286941528,74.7754287720,48.6623382568,0.0195915103,0.0522534698,0.0417664051,15.1253538132,83.1555862427,-168.8934173584,0.0192406178,0.0250775144,0.0160416961,43.2060890198,41.0617713928,160.4307250977,0.0582395196,-0.0143544674,-0.0062356591,
242.093,-3.3306469917,1.3904494047,26.6141510010,0.0618631952,0.0444090702,0.0102853179,-113.0902862549,74.8348236084,49.0928230286,0.0242577195,0.0565279722,0.0400105715,15.0733232498,83.1623535156,-168.9330596924,0.0236492157,0.0320496894,0.0234495997,43.2050132751,41.0550346375,160.4406280518,0.0664516687,-0.0139087439,-0.0014188290,
242.103,-3.3306617737,1.3900120258,26.6146793365,0.0613672845,0.0424562097,0.0029608011,-112.5959320068,74.8998794556,49.5742607117,0.0255306959,0.0568860173,0.0311542749,14.9919242859,83.1692047119,-169.0002288818,0.0221986175,0.0273629837,0.0201000571,43.2070960999,41.0470237732,160.4530944824,0.0707406998,-0.0120384097,-0.0009788275,
242.113,-3.3304376602,1.3907710314,26.6151866913,0.0574742779,0.0409874506,0.0117501616,-112.0413818359,74.9738311768,50.1083831787,0.0273309946,0.0664593279,0.0273691416,14.8778419495,83.1732559204,-169.0985260010,0.0261132717,0.0193120409,0.0342643857,43.2099380493,41.0398101807,160.4685211182,0.0652747154,-0.0145636797,-0.0039429069,
242.123,-3.3302307129,1.3902825117,26.6151447296,0.0589305982,0.0434252657,-0.0072937012,-111.4073486328,75.0561676025,50.7134399414,0.0316087604,0.0642824918,0.0412775278,14.7912826538,83.1807632446,-169.1708526611,0.0236874223,0.0268451404,0.0182282329,43.2117958069,41.0335197449,160.4815826416,0.0676332712,-0.0170723200,-0.0064201355,
242.133,-3.3296539783,1.3891195059,26.6163501740,0.0598868690,0.0443918146,0.0068660975,-110.7295379639,75.1461868286,51.3527297974,0.0344541669,0.0673853457,0.0290938020,14.7170076370,83.1879806519,-169.2297058105,0.0290734768,0.0280042086,0.0168430209,43.2121429443,41.0292663574,160.4928894043,0.0666007400,-0.0219917297,-0.0054761171,
242.143,-3.3296766281,1.3877702951,26.6162376404,0.0666992664,0.0424391106,0.0063766241,-109.9561538696,75.2461242676,52.0732727051,0.0383177996,0.0679859370,0.0384456515,14.6317396164,83.1896820068,-169.2992401123,0.0271238685,0.0223255046,0.0236617923,43.2145309448,41.0273628235,160.5059051514,0.0675522089,-0.0200765729,-0.0132830143,
242.153,-3.3288431168,1.3879951239,26.6167373657,0.0613320917,0.0453542806,0.0068644285,-109.1043090820,75.3616256714,52.8568191528,0.0271104574,0.0688837320,0.0444797277,14.5550909042,83.1928558350,-169.3619384766,0.0290835500,0.0195652004,0.0241615772,43.2188034058,41.0244903564,160.5202178955,0.0680027008,-0.0103744268,-0.0132684112,
242.163,-3.3290081024,1.3867419958,26.6173400879,0.0603336617,0.0438923351,0.0141883492,-108.1531829834,75.4893493652,53.7222023010,0.0262065530,0.0681841075,0.0393286347,14.4767827988,83.1999130249,-169.4252166748,0.0290981531,0.0202427041,0.0115411878,43.2202720642,41.0223655701,160.5330352783,0.0684630275,-0.0206590891,-0.0127846599,
242.173,-3.3299555779,1.3867764473,26.6184749603,0.0598459840,0.0434205569,0.0029589534,-107.0969161987,75.6252822876,54.6708374023,0.0258217454,0.0649557859,0.0410698652,14.4081020355,83.2064666748,-169.4795989990,0.0222757459,0.0267577078,0.0194259882,43.2244796753,41.0179214478,160.5462036133,0.0649864674,-0.0085273385,-0.0079009533,
242.183,-3.3289961815,1.3884953260,26.6196098328,0.0564580075,0.0477983356,0.0141890645,-105.9528884888,75.7653961182,55.6873779297,0.0259376764,0.0611671656,0.0302766562,14.3017673492,83.2107696533,-169.5682983398,0.0208197832,0.0191794429,0.0282318592,43.2268867493,41.0104866028,160.5603485107,0.0717244744,-0.0134915113,-0.0054996610,
242.193,-3.3265452385,1.3882204294,26.6201686859,0.0588946156,0.0423845500,0.0097920299,-104.7274703979,75.9016723633,56.7692260742,0.0270080566,0.0559444427,0.0187385678,14.1947383881,83.2142639160,-169.6584167480,0.0232684016,0.0213644169,0.0287223458,43.2352561951,41.0066375732,160.5770721436,0.0653261542,-0.0072544217,-0.0103397369,
242.203,-3.3274729252,1.3872350454,26.6213760376,0.0593657047,0.0433773026,0.0097923875,-103.4370880127,76.0321655273,57.9053230286,0.0217009187,0.0551394224,0.0172767043,14.0831384659,83.2168426514,-169.7514190674,0.0291330814,0.0269727949,0.0331025720,43.2391471863,40.9998321533,160.5924224854,0.0662131310,-0.0107629299,-0.0030360222,
242.213,-3.3265073299,1.3859775066,26.6219577789,0.0622734502,0.0458019190,0.0078378320,-102.0904312134,76.1579284668,59.0951499939,0.0305292010,0.0567588955,0.0146917105,13.9700164795,83.2216110229,-169.8447570801,0.0252366662,0.0252689980,0.0243349075,43.2442054749,40.9943122864,160.6103363037,0.0602810383,-0.0093901157,-0.0059673190,
242.223,-3.3257610798,1.3859732151,26.6242733002,0.0622733757,0.0428592339,0.0005129576,-100.6798248291,76.2807083130,60.3476333618,0.0359224677,0.0724865794,0.0177839398,13.8124427795,83.2295455933,-169.9819030762,0.0281826854,0.0197620355,0.0238998532,43.2496452332,40.9833526611,160.6278686523,0.0674608350,-0.0100164413,-0.0069852471,
242.233,-3.3252580166,1.3875098228,26.6247138977,0.0588822179,0.0399207473,0.0068603158,-99.2109909058,76.4066085815,61.6662445068,0.0286287665,0.0802254826,0.0177749395,13.6651735306,83.2357482910,-170.1080474854,0.0325899720,0.0171558931,0.0239278078,43.2502517700,40.9752311707,160.6443328857,0.0702835321,-0.0188750625,-0.0016770959,
242.243,-3.3245122433,1.3898601532,26.6263313293,0.0589232258,0.0403959751,0.0219976306,-97.6918792725,76.5409088135,63.0462684631,0.0277121663,0.0915868729,0.0142082572,13.5275506973,83.2433242798,-170.2234191895,0.0247930288,0.0228365455,0.0274045467,43.2555122375,40.9637718201,160.6631774902,0.0769684315,-0.0126675963,-0.0110013485,
242.253,-3.3228707314,1.3900690079,26.6286239624,0.0638096854,0.0437853448,0.0044178367,-96.0991363525,76.6929931641,64.5196685791,0.0195374489,0.1029889584,0.0206648111,13.3985805511,83.2510757446,-170.3307952881,0.0296917558,0.0236169938,0.0211229324,43.2625083923,40.9555091858,160.6810913086,0.0675821900,-0.0088934898,-0.0022190809,
242.263,-3.3201050758,1.3894046545,26.6310825348,0.0584269986,0.0476434380,0.0078327656,-94.4708480835,76.8500213623,66.0464401245,0.0191880465,0.0887320936,0.0104958415,13.2600107193,83.2604675293,-170.4508056641,0.0228750706,0.0219813548,0.0241416693,43.2706871033,40.9460716248,160.6998596191,0.0645281076,-0.0095340610,-0.0071057081,
242.273,-3.3198029995,1.3889980316,26.6322422028,0.0593964681,0.0412905291,0.0073441267,-92.8029785156,76.9994125366,67.6284713745,0.0261255503,0.0763689876,0.0003131628,13.1148710251,83.2713012695,-170.5745239258,0.0243620872,0.0257351249,0.0193696022,43.2781867981,40.9363708496,160.7230072021,0.0565876961,-0.0145651102,-0.0012600422,
242.283,-3.3203895092,1.3897047043,26.6333999634,0.0555025451,0.0403241664,0.0073446631,-91.0888137817,77.1393890381,69.2647247314,0.0344847441,0.0712921917,0.0018100739,12.9382295609,83.2849273682,-170.7296447754,0.0243899226,0.0217501167,0.0253732800,43.2884597778,40.9242019653,160.7458953857,0.0637514591,-0.0128058195,-0.0105447173,
242.293,-3.3214428425,1.3874540329,26.6364173889,0.0637640581,0.0408308581,-0.0009557009,-89.3295974731,77.2706146240,70.9453048706,0.0501286983,0.0637157559,0.0022931695,12.7518959045,83.2950973511,-170.8938446045,0.0288051963,0.0207002964,0.0239927173,43.2969818115,40.9143981934,160.7687835693,0.0636221766,-0.0114998221,-0.0095738173,
242.303,-3.3233478069,1.3880714178,26.6381092072,0.0603568628,0.0398874544,0.0112533569,-87.5383834839,77.3916931152,72.6457138062,0.0525453091,0.0565861017,-0.0064914227,12.5626850128,83.3066024780,-171.0608978271,0.0219926834,0.0191716515,0.0231203437,43.3043365479,40.9039497375,160.7901306152,0.0610429645,-0.0145817995,-0.0042220354,
242.313,-3.3233425617,1.3867508173,26.6404933929,0.0627752244,0.0423288047,0.0053935051,-85.6639404297,77.5090255737,74.3988113403,0.0647090077,0.0561240017,-0.0003216863,12.4084205627,83.3148956299,-171.1941070557,0.0283572078,0.0200018212,0.0227028131,43.3082389832,40.8971977234,160.8072509766,0.0677897930,-0.0200433731,-0.0096147656,
242.323,-3.3239400387,1.3858815432,26.6410369873,0.0608069338,0.0403861105,0.0049055219,-83.6542205811,77.6267013550,76.2506484985,0.0671042800,0.0622123927,0.0089092851,12.2942132950,83.3178634644,-171.2888336182,0.0361757278,0.0158482697,0.0212368369,43.3103713989,40.8913764954,160.8222351074,0.0745489597,-0.0162031651,-0.0072020888,
242.333,-3.3244550228,1.3869134188,26.6409168243,0.0583835281,0.0428364538,0.0068595409,-81.5185775757,77.7425765991,78.1976852417,0.0587465763,0.0675240606,0.0085641742,12.2475337982,83.3200912476,-171.3185272217,0.0327622890,0.0213214066,0.0144169927,43.3110008240,40.8905639648,160.8354187012,0.0750265121,-0.0235397816,-0.0091562271,
242.343,-3.3244891167,1.3879475594,26.6432514191,0.0588898584,0.0443018749,0.0073480010,-79.2697982788,77.8525924683,80.2496337891,0.0454805493,0.0740490854,0.0138387084,12.2116470337,83.3228530884,-171.3380432129,0.0327678919,0.0228684861,0.0159118176,43.3164176941,40.8893775940,160.8502655029,0.0711045861,-0.0079761744,-0.0081404448,
242.353,-3.3237688541,1.3870743513,26.6456470490,0.0613160245,0.0447776243,0.0083239675,-76.9595870972,77.9394607544,82.3644027710,0.0428687930,0.0693827420,0.0141279697,12.1615009308,83.3236160278,-171.3729553223,0.0210506916,0.0229723416,0.0295750499,43.3194923401,40.8885421753,160.8641967773,0.0598630905,-0.0148481131,-0.0003070831,
242.363,-3.3251132965,1.3871413469,26.6485767365,0.0603406318,0.0374768265,0.0097897649,-74.5893783569,78.0055084229,84.5448532104,0.0411558747,0.0720156729,0.0128425956,12.1093721390,83.3319931030,-171.4091339111,0.0152083039,0.0343376771,0.0223672390,43.3283271790,40.8861694336,160.8856353760,0.0569021106,-0.0110452771,-0.0056179762,
242.373,-3.3248808384,1.3897880316,26.6483917236,0.0569688454,0.0433320850,0.0053961873,-72.1761932373,78.0436401367,86.7681121826,0.0510596037,0.0620387793,0.0085179806,11.9921655655,83.3472747803,-171.5072479248,0.0225634575,0.0233973153,0.0162239075,43.3412666321,40.8780784607,160.9098815918,0.0607016087,-0.0112330317,-0.0045914650,
242.383,-3.3270785809,1.3914819956,26.6518745422,0.0589515269,0.0409289226,0.0068641901,-69.7433319092,78.0668945313,89.0104675293,0.0613974929,0.0783051550,-0.0070243478,11.8472585678,83.3619689941,-171.6330871582,0.0177103281,0.0237400513,0.0188494325,43.3523216248,40.8642120361,160.9326782227,0.0605186224,-0.0104712248,0.0022294521,
242.393,-3.3264980316,1.3916654587,26.6536674500,0.0574898832,0.0443367735,0.0083283186,-67.2759857178,78.0732498169,91.2882156372,0.0746040344,0.0846828371,-0.0133536458,11.6736850739,83.3711318970,-171.7863311768,0.0201702118,0.0231433641,0.0306484103,43.3666000366,40.8530197144,160.9595642090,0.0642771125,-0.0116724968,-0.0065227747,
242.403,-3.3262822628,1.3931097984,26.6553211212,0.0614213347,0.0453095436,0.0019811392,-64.7913131714,78.0631637573,93.5841598511,0.0818918347,0.0767763704,-0.0157954693,11.5225229263,83.3816452026,-171.9185791016,0.0236093402,0.0283650495,0.0195309520,43.3729705811,40.8386764526,160.9797668457,0.0714119077,-0.0220999718,0.0007401705,
242.413,-3.3256778717,1.3932579756,26.6563816071,0.0638653263,0.0423693210,0.0068634748,-62.3081092834,78.0411224365,95.8776626587,0.0925543904,0.0730867535,-0.0269619823,11.3687458038,83.3919067383,-172.0573120117,0.0382784009,0.0150356349,0.0186631680,43.3794708252,40.8304672241,160.9983978271,0.0678855777,-0.0202735662,-0.0085462332,
242.423,-3.3232688904,1.3950868845,26.6579895020,0.0643855184,0.0486749709,0.0029555559,-59.8189430237,77.9984588623,98.1732177734,0.0894701481,0.0683496594,-0.0191248655,11.2448072433,83.4011993408,-172.1660156250,0.0270665884,0.0133615360,0.0207226276,43.3864402771,40.8222503662,161.0161895752,0.0687536001,-0.0169869661,-0.0036690235,
242.433,-3.3233511448,1.3926182985,26.6597518921,0.0667838529,0.0398873985,0.0083256960,-57.3085746765,77.9348831177,100.4761428833,0.0887505412,0.0678934753,-0.0074958205,11.1535940170,83.4101562500,-172.2433776855,0.0339204669,0.0194327421,0.0164414644,43.3981361389,40.8163528442,161.0355224609,0.0691639781,-0.0151922703,-0.0138646364,
242.443,-3.3204419613,1.3934916258,26.6620349884,0.0638694018,0.0481374860,0.0107645988,-54.7952995300,77.8527679443,102.7633285522,0.0850319862,0.0653450489,-0.0169138908,11.0669698715,83.4118499756,-172.3172760010,0.0290410519,0.0215645153,0.0301082134,43.4047813416,40.8081512451,161.0492553711,0.0754033327,-0.0153204799,-0.0050842762,
242.453,-3.3238170147,1.3921666145,26.6625156403,0.0667759702,0.0413603745,0.0073495507,-52.2779960632,77.7545013428,105.0306015015,0.0836930871,0.0704136193,-0.0224691033,11.0001420975,83.4187011719,-172.3733978271,0.0285664797,0.0231849942,0.0140827298,43.4160881042,40.8048439026,161.0682220459,0.0660822392,-0.0164313316,-0.0103789568,
242.463,-3.3228313923,1.3937418461,26.6643218994,0.0526432991,0.0457376949,0.0093019009,-49.7504615784,77.6407012939,107.2953109741,0.0822933316,0.0869632512,-0.0056272149,10.9413690567,83.4260330200,-172.4203796387,0.0207686424,0.0311384425,0.0254127979,43.4282150269,40.7971725464,161.0878448486,0.0664691925,-0.0087955594,-0.0083803535,
242.473,-3.3247122765,1.3944848776,26.6647186279,0.0614453256,0.0360048190,0.0010040402,-47.2761917114,77.5145111084,109.5060501099,0.0945148468,0.0970271230,-0.0150054097,10.8113489151,83.4348678589,-172.5365905762,0.0212745667,0.0197074749,0.0230709910,43.4427413940,40.7898826599,161.1110229492,0.0624666810,-0.0094802380,-0.0097725391,
242.483,-3.3247601986,1.3933830261,26.6652240753,0.0658206344,0.0423533395,0.0029557347,-44.8723526001,77.3742141724,111.6552734375,0.1027716398,0.1016562879,-0.0212921500,10.6708059311,83.4445266724,-172.6627197266,0.0256883502,0.0195295345,0.0270849466,43.4554290771,40.7827720642,161.1338958740,0.0594429970,-0.0116109848,-0.0131347775,
242.493,-3.3256235123,1.3955427408,26.6668777466,0.0570692569,0.0413917601,0.0107707381,-42.5622100830,77.2183303833,113.7251281738,0.1124272346,0.1033898145,-0.0234910846,10.5448684692,83.4563827515,-172.7738800049,0.0271767974,0.0261647720,0.0204000473,43.4701118469,40.7725677490,161.1572875977,0.0671206117,-0.0089020133,-0.0130849481,
242.503,-3.3261146545,1.3962814808,26.6667633057,0.0595235489,0.0428651422,0.0102832317,-40.3298339844,77.0517883301,115.7373275757,0.1122683287,0.1089767218,-0.0298999548,10.4338293076,83.4645690918,-172.8676605225,0.0281696320,0.0268989895,0.0204960108,43.4867439270,40.7650947571,161.1838531494,0.0694632530,-0.0115617514,-0.0149493814,
242.513,-3.3270428181,1.3961498737,26.6685447693,0.0585446879,0.0433695950,0.0068661571,-38.1594085693,76.8645019531,117.7029113770,0.1037181616,0.0931010544,-0.0299655795,10.3359146118,83.4714126587,-172.9493865967,0.0262300968,0.0241847690,0.0220403075,43.4963417053,40.7580528259,161.2061157227,0.0639990568,-0.0141503811,-0.0066190958,
242.523,-3.3292911053,1.3938421011,26.6697387695,0.0638755113,0.0409673974,0.0063791275,-36.0286941528,76.6545104980,119.6274948120,0.1028787494,0.0693769604,-0.0223247409,10.2318735123,83.4797058105,-173.0347290039,0.0267348289,0.0219749305,0.0216534734,43.5026664734,40.7537155151,161.2258758545,0.0668714046,-0.0205926895,-0.0031795502,
242.533,-3.3300137520,1.3917033672,26.6703262329,0.0653030425,0.0463511348,0.0063788891,-33.8889656067,76.4342193604,121.5436325073,0.0961247087,0.0765662342,-0.0254850984,10.1238985062,83.4891281128,-173.1257934570,0.0243120790,0.0192874409,0.0207955837,43.5114631653,40.7478256226,161.2460937500,0.0736294389,-0.0163288713,-0.0046129823,
242.543,-3.3308691978,1.3936088085,26.6707382202,0.0599651970,0.0414831750,0.0137047172,-31.7545375824,76.2006607056,123.4268264771,0.1010198593,0.0702937394,-0.0262631178,10.0245857239,83.4985961914,-173.2112426758,0.0233542323,0.0214658063,0.0238520503,43.5256881714,40.7396354675,161.2693786621,0.0613141060,-0.0145763755,-0.0089457035,
242.553,-3.3319537640,1.3937152624,26.6718044281,0.0619201809,0.0385723785,0.0083349347,-29.6629562378,75.9639205933,125.2421951294,0.1136978865,0.0759870410,-0.0307728648,9.8708114624,83.5142974854,-173.3526000977,0.0248500705,0.0193742011,0.0118527412,43.5405273438,40.7287521362,161.2924499512,0.0611702204,-0.0118743181,-0.0108534098,
