Time(sec),Gyr1_X(deg/sec),Gyr1_Y(deg/sec),Gyr1_Z(deg/sec),Acc1_X(m/s^2),Acc1_Y(m/s^2),Acc1_Z(m/s^2),Gyr2_X(deg/sec),Gyr2_Y(deg/sec),Gyr2_Z(deg/sec),Acc2_X(m/s^2),Acc2_Y(m/s^2),Acc2_Z(m/s^2),Gyr_X(deg/sec),Gyr_Y(deg/sec),Gyr_Z(deg/sec),Acc_X(m/s^2),Acc_Y(m/s^2),Acc_Z(m/s^2),Gyr_X(deg/sec),Gyr_Y(deg/sec),Gyr_Z(deg/sec),Acc_X(m/s^2),Acc_Y(m/s^2),Acc_Z(m/s^2),
113.743,-3.2952473164,1.4005912542,11.8423633575,0.0615518689,0.0452570431,0.0107420683,-110.8812408447,72.7411422729,43.5797462463,0.0311459899,0.0627164841,0.0064646602,17.1953144073,83.3261718750,86.8758926392,0.0288683772,0.0261336267,0.0224747956,42.9996261597,41.0760688782,73.0371398926,0.0691698790,-0.0107932687,-0.0026013851,
113.753,-3.2961635590,1.4007662535,11.8434629440,0.0615549237,0.0413667485,0.0048838258,-110.8947372437,72.7437591553,43.5728950500,0.0321360826,0.0626515150,0.0065147877,17.1845874786,83.3251495361,86.8763122559,0.0210537910,0.0237076879,0.0244026482,42.9989089966,41.0757026672,73.0436401367,0.0628173947,-0.0112775564,-0.0035871863,
113.763,-3.2970061302,1.4032891989,11.8438663483,0.0596458204,0.0438227654,0.0048856735,-110.9030380249,72.7461090088,43.5704765320,0.0267771482,0.0611348152,0.0099591017,17.1956253052,83.3243789673,86.8953475952,0.0220288038,0.0241708159,0.0204924643,42.9951896667,41.0729637146,73.0471343994,0.0686407089,-0.0161460042,0.0017274022,
113.773,-3.2967836857,1.4022645950,11.8462371826,0.0645107552,0.0428423546,0.0219745040,-110.9077148438,72.7495422363,43.5698165894,0.0302128792,0.0669316649,0.0133793354,17.1845664978,83.3237304688,86.8930435181,0.0273985863,0.0197943449,0.0204733014,42.9929580688,41.0731697083,73.0508193970,0.0686433911,-0.0166112185,-0.0036618710,
113.783,-3.2971999645,1.4021648169,11.8474369049,0.0562082306,0.0408964828,0.0083033442,-110.9176864624,72.7511291504,43.5652656555,0.0272914171,0.0595643222,0.0134183764,17.1892490387,83.3243789673,86.9063949585,0.0298413038,0.0222300589,0.0219526887,42.9924468994,41.0706520081,73.0549240112,0.0744696259,-0.0107665658,-0.0027111173,
113.793,-3.2971136570,1.4040356874,11.8485603333,0.0557525940,0.0448011830,0.0087925196,-110.9403457642,72.7556228638,43.5471038818,0.0253615379,0.0692183971,-0.0006585717,17.1851940155,83.3233261108,86.9115371704,0.0269094706,0.0251623988,0.0248626769,42.9921226501,41.0709838867,73.0613403320,0.0661732554,-0.0136905313,-0.0090588331,
113.803,-3.2969264984,1.4024810791,11.8509206772,0.0679325014,0.0472393669,0.0068384409,-110.9489212036,72.7575378418,43.5426445007,0.0273245573,0.0647784770,0.0096255541,17.1840171814,83.3219680786,86.9208450317,0.0239770412,0.0251579881,0.0277699232,42.9914054871,41.0719528198,73.0689315796,0.0622797608,-0.0092815161,-0.0046626329,
113.813,-3.2949905396,1.4030201435,11.8532638550,0.0606176853,0.0447642207,0.0073249936,-110.9438781738,72.7591781616,43.5519142151,0.0253799558,0.0647624135,0.0159389377,17.1807422638,83.3220596313,86.9257202148,0.0254420638,0.0197937489,0.0214214921,42.9911384583,41.0718383789,73.0748367310,0.0691141486,-0.0190454721,-0.0056425333,
113.823,-3.2935504913,1.4044125080,11.8537483215,0.0596654192,0.0452273935,0.0151366591,-110.9485397339,72.7583770752,43.5528831482,0.0258640647,0.0623242259,0.0071772933,17.1912155151,83.3224411011,86.9449844360,0.0273959637,0.0207515359,0.0185041428,42.9877243042,41.0708427429,73.0794219971,0.0744721889,-0.0116961002,-0.0066579580,
113.833,-3.2945809364,1.4038347006,11.8536806107,0.0616084635,0.0432922244,-0.0004876256,-110.9526977539,72.7577896118,43.5536384583,0.0346500874,0.0628146529,0.0101305246,17.1984729767,83.3221206665,86.9622116089,0.0259304643,0.0207357109,0.0189919174,42.9879493713,41.0698928833,73.0875549316,0.0656706095,-0.0068229437,-0.0017812252,
113.843,-3.2944481373,1.4032239914,11.8547925949,0.0645274967,0.0428016447,0.0107426047,-110.9636840820,72.7580718994,43.5470504761,0.0302570462,0.0632776320,0.0038344860,17.1954689026,83.3218536377,86.9674148560,0.0230002403,0.0182990134,0.0248456597,42.9896583557,41.0720748901,73.0960922241,0.0613048077,-0.0131700039,-0.0046771765,
113.853,-3.2941398621,1.4045588970,11.8570947647,0.0601562560,0.0432845242,0.0126954317,-110.9688720703,72.7568435669,43.5467720032,0.0322037935,0.0647526979,0.0102145076,17.2058677673,83.3207931519,86.9864578247,0.0239746571,0.0265738070,0.0258107483,42.9900245667,41.0709533691,73.1025695801,0.0695908070,-0.0112292767,-0.0066370964,
113.863,-3.2954096794,1.4043121338,11.8587884903,0.0655230433,0.0442832150,0.0107438564,-110.9701080322,72.7586135864,43.5503921509,0.0331895351,0.0691168606,0.0136280060,17.2017898560,83.3220901489,86.9923324585,0.0225124359,0.0212173760,0.0219234526,42.9895553589,41.0693702698,73.1093292236,0.0666403174,-0.0127018690,-0.0095834732,
113.873,-3.2956702709,1.4043016434,11.8599548340,0.0601517707,0.0457526036,0.0073263049,-110.9687271118,72.7595520020,43.5557174683,0.0307529569,0.0651987195,0.0097095966,17.1919612885,83.3243789673,86.9900131226,0.0200756788,0.0192950666,0.0180481374,42.9871368408,41.0676307678,73.1125259399,0.0685705543,-0.0141571164,0.0020983219,
113.883,-3.2958140373,1.4042359591,11.8622808456,0.0625920221,0.0418488532,0.0034198165,-110.9747314453,72.7603530884,43.5552864075,0.0307571292,0.0627335310,0.0082688928,17.1848945618,83.3210906982,86.9929428101,0.0269049406,0.0202689767,0.0301972926,42.9890480042,41.0681610107,73.1210403442,0.0685774684,-0.0136829615,-0.0144810677,
113.893,-3.2975606918,1.4049135447,11.8620719910,0.0640686899,0.0384612903,0.0112346411,-110.9727325439,72.7595977783,43.5612449646,0.0312414765,0.0617725253,0.0082638860,17.1964416504,83.3225555420,87.0149078369,0.0342321396,0.0266011059,0.0180205703,42.9877433777,41.0681343079,73.1260910034,0.0685771704,-0.0151355267,-0.0061928034,
113.903,-3.2987005711,1.4045423269,11.8632030487,0.0616208091,0.0404342897,0.0131889582,-110.9706115723,72.7607116699,43.5672988892,0.0312472582,0.0656652749,0.0106883049,17.1899414063,83.3211517334,87.0170898438,0.0244636536,0.0202594697,0.0243426859,42.9874649048,41.0676116943,73.1324462891,0.0690585375,-0.0131837130,-0.0052224398,
113.913,-3.2974407673,1.4068807364,11.8643054962,0.0562905148,0.0467599332,0.0097705126,-110.9785766602,72.7620468140,43.5631790161,0.0351604223,0.0646533072,0.0058360696,17.1835155487,83.3237304688,87.0201034546,0.0225157738,0.0188201070,0.0141258538,42.9888648987,41.0673103333,73.1397552490,0.0695428848,-0.0088050961,-0.0149785280,
113.923,-3.2993297577,1.4049322605,11.8636255264,0.0665104240,0.0423983596,0.0058650374,-111.0136566162,72.7730102539,43.5384292603,0.0191038251,0.1117819250,0.0088702440,17.1850624084,83.3227081299,87.0308074951,0.0273965001,0.0251596868,0.0238765478,42.9906692505,41.0667381287,73.1478500366,0.0690470934,-0.0049206614,-0.0061779022,
113.933,-3.2969708443,1.4046955109,11.8654003143,0.0611352026,0.0462635234,0.0092811584,-111.0097885132,72.7708358765,43.5412292480,0.0288581848,0.0537167788,0.0117943883,17.1874675751,83.3201446533,87.0425643921,0.0278795958,0.0207476318,0.0223717988,42.9923095703,41.0652618408,73.1537246704,0.0690276027,-0.0112957358,-0.0095935464,
113.943,-3.2971904278,1.4036941528,11.8660182953,0.0591646060,0.0438259654,0.0058624744,-111.0143356323,72.7697982788,43.5437774658,0.0332473516,0.0625141263,0.0069395900,17.1998081207,83.3225555420,87.0631027222,0.0215368271,0.0217116177,0.0170458257,42.9925079346,41.0648956299,73.1585464478,0.0704876781,-0.0161831975,-0.0061768293,
113.953,-3.2990148067,1.4050157070,11.8677368164,0.0577228218,0.0423928723,0.0063531995,-111.0189514160,72.7745819092,43.5513343811,0.0205767751,0.0702430904,0.0157226324,17.2065200806,83.3199768066,87.0778045654,0.0249495506,0.0241272748,0.0243339539,42.9944839478,41.0652008057,73.1656723022,0.0680503249,-0.0132701397,-0.0125041008,
113.963,-3.2985680103,1.4057345390,11.8694276810,0.0621298924,0.0438499153,0.0107477903,-111.0205535889,72.7677459717,43.5598945618,0.0288422108,0.0449557304,0.0094235539,17.1986484528,83.3193283081,87.0809402466,0.0273896456,0.0260924399,0.0238296092,42.9941902161,41.0654258728,73.1720275879,0.0602407455,-0.0083827972,0.0001902580,
113.973,-3.2995719910,1.4067096710,11.8717136383,0.0592172146,0.0365431570,0.0112373829,-111.0335769653,72.7686004639,43.5580749512,0.0298231840,0.0693329275,0.0089930892,17.2041835785,83.3182754517,87.0971145630,0.0327585936,0.0207051039,0.0247923136,42.9926452637,41.0621376038,73.1768569946,0.0748459101,-0.0157178044,-0.0022925138,
113.983,-3.2985799313,1.4072630405,11.8715839386,0.0602034368,0.0394555554,0.0112366080,-111.0478744507,72.7694702148,43.5558433533,0.0273863077,0.0629440546,0.0085690022,17.2097320557,83.3217086792,87.1100387573,0.0273944736,0.0236411095,0.0136209726,42.9924201965,41.0632743835,73.1846389771,0.0641186833,-0.0171716213,-0.0076560974,
113.993,-3.2994120121,1.4057264328,11.8715553284,0.0631063133,0.0438646190,0.0073305964,-111.0529098511,72.7703247070,43.5590934753,0.0303204060,0.0653642714,0.0095645189,17.2040710449,83.3212051392,87.1138458252,0.0269051790,0.0177903473,0.0253280103,42.9958343506,41.0672988892,73.1936340332,0.0636833310,-0.0142433643,-0.0149159431,
114.003,-3.2978184223,1.4053128958,11.8727254868,0.0616342537,0.0457899906,0.0092815161,-111.0633621216,72.7740631104,43.5530967712,0.0274100304,0.0672386289,0.0042220354,17.2100315094,83.3230819702,87.1291961670,0.0288621187,0.0197412968,0.0180383921,42.9968872070,41.0685081482,73.2008056641,0.0636992455,-0.0157089233,-0.0090369582,
114.013,-3.3008711338,1.4072602987,11.8737878799,0.0553205758,0.0360774919,0.0034263730,-111.0563354492,72.7778854370,43.5624351501,0.0279181004,0.0657289028,0.0188133121,17.2162036896,83.3219070435,87.1440734863,0.0205589533,0.0231410861,0.0229054689,42.9984169006,41.0692443848,73.2092285156,0.0671269298,-0.0132763982,-0.0041341782,
114.023,-3.2995507717,1.4061441422,11.8743238449,0.0636018813,0.0428904593,-0.0004816651,-111.0523300171,72.7774810791,43.5675048828,0.0337753296,0.0618354380,0.0124490261,17.2208957672,83.3223266602,87.1574478149,0.0269074440,0.0226456225,0.0170555413,42.9963493347,41.0693092346,73.2132034302,0.0637098551,-0.0113028884,-0.0056170225,
114.033,-3.3012588024,1.4059309959,11.8748598099,0.0606684759,0.0429202169,0.0053794384,-111.0593338013,72.7798919678,43.5619049072,0.0293932557,0.0652029514,0.0051442981,17.2288742065,83.3233871460,87.1752548218,0.0313041210,0.0255648792,0.0180539787,42.9931030273,41.0719757080,73.2172317505,0.0656979680,-0.0185750723,-0.0017175674,
114.043,-3.3015465736,1.4071621895,11.8753519058,0.0577602684,0.0414603539,0.0053801537,-111.0617523193,72.7818069458,43.5621299744,0.0259852409,0.0627277195,0.0075858235,17.2179088593,83.3223266602,87.1735610962,0.0249543190,0.0226511657,0.0219351053,42.9949684143,41.0741348267,73.2267684937,0.0657264590,-0.0141815543,-0.0143779516,
114.053,-3.3005599976,1.4067814350,11.8752498627,0.0631247237,0.0438845865,0.0014729500,-111.0625610352,72.7858200073,43.5639572144,0.0294238925,0.0675468743,0.0100072622,17.2194309235,83.3231430054,87.1841506958,0.0264208317,0.0231415629,0.0112110972,42.9957618713,41.0756225586,73.2333602905,0.0716053247,-0.0122244954,-0.0060575008,
114.063,-3.3030002117,1.4068957567,11.8776168823,0.0577556230,0.0380677134,0.0053812861,-111.0720367432,72.7873992920,43.5593833923,0.0328500271,0.0650632083,0.0076022148,17.2046146393,83.3260803223,87.1776809692,0.0259385109,0.0168369412,0.0205232799,42.9959106445,41.0756340027,73.2421035767,0.0662344098,-0.0122258067,-0.0045912266,
114.073,-3.3066787720,1.4064121246,11.8799600601,0.0621417165,0.0400849320,0.0097795725,-111.0647048950,72.7862701416,43.5698547363,0.0230785608,0.0611882806,0.0134328604,17.2148113251,83.3258819580,87.1969528198,0.0244732499,0.0256056488,0.0180879533,42.9927062988,41.0761528015,73.2466278076,0.0637998581,-0.0175620914,-0.0026630759,
114.083,-3.3065361977,1.4044448137,11.8805313110,0.0645487979,0.0430121832,0.0024544597,-111.0732727051,72.7875747681,43.5652275085,0.0240618587,0.0665224791,0.0041891932,17.1998023987,83.3277893066,87.1919174194,0.0239888430,0.0227141976,0.0176177025,42.9942970276,41.0765380859,73.2548599243,0.0642932057,-0.0102500916,-0.0060628653,
114.093,-3.3047034740,1.4047484398,11.8816881180,0.0591830015,0.0444450974,0.0112417936,-111.0762634277,72.7863540649,43.5661964417,0.0318681002,0.0621421337,0.0071403980,17.2005748749,83.3261108398,87.2005538940,0.0234971642,0.0251465440,0.0283369124,42.9945945740,41.0761070251,73.2613067627,0.0662406683,-0.0141625404,-0.0094817877,
114.103,-3.3040664196,1.4045065641,11.8828039169,0.0611319058,0.0380863473,0.0122172236,-111.0783386230,72.7877349854,43.5676536560,0.0279689431,0.0611397624,0.0105602741,17.2019748688,83.3273849487,87.2117767334,0.0225231647,0.0275910795,0.0176140368,42.9958419800,41.0740776062,73.2682952881,0.0691436529,-0.0093076825,-0.0041173100,
114.113,-3.3042850494,1.4040206671,11.8840036392,0.0596585795,0.0459026657,0.0068463683,-111.0884552002,72.7884292603,43.5608978271,0.0269959569,0.0679463446,0.0037692189,17.2138824463,83.3271408081,87.2323226929,0.0210578442,0.0221955478,0.0146887004,42.9941482544,41.0719909668,73.2745208740,0.0696044564,-0.0083310604,0.0007336140,
114.123,-3.3037464619,1.4060106277,11.8832244873,0.0592050217,0.0444283932,0.0073348880,-111.0824508667,72.7920379639,43.5699844360,0.0284794569,0.0654600263,0.0227614641,17.2248268127,83.3292846680,87.2527465820,0.0225270391,0.0197429955,0.0157051086,42.9932937622,41.0738716125,73.2801361084,0.0657230020,-0.0146557689,-0.0060943365,
114.133,-3.3025519848,1.4058541059,11.8849887848,0.0606671348,0.0444075949,0.0039159060,-111.0884552002,72.7949905396,43.5678215027,0.0294712782,0.0697979033,0.0091009736,17.2113075256,83.3301391602,87.2471313477,0.0269232988,0.0231923759,0.0196189880,42.9923515320,41.0739669800,73.2850189209,0.0652359128,-0.0131810904,-0.0031722784,
114.143,-3.3016412258,1.4051529169,11.8855323792,0.0626080260,0.0434151851,0.0117267966,-111.0960006714,72.7960281372,43.5652160645,0.0328946114,0.0604905188,0.0066897273,17.1962871552,83.3306121826,87.2390060425,0.0269242525,0.0163883269,0.0152228773,42.9910507202,41.0725746155,73.2917785645,0.0666824579,-0.0131795406,-0.0007542372,
114.153,-3.3037135601,1.4056448936,11.8860235214,0.0606634840,0.0414981395,0.0146589875,-111.1096343994,72.7985839844,43.5574111938,0.0309546590,0.0648194253,0.0013692975,17.1999282837,83.3326110840,87.2519378662,0.0230220556,0.0232271552,0.0167223215,42.9920272827,41.0744743347,73.2982025146,0.0676839948,-0.0141506195,-0.0100070238,
114.163,-3.3046345711,1.4052710533,11.8859043121,0.0630983710,0.0415141955,0.0014762878,-111.1194610596,72.7961425781,43.5531539917,0.0314303637,0.0580036044,0.0048492551,17.1939353943,83.3289642334,87.2551498413,0.0235029459,0.0251735151,0.0298423469,42.9970207214,41.0737838745,73.3081817627,0.0706046224,-0.0068798065,-0.0089913011,
114.173,-3.3040404320,1.4051331282,11.8876676559,0.0606545582,0.0444335341,0.0053819418,-111.1252365112,72.7999496460,43.5527725220,0.0334030986,0.0623282492,0.0102255344,17.2075824738,83.3285827637,87.2761764526,0.0308263898,0.0261215270,0.0200796127,43.0000610352,41.0723037720,73.3181228638,0.0700969100,-0.0069208145,-0.0084887743,
114.183,-3.3038134575,1.4056030512,11.8887672424,0.0606627539,0.0410116017,0.0087994933,-111.1270294189,72.8013687134,43.5552368164,0.0246213675,0.0642558336,0.0112023354,17.2086372375,83.3280258179,87.2859344482,0.0274072886,0.0222103298,0.0205591619,42.9992485046,41.0742492676,73.3248291016,0.0657279491,-0.0181280375,-0.0094555616,
114.193,-3.3052620888,1.4047018290,11.8906612396,0.0572290607,0.0478727967,0.0156370997,-111.1269531250,72.8035049438,43.5624008179,0.0275620818,0.0695941150,0.0190016627,17.2141914368,83.3254699707,87.3007583618,0.0269138217,0.0241394639,0.0244266093,42.9973106384,41.0721092224,73.3305358887,0.0700943470,-0.0132435560,-0.0011911392,
114.203,-3.3038349152,1.4066810608,11.8923482895,0.0577518716,0.0429650694,0.0122177005,-111.1400756836,72.8090133667,43.5559387207,0.0285670757,0.0709490478,0.0102428198,17.2164440155,83.3263244629,87.3093414307,0.0205678940,0.0207214653,0.0254188180,42.9954032898,41.0733795166,73.3372192383,0.0671813488,-0.0137034059,-0.0016850829,
114.213,-3.3043944836,1.4083555937,11.8928737640,0.0563162491,0.0468810238,0.0088016987,-111.1594924927,72.8110275269,43.5423393250,0.0368782282,0.0664867163,0.0064183474,17.2104816437,83.3292617798,87.3113861084,0.0235035419,0.0222129226,0.0127678812,42.9946670532,41.0713386536,73.3435363770,0.0700841546,-0.0117592216,0.0031733513,
114.223,-3.3025355339,1.4053730965,11.8952884674,0.0689595267,0.0444073156,0.0141692162,-111.1597213745,72.8136596680,43.5467109680,0.0300558805,0.0664458275,0.0171458125,17.2113208771,83.3259429932,87.3213806152,0.0210554004,0.0275658965,0.0322467387,42.9958763123,41.0740394592,73.3500518799,0.0618189573,-0.0180972815,-0.0114407539,
114.233,-3.3013994694,1.4063860178,11.8970298767,0.0587232932,0.0463406220,0.0039148927,-111.1660079956,72.8131561279,43.5451393127,0.0310298204,0.0610706806,0.0098549128,17.2152214050,83.3267898560,87.3326797485,0.0278930664,0.0256088078,0.0161473155,42.9961624146,41.0730552673,73.3572082520,0.0647356510,-0.0088304281,-0.0046106577,
114.243,-3.3029811382,1.4037337303,11.8970670700,0.0625832677,0.0434385538,0.0034270883,-111.1731491089,72.8141174316,43.5430831909,0.0354292989,0.0669018030,0.0074422956,17.1970958710,83.3262863159,87.3238754272,0.0244740844,0.0192947090,0.0268719196,42.9951705933,41.0746498108,73.3641967773,0.0701277256,-0.0166209340,-0.0094890594,
114.253,-3.3020651340,1.4042108059,11.8981819153,0.0606384613,0.0434225835,0.0087974668,-111.1787643433,72.8149566650,43.5425148010,0.0329922438,0.0654135048,0.0084408522,17.1980648041,83.3288192749,87.3336715698,0.0215495229,0.0173524618,0.0176365674,42.9937133789,41.0765495300,73.3687896729,0.0652699471,-0.0141506791,-0.0060688853,
114.263,-3.3028392792,1.4065500498,11.8992633820,0.0562847480,0.0439242944,0.0097758174,-111.1824493408,72.8163757324,43.5433006287,0.0339761376,0.0648963451,0.0084501505,17.1813621521,83.3287277222,87.3275222778,0.0269204378,0.0198262036,0.0210424960,42.9960975647,41.0765380859,73.3773040771,0.0667346120,-0.0102673769,-0.0138591528,
114.273,-3.3033609390,1.4052474499,11.8992080688,0.0645627975,0.0449099801,0.0107519627,-111.1837387085,72.8165206909,43.5487480164,0.0325120091,0.0712400973,0.0089436173,17.1760253906,83.3299331665,87.3321075439,0.0313174129,0.0203310549,0.0191058517,42.9947471619,41.0762176514,73.3828659058,0.0706366301,-0.0141632557,0.0012620687,
114.283,-3.3018131256,1.4051681757,11.8997325897,0.0601668842,0.0414650477,0.0044029951,-111.1811752319,72.8140182495,43.5561637878,0.0315225720,0.0600522161,0.0118760467,17.1765823364,83.3296127319,87.3406219482,0.0274105072,0.0256993771,0.0220304728,42.9979743958,41.0755271912,73.3911437988,0.0676978230,-0.0093168616,-0.0114096999,
114.293,-3.3028657436,1.4034039974,11.9015626907,0.0601361021,0.0385537408,0.0117276311,-111.1828613281,72.8129119873,43.5605163574,0.0290754437,0.0605553091,0.0123789907,17.1839351654,83.3310852051,87.3547744751,0.0225306749,0.0242275298,0.0161996484,42.9960708618,41.0769615173,73.3965072632,0.0652753115,-0.0166115165,-0.0065319538,
114.303,-3.3010058403,1.4021173716,11.9022016525,0.0601136535,0.0468221568,0.0044006109,-111.1880950928,72.8104782104,43.5595283508,0.0319926143,0.0571644604,0.0060713887,17.1737976074,83.3282012939,87.3540420532,0.0191068649,0.0188618600,0.0283534825,42.9999351501,41.0765724182,73.4057998657,0.0691764355,-0.0054212809,-0.0069886446,
114.313,-3.3016362190,1.4014703035,11.9027404785,0.0644968972,0.0487862788,0.0097724199,-111.1923065186,72.8079299927,43.5606918335,0.0324677229,0.0601263046,0.0036655068,17.1735000610,83.3277893066,87.3624725342,0.0215474367,0.0198366642,0.0190684199,42.9970512390,41.0752296448,73.4126434326,0.0691587925,-0.0151696801,-0.0001906157,
114.323,-3.3038997650,1.3994044065,11.9032974243,0.0649491325,0.0410132557,0.0039143562,-111.1944351196,72.8080062866,43.5630607605,0.0314915776,0.0615856946,0.0144176483,17.1768302917,83.3282012939,87.3738479614,0.0230131149,0.0242267251,0.0220068693,42.9976730347,41.0718193054,73.4189529419,0.0696022511,-0.0034834743,-0.0007010698,
114.333,-3.3045530319,1.4002617598,11.9062633514,0.0576398708,0.0420011766,0.0122162700,-111.1974716187,72.8063583374,43.5644149780,0.0309947729,0.0625824332,0.0090709925,17.1657028198,83.3247909546,87.3702468872,0.0195882320,0.0203253925,0.0302459002,42.9933738708,41.0727195740,73.4224395752,0.0642429590,-0.0190601945,-0.0017093420,
114.343,-3.3054099083,1.4018309116,11.9079017639,0.0610852204,0.0415277816,0.0048936009,-111.1921615601,72.8086166382,43.5726699829,0.0358892679,0.0674394369,0.0168442726,17.1759243011,83.3248443604,87.3891677856,0.0239828825,0.0232352614,0.0199991763,42.9922637939,41.0719070435,73.4300765991,0.0735095739,-0.0122198462,-0.0051436424,
114.353,-3.3055272102,1.4013786316,11.9102745056,0.0620538890,0.0439712480,0.0102641582,-111.1883773804,72.8092803955,43.5819129944,0.0319864154,0.0630419850,0.0153572559,17.1964168549,83.3252944946,87.4188690186,0.0303314328,0.0266151428,0.0166009665,42.9931373596,41.0715026855,73.4376831055,0.0691097379,-0.0102783442,-0.0119751692,
114.363,-3.3052015305,1.4027694464,11.9119567871,0.0596367493,0.0434772521,0.0068471432,-111.1922683716,72.8091430664,43.5831413269,0.0295442939,0.0649904013,0.0085408092,17.1976680756,83.3273849487,87.4300231934,0.0269176960,0.0222285986,0.0161472261,42.9916801453,41.0721740723,73.4429092407,0.0666771531,-0.0122121572,-0.0012404323,
114.373,-3.3055293560,1.4041687250,11.9142036438,0.0621025711,0.0410415307,0.0131952167,-111.1924514771,72.8108139038,43.5868225098,0.0285763741,0.0654523671,0.0173208117,17.2001914978,83.3257369995,87.4412765503,0.0230081081,0.0241685212,0.0307704806,42.9895210266,41.0719528198,73.4492111206,0.0725336671,-0.0141462088,-0.0061444640,
114.383,-3.3060882092,1.4034881592,11.9165000916,0.0650203824,0.0381215923,0.0107541680,-111.1960220337,72.8114852905,43.5883255005,0.0310212374,0.0678765774,0.0100097060,17.2105350494,83.3255538940,87.4590225220,0.0244725943,0.0251237750,0.0229614079,42.9905815125,41.0692214966,73.4571838379,0.0685914755,-0.0034355521,-0.0002983809,
114.393,-3.3045423031,1.4011201859,11.9171447754,0.0620493777,0.0434658155,0.0127047896,-111.2078018188,72.8126144409,43.5827140808,0.0276090503,0.0668610334,0.0076183677,17.1994400024,83.3250885010,87.4566802979,0.0264247656,0.0217252374,0.0302709639,42.9916458130,41.0693092346,73.4658584595,0.0690808892,-0.0088162422,-0.0071241260,
114.403,-3.3021812439,1.4031798840,11.9170246124,0.0572025068,0.0463543274,0.0156331062,-111.2071838379,72.8135375977,43.5881538391,0.0310317874,0.0609880090,0.0120044947,17.2103691101,83.3210906982,87.4762725830,0.0298346281,0.0251016021,0.0258182287,42.9895668030,41.0666770935,73.4699249268,0.0709993839,-0.0136995912,0.0040657520,
114.413,-3.3006715775,1.4061566591,11.9180335999,0.0582310110,0.0433982648,0.0063554645,-111.2115936279,72.8156356812,43.5886306763,0.0266481042,0.0697359741,0.0125012994,17.2068958282,83.3196868896,87.4808273315,0.0278786421,0.0231481493,0.0238398314,42.9909286499,41.0676498413,73.4781570435,0.0666177273,-0.0112637281,-0.0134920478,
114.423,-3.3026566505,1.4057974815,11.9185686111,0.0592013039,0.0375734717,0.0102635622,-111.2180862427,72.8165893555,43.5871543884,0.0325123668,0.0638499856,0.0076441169,17.2067642212,83.3213806152,87.4875793457,0.0269055367,0.0187627375,0.0155678391,42.9908943176,41.0682373047,73.4839096069,0.0739496350,-0.0166298151,-0.0090926886,
114.433,-3.3054320812,1.4045351744,11.9215278625,0.0650386512,0.0410398208,0.0107541680,-111.2322769165,72.8161239624,43.5789299011,0.0349513888,0.0687135458,0.0018559694,17.2237453461,83.3209152222,87.5133056641,0.0283694267,0.0240975618,0.0184983909,42.9889297485,41.0688209534,73.4901733398,0.0715159178,-0.0161181092,-0.0017819405,
114.443,-3.3042593002,1.4039115906,11.9226961136,0.0625863671,0.0463904999,0.0151472092,-111.2386779785,72.8156127930,43.5776443481,0.0300659537,0.0628499389,0.0057961345,17.2405490875,83.3189163208,87.5381240845,0.0229942799,0.0255195796,0.0258018076,42.9868202209,41.0689697266,73.4950714111,0.0685881376,-0.0160965919,-0.0066816807,
114.453,-3.3047246933,1.4039762020,11.9244670868,0.0601460859,0.0449337624,0.0112414360,-111.2444152832,72.8176116943,43.5771903992,0.0334942341,0.0628085136,0.0121594667,17.2420730591,83.3197097778,87.5490036011,0.0229958892,0.0216137767,0.0170243680,42.9848976135,41.0696258545,73.4996490479,0.0627374053,-0.0170496702,-0.0022996664,
114.463,-3.3038978577,1.4037990570,11.9268293381,0.0611195639,0.0429662354,0.0112404227,-111.2412185669,72.8216171265,43.5838470459,0.0315617323,0.0661703050,0.0170027614,17.2223415375,83.3191528320,87.5397567749,0.0288541317,0.0167679489,0.0218899250,42.9822921753,41.0721855164,73.5050888062,0.0617945194,-0.0204223394,-0.0018123388,
114.473,-3.3041155338,1.4013304710,11.9280672073,0.0644944608,0.0458997786,0.0078215599,-111.2489166260,72.8203506470,43.5809402466,0.0276489854,0.0583628118,0.0072817802,17.2169666290,83.3203277588,87.5432205200,0.0229971409,0.0226428211,0.0233663619,42.9832725525,41.0714340210,73.5126266479,0.0700854063,-0.0131135583,-0.0081583261,
114.483,-3.3028585911,1.3984103203,11.9280881882,0.0659083501,0.0468545146,0.0097723603,-111.2479858398,72.8227844238,43.5877647400,0.0281497836,0.0666274428,0.0170283914,17.2315750122,83.3216476440,87.5663909912,0.0225115418,0.0235981643,0.0170527995,42.9814949036,41.0694465637,73.5178298950,0.0681061149,-0.0072525740,-0.0018428564,
114.493,-3.3025205135,1.3973554373,11.9298820496,0.0619836971,0.0434306860,0.0127013922,-111.2618942261,72.8222198486,43.5790557861,0.0286351442,0.0607514381,0.0004972816,17.2199363708,83.3206558228,87.5635223389,0.0225095153,0.0201976001,0.0223985016,42.9813690186,41.0677337646,73.5238647461,0.0744312406,-0.0111709237,-0.0013700724,
114.503,-3.3030700684,1.3973314762,11.9310197830,0.0624715537,0.0468582287,0.0107484460,-111.2577667236,72.8219528198,43.5880279541,0.0374228358,0.0656462014,0.0165920854,17.2322769165,83.3206787109,87.5844726563,0.0337400436,0.0255445540,0.0185003579,42.9806747437,41.0691757202,73.5292968750,0.0612666011,-0.0131061077,-0.0062470436,
114.513,-3.3022878170,1.3971126080,11.9327821732,0.0634443015,0.0492860153,0.0151422024,-111.2607116699,72.8213119507,43.5904045105,0.0340015888,0.0641850233,0.0053797960,17.2299880981,83.3176879883,87.5900878906,0.0308042765,0.0269991755,0.0301705599,42.9811859131,41.0716972351,73.5358276367,0.0676474571,-0.0160211325,-0.0125694871,
114.523,-3.3024237156,1.3982931376,11.9344787598,0.0585820824,0.0395227298,0.0175842643,-111.2650299072,72.8205795288,43.5907936096,0.0296032429,0.0612590611,0.0112645030,17.2378959656,83.3161010742,87.6067581177,0.0249416828,0.0240454674,0.0257532299,42.9797706604,41.0715789795,73.5403976440,0.0617865324,-0.0135668516,-0.0018400550,
114.533,-3.3028349876,1.3958460093,11.9362611771,0.0687932968,0.0473424494,0.0068415999,-111.2688598633,72.8218612671,43.5924911499,0.0325395465,0.0700211227,0.0132282972,17.2286701202,83.3151321411,87.6049346924,0.0307990909,0.0221059322,0.0267097056,42.9780044556,41.0717697144,73.5447921753,0.0622773170,-0.0091539621,0.0005864501,
114.543,-3.3037652969,1.3957132101,11.9367990494,0.0604901984,0.0434524082,0.0083073378,-111.2642898560,72.8240661621,43.6011276245,0.0291329622,0.0675539374,0.0185640454,17.2132682800,83.3163375854,87.5984039307,0.0215241909,0.0187239349,0.0242765546,42.9778556824,41.0744247437,73.5520858765,0.0642654300,-0.0115730762,-0.0120876431,
114.553,-3.3002126217,1.3952592611,11.9380474091,0.0595057122,0.0526678748,0.0053737760,-111.2664871216,72.8250198364,43.6026420593,0.0257199407,0.0611876845,0.0097796917,17.2182044983,83.3180389404,87.6118927002,0.0239690542,0.0236060619,0.0150316954,42.9764785767,41.0748901367,73.5584564209,0.0628066659,-0.0144858360,-0.0033068657,
114.563,-3.3002488613,1.3966144323,11.9391660690,0.0575762317,0.0443676971,0.0092807412,-111.2664184570,72.8255386353,43.6075401306,0.0310936570,0.0641085505,0.0195421576,17.2215404510,83.3186874390,87.6240463257,0.0220172405,0.0201844275,0.0194373727,42.9807128906,41.0753326416,73.5668106079,0.0686718225,-0.0106170774,-0.0071721077,
114.573,-3.3035943508,1.3968573809,11.9389877319,0.0614867210,0.0327072144,0.0166083574,-111.2706298828,72.8299636841,43.6083717346,0.0257453918,0.0659868419,0.0112346411,17.2152271271,83.3194427490,87.6258316040,0.0273898840,0.0177595913,0.0170058310,42.9787178040,41.0761337280,73.5720214844,0.0677058697,-0.0198687911,-0.0062059164,
114.583,-3.3048324585,1.3987579346,11.9418706894,0.0581019148,0.0400529578,0.0068444610,-111.2677917480,72.8310852051,43.6166038513,0.0272160172,0.0640203059,0.0146322846,17.2010307312,83.3192749023,87.6203231812,0.0259246826,0.0202279687,0.0213883817,42.9773216248,41.0761528015,73.5777206421,0.0716123581,-0.0159490705,-0.0076838732,
114.593,-3.3020393848,1.3981666565,11.9424686432,0.0619978458,0.0522113554,0.0053768754,-111.2695922852,72.8315429688,43.6202545166,0.0350308418,0.0630335510,0.0121968985,17.1820774078,83.3195648193,87.6102066040,0.0288549662,0.0178249776,0.0223563612,42.9789237976,41.0758247375,73.5834579468,0.0730729103,-0.0159669518,-0.0110899210,
114.603,-3.3011636734,1.3968940973,11.9424686432,0.0600225180,0.0434070639,0.0068401694,-111.2650756836,72.8305664063,43.6290130615,0.0345375538,0.0586625338,0.0131575465,17.1620750427,83.3183059692,87.5951004028,0.0273875594,0.0173707008,0.0208627284,42.9763641357,41.0773124695,73.5862808228,0.0667448044,-0.0188604593,-0.0076823235,
114.613,-3.3052248955,1.3960565329,11.9441490173,0.0634258762,0.0322473608,0.0141682029,-111.2694549561,72.8328475952,43.6282501221,0.0286899209,0.0669200122,0.0116999745,17.1716995239,83.3140182495,87.6116027832,0.0337265134,0.0261188745,0.0310510397,42.9793586731,41.0763206482,73.5937347412,0.0711262822,-0.0071782470,-0.0110818148,
114.623,-3.3052594662,1.3953840733,11.9453716278,0.0580430478,0.0444550104,0.0029376149,-111.2811660767,72.8350906372,43.6182670593,0.0306546092,0.0707693100,0.0010007024,17.1965293884,83.3146362305,87.6464691162,0.0224972963,0.0226552784,0.0247296393,42.9822158813,41.0775184631,73.6044311523,0.0672357678,-0.0052433014,-0.0022571087,
114.633,-3.3067147732,1.3969466686,11.9476556778,0.0590468757,0.0415506288,0.0034276843,-111.2897338867,72.8377304077,43.6165122986,0.0243205428,0.0716888607,0.0107916594,17.2198009491,83.3139877319,87.6827468872,0.0249373913,0.0265117884,0.0183832049,42.9806289673,41.0787010193,73.6126022339,0.0613920093,-0.0140077472,-0.0095852613,
114.643,-3.3043754101,1.3974983692,11.9494075775,0.0605213419,0.0483458042,0.0092851520,-111.3016967773,72.8384017944,43.6194381714,0.0272536874,0.0643318892,0.0088920593,17.2211627960,83.3130493164,87.6975555420,0.0264003277,0.0245516598,0.0188587010,42.9773445129,41.0787277222,73.6192550659,0.0648102760,-0.0169056654,-0.0042436123,
114.653,-3.3058850765,1.3977277279,11.9510660172,0.0639433116,0.0390947536,0.0131929517,-111.3088684082,72.8399887085,43.6245841980,0.0306798220,0.0608761013,0.0103818774,17.2173786163,83.3109970093,87.7042617798,0.0263961554,0.0225956738,0.0237058699,42.9778862000,41.0784225464,73.6258697510,0.0643180013,-0.0125187635,-0.0086358786,
114.663,-3.3055038452,1.3995610476,11.9515848160,0.0556745231,0.0459240042,0.0058690906,-111.3264999390,72.8382797241,43.6154327393,0.0301827788,0.0598927140,-0.0031949282,17.2178840637,83.3153686523,87.7151794434,0.0210339427,0.0265228450,0.0159644186,42.9770507813,41.0780944824,73.6325683594,0.0687082410,-0.0125132203,-0.0032750368,
114.673,-3.3005003929,1.4008269310,11.9527797699,0.0576497316,0.0556024462,0.0014702678,-111.3213806152,72.8400268555,43.6230468750,0.0262855291,0.0593876243,0.0123948455,17.2060623169,83.3131713867,87.7106628418,0.0278654099,0.0245821178,0.0251993835,42.9805793762,41.0782012939,73.6419906616,0.0652916431,-0.0066870451,-0.0056838989,
114.683,-3.2984428406,1.4016489983,11.9527254105,0.0571757928,0.0453126803,0.0131872892,-111.3134689331,72.8440475464,43.6307106018,0.0297241807,0.0612927377,0.0157505870,17.1771793365,83.3140487671,87.6899337769,0.0283554792,0.0173193216,0.0256844759,42.9760704041,41.0809745789,73.6440048218,0.0658164024,-0.0217586756,-0.0096073151,
114.693,-3.2997438908,1.4021412134,11.9526643753,0.0581609458,0.0443587601,0.0078177452,-111.3125686646,72.8475570679,43.6321220398,0.0341367722,0.0670993924,0.0137718320,17.1527843475,83.3163375854,87.6695785522,0.0268952847,0.0120072365,0.0154505074,42.9768371582,41.0828399658,73.6483001709,0.0633995533,-0.0134506822,-0.0130026340,
114.703,-3.3019165993,1.4002318382,11.9538021088,0.0674049705,0.0409786925,0.0219789147,-111.3159027100,72.8499984741,43.6288986206,0.0287782550,0.0641261041,0.0074254274,17.1736183167,83.3166275024,87.6964721680,0.0249427557,0.0280812681,0.0179109275,42.9786338806,41.0850868225,73.6541213989,0.0717298985,-0.0173566341,-0.0134558678,
114.713,-3.3071146011,1.4040584564,11.9534835815,0.0547764301,0.0288621150,-0.0014511943,-111.3220748901,72.8538436890,43.6225624084,0.0322160125,0.0684496164,0.0108498335,17.1532878876,83.3152770996,87.6860504150,0.0293345451,0.0193252861,0.0232468545,42.9791336060,41.0875778198,73.6579513550,0.0673680902,-0.0168537498,-0.0051299334,
114.723,-3.3064882755,1.3995866776,11.9552516937,0.0761827826,0.0444763117,0.0127058625,-111.3252029419,72.8527221680,43.6244964600,0.0326985121,0.0645541847,0.0084303021,17.1916122437,83.3116989136,87.7327880859,0.0273741484,0.0353454053,0.0276082158,42.9770927429,41.0885963440,73.6625061035,0.0693346858,-0.0080370903,0.0002309084,
114.733,-3.3063230515,1.4025866985,11.9557142258,0.0537741892,0.0430085137,0.0073361397,-111.3287963867,72.8522109985,43.6264114380,0.0239068270,0.0601606369,0.0167514682,17.1855144501,83.3112869263,87.7367248535,0.0298147202,0.0197298825,0.0207597911,42.9753379822,41.0862808228,73.6689300537,0.0707690120,-0.0109679103,0.0031260848,
114.743,-3.3080863953,1.4007334709,11.9568367004,0.0649723262,0.0337619372,0.0205203295,-111.3330993652,72.8509521484,43.6309509277,0.0317128301,0.0606604517,0.0148267150,17.1800651550,83.3127593994,87.7429046631,0.0229817629,0.0231665671,0.0188294649,42.9750480652,41.0849037170,73.6752853394,0.0712392330,-0.0119525194,-0.0037245750,
114.753,-3.3065063953,1.4008848667,11.9580078125,0.0596038699,0.0478945635,0.0078241825,-111.3458251953,72.8483886719,43.6247558594,0.0312113762,0.0582354069,0.0070908070,17.1713943481,83.3145217896,87.7443084717,0.0229853392,0.0212386847,0.0256859958,42.9746475220,41.0868721008,73.6834106445,0.0639408231,-0.0158395171,-0.0115238428,
114.763,-3.3089201450,1.4014277458,11.9597654343,0.0561953709,0.0381709710,0.0073381066,-111.3502883911,72.8482666016,43.6253280640,0.0287693143,0.0650649071,0.0163903832,17.1569480896,83.3154525757,87.7396087646,0.0312880278,0.0232253969,0.0208111405,42.9742698669,41.0895996094,73.6918334961,0.0678830147,-0.0177676678,-0.0124806166,
114.773,-3.3076744080,1.4027799368,11.9608793259,0.0596369356,0.0488914326,0.0063609481,-111.3539276123,72.8467254639,43.6285552979,0.0326676369,0.0626404285,0.0090931654,17.1690311432,83.3142242432,87.7602310181,0.0293323994,0.0290549099,0.0251936018,42.9759025574,41.0886459351,73.7000350952,0.0664056540,-0.0104665756,-0.0027085543,
114.783,-3.3085293770,1.4051554203,11.9613685608,0.0538190082,0.0415820405,0.0073395371,-111.3521347046,72.8500366211,43.6362800598,0.0331729650,0.0660102665,0.0173651576,17.1797103882,83.3156585693,87.7771606445,0.0244525075,0.0231816173,0.0178989172,42.9772567749,41.0899848938,73.7073822021,0.0625169873,-0.0114457607,-0.0056148767,
114.793,-3.3084294796,1.4073005915,11.9636583328,0.0572744086,0.0425568111,0.0117347240,-111.3492126465,72.8515396118,43.6455612183,0.0297627449,0.0630630255,0.0119709373,17.1711120605,83.3176879883,87.7784805298,0.0239683390,0.0207672715,0.0179263949,42.9763069153,41.0910873413,73.7121429443,0.0693674088,-0.0172874331,-0.0041496754,
114.803,-3.3096485138,1.4105262756,11.9665384293,0.0534244403,0.0401365608,0.0053898692,-111.3433837891,72.8547821045,43.6553382874,0.0336856842,0.0630237460,0.0192474127,17.1588287354,83.3171539307,87.7755584717,0.0205492973,0.0198121667,0.0271872878,42.9748840332,41.0920257568,73.7171707153,0.0635203719,-0.0143365860,-0.0085484982,
114.813,-3.3054687977,1.4122296572,11.9670066833,0.0627315044,0.0527590215,0.0107570887,-111.3459014893,72.8588562012,43.6562919617,0.0273589492,0.0653972626,0.0133756399,17.1737270355,83.3205642700,87.8003997803,0.0225093365,0.0222416818,0.0189524889,42.9749832153,41.0914115906,73.7238540649,0.0698599815,-0.0094596744,-0.0061119795,
114.823,-3.3041188717,1.4138535261,11.9693965912,0.0549473315,0.0468760841,0.0166163445,-111.3571166992,72.8605194092,43.6486816406,0.0332269073,0.0643737912,0.0070717335,17.1911010742,83.3215637207,87.8265075684,0.0239762068,0.0251415968,0.0165356100,42.9705314636,41.0908927917,73.7284011841,0.0664352179,-0.0128386021,-0.0012725592,
114.833,-3.3036789894,1.4144512415,11.9717140198,0.0627702624,0.0458918512,0.0131978393,-111.3477783203,72.8649215698,43.6626281738,0.0293433070,0.0662761331,0.0221368670,17.2019023895,83.3202133179,87.8465499878,0.0259265900,0.0270668268,0.0282395780,42.9731903076,41.0941925049,73.7376251221,0.0659902692,-0.0128387213,-0.0114760399,
114.843,-3.3060972691,1.4131199121,11.9734010696,0.0671415627,0.0381215103,0.0097818971,-111.3551864624,72.8656997681,43.6602516174,0.0278824568,0.0603913069,0.0060544014,17.1952419281,83.3224411011,87.8497390747,0.0151889324,0.0217205286,0.0199728608,42.9701881409,41.0946922302,73.7429809570,0.0674617290,-0.0181768537,-0.0051501989,
114.853,-3.3073987961,1.4114102125,11.9739580154,0.0617406406,0.0357028171,0.0088059306,-111.3650054932,72.8659896851,43.6561203003,0.0347198844,0.0632976890,0.0046350956,17.1879863739,83.3188018799,87.8505783081,0.0254354477,0.0241574645,0.0321145058,42.9679260254,41.0941467285,73.7479782104,0.0698958635,-0.0206008554,-0.0022462010,
114.863,-3.3075792789,1.4105361700,11.9763860703,0.0592839830,0.0415653586,0.0117350221,-111.3716278076,72.8654479980,43.6539001465,0.0312991142,0.0632936954,0.0071116090,17.1915416718,83.3193893433,87.8604507446,0.0249483585,0.0212239027,0.0233377516,42.9659233093,41.0946578979,73.7528228760,0.0708792210,-0.0161828995,-0.0037239790,
114.873,-3.3036782742,1.4094635248,11.9794683456,0.0621949546,0.0537044592,0.0097778440,-111.3709030151,72.8659210205,43.6566696167,0.0327664018,0.0608461201,0.0154059529,17.1802177429,83.3181533813,87.8560180664,0.0312935114,0.0192869008,0.0237991810,42.9686203003,41.0948219299,73.7613906860,0.0699048042,-0.0132780075,-0.0110232830,
114.883,-3.3034939766,1.4113134146,11.9799661636,0.0578327030,0.0473535471,0.0083136559,-111.3622589111,72.8677749634,43.6667442322,0.0322876573,0.0622987449,0.0197478533,17.1863536835,83.3168945313,87.8702774048,0.0254315734,0.0226864517,0.0267122090,42.9678382874,41.0940666199,73.7667770386,0.0674534440,-0.0137645006,-0.0066412687,
114.893,-3.3047311306,1.4119055271,11.9810867310,0.0602844395,0.0444453955,0.0102682114,-111.3698348999,72.8678817749,43.6613960266,0.0347296000,0.0652126074,0.0031819940,17.1979713440,83.3149261475,87.8904953003,0.0220096111,0.0280249417,0.0286411643,42.9698638916,41.0950927734,73.7745666504,0.0674669743,-0.0132878423,-0.0100332499,
114.903,-3.3058259487,1.4144920111,11.9815111160,0.0549584739,0.0366519056,-0.0014483333,-111.3711318970,72.8685760498,43.6617851257,0.0278972387,0.0676403046,0.0129497647,17.2113971710,83.3140487671,87.9137802124,0.0220078230,0.0260407031,0.0208217800,42.9708900452,41.0966987610,73.7807922363,0.0630935431,-0.0098671317,-0.0104986429,
114.913,-3.3091819286,1.4141093493,11.9825954437,0.0637408644,0.0391517766,0.0112503767,-111.3709564209,72.8686676025,43.6661338806,0.0303391218,0.0603164434,0.0139246583,17.2190189362,83.3149261475,87.9288253784,0.0229861736,0.0231002569,0.0159573555,42.9687652588,41.0954666138,73.7876281738,0.0689367056,-0.0152274370,0.0026559234,
114.923,-3.3090140820,1.4126805067,11.9838571548,0.0607862398,0.0494027957,0.0058783889,-111.3718643188,72.8676681519,43.6712417603,0.0308222771,0.0613055229,0.0114938617,17.2419509888,83.3157730103,87.9610443115,0.0239644647,0.0255007744,0.0179384053,42.9692077637,41.0944671631,73.7959060669,0.0664821863,-0.0069387555,-0.0027197599,
114.933,-3.3104200363,1.4131094217,11.9861421585,0.0632351339,0.0416147709,0.0097861290,-111.3724899292,72.8649291992,43.6794967651,0.0308082104,0.0628116429,0.0100485086,17.2551918030,83.3164825439,87.9847640991,0.0225010514,0.0245019794,0.0194240510,42.9692497253,41.0945854187,73.8021087646,0.0689251423,-0.0093795657,-0.0036949515,
114.943,-3.3099505901,1.4121438265,11.9867248535,0.0593120307,0.0396534950,0.0141798854,-111.3866195679,72.8650512695,43.6728935242,0.0269025564,0.0618067980,0.0032798052,17.2656993866,83.3146667480,88.0057907104,0.0249387622,0.0259366035,0.0237940252,42.9707527161,41.0940208435,73.8110046387,0.0684294701,-0.0084218383,-0.0046626925,
114.953,-3.3100013733,1.4110579491,11.9896888733,0.0641759038,0.0420958139,0.0044139624,-111.3825378418,72.8638153076,43.6855812073,0.0298258662,0.0613462329,0.0159628987,17.2891883850,83.3178024292,88.0396881104,0.0239685774,0.0259064436,0.0101886392,42.9680023193,41.0936737061,73.8158416748,0.0625655055,-0.0157223344,-0.0022489429,
114.963,-3.3105475903,1.4111579657,11.9926776886,0.0602713972,0.0445467308,0.0112499595,-111.3913955688,72.8663024902,43.6841392517,0.0283738375,0.0637315214,0.0072014332,17.3084011078,83.3183059692,88.0687561035,0.0254344344,0.0288003087,0.0175306797,42.9663887024,41.0912475586,73.8203506470,0.0713226795,-0.0103546381,-0.0013072491,
114.973,-3.3112692833,1.4120690823,11.9949274063,0.0612638518,0.0377233475,0.0019744635,-111.3940811157,72.8666763306,43.6858940125,0.0303288698,0.0603028238,0.0077003241,17.2994785309,83.3165664673,88.0709609985,0.0234777927,0.0185555518,0.0233579576,42.9669265747,41.0921897888,73.8258132935,0.0640108585,-0.0167001486,-0.0100835562,
114.983,-3.3095037937,1.4103273153,11.9979476929,0.0646514371,0.0440402888,0.0127133131,-111.4070968628,72.8677749634,43.6763725281,0.0298462510,0.0646556914,-0.0000563860,17.2694168091,83.3142776489,88.0503997803,0.0239614248,0.0166498125,0.0325783491,42.9666404724,41.0912742615,73.8304061890,0.0669284463,-0.0118218064,-0.0032578707,
114.993,-3.3100545406,1.4147162437,11.9976882935,0.0574037880,0.0469794646,0.0088101625,-111.4091873169,72.8692474365,43.6772117615,0.0337600708,0.0607227385,0.0106869936,17.2611408234,83.3127288818,88.0502166748,0.0229817033,0.0195881426,0.0232715011,42.9671020508,41.0917053223,73.8368911743,0.0679107308,-0.0088930726,-0.0047147870,
115.003,-3.3084545135,1.4156436920,11.9987993240,0.0613262244,0.0479281321,0.0122268796,-111.4115982056,72.8708953857,43.6773757935,0.0293740034,0.0645997226,0.0097119212,17.2747287750,83.3133697510,88.0711669922,0.0254244208,0.0254240930,0.0154781938,42.9690284729,41.0919303894,73.8445358276,0.0679135919,-0.0142810345,-0.0071371794,
115.013,-3.3074769974,1.4170489311,11.9987154007,0.0569562092,0.0459579453,0.0029488206,-111.4090499878,72.8702545166,43.6818275452,0.0313238502,0.0607069731,0.0092154741,17.2725238800,83.3131103516,88.0770645142,0.0249356031,0.0205443203,0.0203554034,42.9649047852,41.0897941589,73.8488311768,0.0713035464,-0.0118165612,0.0045267344,
115.023,-3.3062076569,1.4174422026,12.0022745132,0.0613576025,0.0444709808,0.0068541765,-111.4110412598,72.8700942993,43.6835937500,0.0308347344,0.0626604259,0.0111788511,17.2958087921,83.3163070679,88.1096572876,0.0317780375,0.0249090195,0.0135853291,42.9615058899,41.0856361389,73.8515548706,0.0732019544,-0.0108398199,0.0020200014,
115.033,-3.3058202267,1.4164533615,12.0034818649,0.0593872257,0.0415345691,0.0102714300,-111.4177474976,72.8699645996,43.6826210022,0.0264395475,0.0631371737,0.0126768947,17.3053150177,83.3153915405,88.1260147095,0.0234754086,0.0253739655,0.0277365148,42.9605484009,41.0863647461,73.8580856323,0.0693053007,-0.0171725154,-0.0043302774,
115.043,-3.3060641289,1.4177634716,12.0057458878,0.0642929003,0.0478864387,0.0058773756,-111.4040908813,72.8698043823,43.7003211975,0.0322980881,0.0636533499,0.0223779082,17.3170394897,83.3157501221,88.1482620239,0.0239644051,0.0199818015,0.0121255219,42.9608955383,41.0871696472,73.8648834229,0.0702924132,-0.0113102198,-0.0092029572,
115.053,-3.3066005707,1.4179651737,12.0062370300,0.0638081357,0.0469192192,0.0136910081,-111.4061737061,72.8667221069,43.7023544312,0.0313056707,0.0597917140,0.0121526122,17.3210067749,83.3149871826,88.1597900391,0.0244511366,0.0233871639,0.0199242532,42.9591979980,41.0831298828,73.8688049316,0.0775635242,-0.0118137598,-0.0087643862,
115.063,-3.3061733246,1.4166485071,12.0086669922,0.0608554780,0.0415407158,0.0122246146,-111.4152526855,72.8678817749,43.6984062195,0.0298467875,0.0626863241,0.0117009282,17.3156490326,83.3172760010,88.1642456055,0.0254323483,0.0214571953,0.0199620724,42.9614181519,41.0849037170,73.8792495728,0.0697743893,-0.0103563070,-0.0126352310,
115.073,-3.3063247204,1.4158929586,12.0092115402,0.0627954155,0.0439847782,0.0117363334,-111.4171371460,72.8674621582,43.7035789490,0.0293563604,0.0626887083,0.0078063607,17.3154678345,83.3169250488,88.1740112305,0.0288496017,0.0219439864,0.0238623023,42.9606704712,41.0828323364,73.8857498169,0.0658408403,-0.0108537674,-0.0028944016,
115.083,-3.3039531708,1.4145870209,12.0092306137,0.0622843541,0.0507794395,0.0068505406,-111.4204940796,72.8697967529,43.7054634094,0.0313214660,0.0645993948,0.0146442056,17.3048915863,83.3177413940,88.1733779907,0.0288512707,0.0209918618,0.0175193846,42.9603996277,41.0826148987,73.8916702271,0.0663263202,-0.0098761320,0.0005201101,
115.093,-3.3011209965,1.4155695438,12.0091295242,0.0583952442,0.0438941382,0.0019654632,-111.4308929443,72.8693389893,43.7014389038,0.0279011726,0.0592160225,0.0029781461,17.3322353363,83.3201446533,88.2088165283,0.0254381895,0.0229037404,0.0141589046,42.9616622925,41.0835838318,73.9004745483,0.0717101097,-0.0137871504,-0.0131334066,
115.103,-3.3010542393,1.4138635397,12.0103311539,0.0617834479,0.0404750481,0.0068474412,-111.4358978271,72.8706054688,43.7013168335,0.0318139195,0.0621164739,0.0093420744,17.3173503876,83.3197402954,88.2043609619,0.0288553238,0.0248841345,0.0278151035,42.9583282471,41.0836563110,73.9049606323,0.0653634071,-0.0142425895,-0.0024194717,
115.113,-3.3033483028,1.4144016504,12.0120534897,0.0603279918,0.0429564044,0.0024555922,-111.4365692139,72.8724594116,43.7055244446,0.0244992375,0.0606217980,0.0112872124,17.3178825378,83.3227996826,88.2149734497,0.0259318352,0.0190387070,0.0156559944,42.9602661133,41.0860214233,73.9131622314,0.0668593645,-0.0132663846,-0.0155665874,
115.123,-3.3049569130,1.4162597656,12.0118160248,0.0618252568,0.0390781313,0.0044107437,-111.4371337891,72.8718109131,43.7111358643,0.0313318372,0.0620959699,0.0122702122,17.3205204010,83.3237991333,88.2261581421,0.0269104242,0.0253866315,0.0234881639,42.9579925537,41.0867729187,73.9167785645,0.0654044151,-0.0127501488,0.0005335808,
115.133,-3.3020141125,1.4139971733,12.0137128830,0.0617857799,0.0483042672,0.0088019371,-111.4415588379,72.8745346069,43.7119827271,0.0332989693,0.0625333488,0.0122750998,17.3134670258,83.3234710693,88.2279434204,0.0249566436,0.0190511942,0.0273846984,42.9516906738,41.0864105225,73.9179840088,0.0668644905,-0.0200167298,0.0004729033,
115.143,-3.3015604019,1.4173327684,12.0147686005,0.0550080389,0.0439017527,0.0122200251,-111.4414062500,72.8725509644,43.7177391052,0.0332887769,0.0562166870,0.0088684559,17.3013973236,83.3227386475,88.2246170044,0.0254434347,0.0195594132,0.0229704976,42.9491882324,41.0843276978,73.9237976074,0.0668370724,-0.0136610270,-0.0054256916,
115.153,-3.3006584644,1.4173860550,12.0146989822,0.0598917827,0.0433977582,0.0136846304,-111.4332504272,72.8744812012,43.7294654846,0.0313455462,0.0596202016,0.0234659910,17.2902240753,83.3233489990,88.2227859497,0.0303274989,0.0205611885,0.0239505172,42.9479675293,41.0833206177,73.9292907715,0.0653589964,-0.0107274652,-0.0039799213,
115.163,-3.3001232147,1.4153771400,12.0165176392,0.0652278215,0.0463181734,0.0097765326,-111.4305648804,72.8770065308,43.7369422913,0.0279405713,0.0644688606,0.0156252384,17.2904720306,83.3264389038,88.2319107056,0.0278923512,0.0161818266,0.0171650946,42.9465179443,41.0814132690,73.9345169067,0.0697284341,-0.0151229501,-0.0005915165,
115.173,-3.3002529144,1.4163820744,12.0200386047,0.0613391101,0.0438789986,0.0063593388,-111.4286117554,72.8795242310,43.7424201965,0.0323480368,0.0619920790,0.0141357183,17.2922630310,83.3246765137,88.2417373657,0.0269122124,0.0234935582,0.0244616270,42.9493255615,41.0794448853,73.9414596558,0.0706790686,-0.0078411698,-0.0088832974,
115.183,-3.2989857197,1.4173555374,12.0211782455,0.0589146875,0.0467865951,0.0092881918,-111.4344711304,72.8804092407,43.7409400940,0.0347939730,0.0619679391,0.0078108311,17.3160991669,83.3254928589,88.2730331421,0.0274021626,0.0249157250,0.0176538229,42.9484138489,41.0806236267,73.9482192993,0.0623938441,-0.0156357288,-0.0098581314,
115.193,-3.2980916500,1.4176770449,12.0217161179,0.0608734228,0.0477475710,0.0034280419,-111.4392623901,72.8844528198,43.7394828796,0.0318850875,0.0672671199,0.0073209405,17.2926673889,83.3242034912,88.2572097778,0.0278878212,0.0151893795,0.0239650905,42.9502563477,41.0806770325,73.9575881958,0.0721601248,-0.0058873892,-0.0020287037,
115.203,-3.2968642712,1.4179589748,12.0222873688,0.0589252152,0.0467496216,0.0048917532,-111.4434127808,72.8844680786,43.7408027649,0.0318851471,0.0638411641,0.0112469792,17.2885360718,83.3203582764,88.2619094849,0.0234854817,0.0195727050,0.0322012305,42.9499168396,41.0798339844,73.9652786255,0.0701959729,-0.0122384429,-0.0020393133,
115.213,-3.2980477810,1.4178477526,12.0221996307,0.0603881180,0.0404225849,0.0112406611,-111.4434051514,72.8852462769,43.7437553406,0.0309125781,0.0633406639,0.0200313330,17.2849845886,83.3167495728,88.2669525146,0.0210367441,0.0259096026,0.0336072147,42.9497032166,41.0789566040,73.9716644287,0.0701844096,-0.0127313137,-0.0049775243,
115.223,-3.2987532616,1.4167608023,12.0239534378,0.0662285239,0.0462942682,0.0083108544,-111.4447860718,72.8859710693,43.7459754944,0.0343342423,0.0662568212,0.0131976604,17.2653656006,83.3180389404,88.2554626465,0.0244573355,0.0186303258,0.0218964815,42.9521179199,41.0806427002,73.9804763794,0.0677651763,-0.0098118782,-0.0122667551,
115.233,-3.3016211987,1.4182664156,12.0219058990,0.0603954233,0.0370668508,0.0000139475,-111.4481201172,72.8871765137,43.7473182678,0.0299459696,0.0672081709,0.0146711469,17.2719821930,83.3161849976,88.2712326050,0.0254301429,0.0259322822,0.0199178457,42.9562606812,41.0784606934,73.9885253906,0.0657833219,0.0003852248,-0.0000400543,
115.243,-3.3014247417,1.4195793867,12.0217838287,0.0594417676,0.0453641787,0.0039205551,-111.4445037842,72.8891601563,43.7552337646,0.0304443836,0.0652309060,0.0219659805,17.2674865723,83.3136901855,88.2763366699,0.0268899202,0.0161624551,0.0276851952,42.9578208923,41.0776290894,73.9973373413,0.0647958517,-0.0108669400,-0.0000340939,
115.253,-3.3020160198,1.4182976484,12.0229597092,0.0643022209,0.0468393490,-0.0004739165,-111.4494934082,72.8894958496,43.7536392212,0.0289812684,0.0652169287,0.0063626766,17.2728939056,83.3159255981,88.2903518677,0.0215233564,0.0234875083,0.0179601312,42.9583015442,41.0758666992,74.0046157837,0.0642843246,-0.0084438920,-0.0049264431,
115.263,-3.3059017658,1.4185785055,12.0246276855,0.0613774285,0.0351882763,0.0068542361,-111.4478836060,72.8902893066,43.7621116638,0.0319150686,0.0637424886,0.0126978159,17.2619552612,83.3159255981,88.2886962891,0.0249413252,0.0215559900,0.0203949511,42.9562873840,41.0763130188,74.0106658936,0.0638019443,-0.0162335038,-0.0064061880,
115.273,-3.3061242104,1.4180504084,12.0251855850,0.0618565008,0.0459343530,0.0078309178,-111.4534988403,72.8892440796,43.7633552551,0.0280034542,0.0617945492,0.0073602200,17.2384319305,83.3128738403,88.2732391357,0.0273765326,0.0191456079,0.0252139866,42.9530525208,41.0765304565,74.0155792236,0.0633165240,-0.0181537271,-0.0054564476,
115.283,-3.3045635223,1.4170471430,12.0252504349,0.0589093044,0.0522548519,0.0014812946,-111.4576721191,72.8889236450,43.7637863159,0.0333728790,0.0632579625,0.0078701973,17.2186870575,83.3131713867,88.2622299194,0.0268888474,0.0196742415,0.0266712904,42.9557495117,41.0756492615,74.0233764648,0.0769767761,-0.0113506913,-0.0083693266,
115.293,-3.3062510490,1.4160226583,12.0264339447,0.0613328405,0.0430069268,0.0009942055,-111.4517669678,72.8905410767,43.7745780945,0.0250803828,0.0598250329,0.0132033229,17.2358207703,83.3148651123,88.2867202759,0.0244508982,0.0279497206,0.0203614235,42.9587097168,41.0773849487,74.0335388184,0.0652809143,-0.0103890896,-0.0107696056,
115.303,-3.3059012890,1.4151417017,12.0282297134,0.0613174662,0.0434891395,0.0112473965,-111.4445190430,72.8892822266,43.7869186401,0.0309333205,0.0618112683,0.0136644244,17.2303295135,83.3163375854,88.2899932861,0.0244538784,0.0221080780,0.0218448043,42.9567985535,41.0760459900,74.0396499634,0.0652632713,-0.0108693838,-0.0010323524,
115.313,-3.3049693108,1.4150323868,12.0294151306,0.0583858714,0.0434729122,0.0083166361,-111.4477844238,72.8905410767,43.7874679565,0.0319163203,0.0617858171,0.0078130960,17.2033710480,83.3144302368,88.2727279663,0.0307976604,0.0211759210,0.0227774680,42.9594764709,41.0756492615,74.0472412109,0.0706291795,-0.0148044825,-0.0166367292,
115.323,-3.3053455353,1.4157724380,12.0304765701,0.0637698770,0.0454325639,0.0024576187,-111.4455490112,72.8935089111,43.7927322388,0.0241190791,0.0636973083,0.0136436224,17.2080497742,83.3131713867,88.2872695923,0.0264005661,0.0270191431,0.0227574706,42.9603576660,41.0748443604,74.0540847778,0.0725716949,-0.0074951053,-0.0083346367,
115.333,-3.3037328720,1.4165195227,12.0310306549,0.0574352592,0.0458927415,0.0092929602,-111.4515228271,72.8933944702,43.7919998169,0.0314427018,0.0641757250,0.0048840642,17.1955432892,83.3144607544,88.2845840454,0.0239617825,0.0241207480,0.0227711797,42.9584159851,41.0760192871,74.0594253540,0.0647746921,-0.0152797699,-0.0049248934,
115.343,-3.3055539131,1.4155898094,12.0328731537,0.0593721606,0.0444596410,0.0122236013,-111.4521484375,72.8956527710,43.7962379456,0.0265715122,0.0665810406,0.0141505599,17.1709518433,83.3144836426,88.2707748413,0.0259149671,0.0104976892,0.0256872177,42.9600982666,41.0757255554,74.0667877197,0.0720949769,-0.0074857473,-0.0112595558,
115.353,-3.3062360287,1.4141050577,12.0328531265,0.0608110987,0.0400770232,0.0083175302,-111.4589004517,72.8948364258,43.7933082581,0.0251024365,0.0612100661,0.0053988695,17.1824016571,83.3136062622,88.2908935547,0.0229834914,0.0290248692,0.0276309252,42.9585914612,41.0777664185,74.0737686157,0.0652859211,-0.0172209144,-0.0068612099,
115.363,-3.3064713478,1.4137783051,12.0345945358,0.0612936802,0.0415459722,0.0048997998,-111.4593887329,72.8959579468,43.7991676331,0.0285261869,0.0607034266,0.0166248083,17.1743450165,83.3139572144,88.2920761108,0.0229842067,0.0202539861,0.0188447237,42.9592666626,41.0790405273,74.0810165405,0.0682323575,-0.0098932385,-0.0039149523,
115.373,-3.3037092686,1.4145362377,12.0351343155,0.0593537763,0.0478455126,0.0034320354,-111.4656677246,72.8954467773,43.7980384827,0.0299884081,0.0626527667,0.0059158206,17.1800289154,83.3132858276,88.3071289063,0.0244476795,0.0246334970,0.0251831114,42.9573745728,41.0785446167,74.0867309570,0.0638313293,-0.0137850642,-0.0019830465,
115.383,-3.3029739857,1.4168115854,12.0367650986,0.0608583204,0.0449029505,0.0078271031,-111.4707336426,72.8943252563,43.7978744507,0.0314474702,0.0607073903,0.0083883405,17.1538600922,83.3154525757,88.2901000977,0.0220106840,0.0198139250,0.0193461180,42.9560775757,41.0765113831,74.0917816162,0.0672224760,-0.0098822117,-0.0005464554,
115.393,-3.3025135994,1.4182569981,12.0384788513,0.0569772869,0.0419652089,-0.0034030676,-111.4740219116,72.8938293457,43.8006820679,0.0275387168,0.0607089400,0.0030360818,17.1567726135,83.3150711060,88.3017730713,0.0327520967,0.0246880949,0.0217790306,42.9559059143,41.0770301819,74.0986251831,0.0638114214,-0.0142710209,-0.0088444352,
115.403,-3.3024666309,1.4152917862,12.0390491486,0.0686443001,0.0424527489,0.0171034336,-111.4782485962,72.8946762085,43.8016929626,0.0304727554,0.0621524453,0.0054926276,17.1656780243,83.3140487671,88.3168106079,0.0268906355,0.0246662199,0.0271423459,42.9597549438,41.0775947571,74.1082916260,0.0652836561,-0.0108858347,-0.0112472773,
115.413,-3.3014581203,1.4136139154,12.0389881134,0.0656853393,0.0439000614,0.0058712363,-111.4808654785,72.8959503174,43.8033256531,0.0309675336,0.0611516833,0.0108684301,17.1356487274,83.3131713867,88.2955093384,0.0210294724,0.0193493366,0.0266190469,42.9578285217,41.0758018494,74.1140899658,0.0657483339,-0.0138108730,-0.0054197311,
115.423,-3.3008611202,1.4134362936,12.0395574570,0.0583580248,0.0424248278,0.0039175153,-111.4834442139,72.8970489502,43.8051986694,0.0270669460,0.0596649051,0.0147803426,17.1476993561,83.3140182495,88.3143539429,0.0249374509,0.0222603381,0.0188311338,42.9604377747,41.0779685974,74.1215820313,0.0696830750,-0.0138190985,-0.0156321526,
115.433,-3.3011345863,1.4117290974,12.0396137238,0.0593047962,0.0458476022,0.0039169788,-111.4863204956,72.8973999023,43.8059120178,0.0299984217,0.0625838339,0.0108857751,17.1388759613,83.3109970093,88.3119735718,0.0234664679,0.0203085840,0.0290267467,42.9623527527,41.0802497864,74.1287002563,0.0667834282,-0.0128431916,-0.0155959129,
115.443,-3.3003783226,1.4120812416,12.0401554108,0.0588226616,0.0429047309,0.0092870593,-111.4924774170,72.8998641968,43.8041458130,0.0329407454,0.0688812435,0.0094354749,17.1489849091,83.3109436035,88.3292083740,0.0288374424,0.0285900235,0.0192700326,42.9668998718,41.0813941956,74.1389236450,0.0711930394,-0.0070186853,-0.0170103312,
115.453,-3.3014943600,1.4105459452,12.0431470871,0.0636786893,0.0404827967,0.0063581467,-111.5029678345,72.9024047852,43.7993202209,0.0324655175,0.0658924580,0.0065404773,17.1306591034,83.3102951050,88.3197021484,0.0234650373,0.0193449557,0.0241284966,42.9653854370,41.0799140930,74.1440811157,0.0662907362,-0.0138516426,0.0010299683,
115.463,-3.2991194725,1.4107652903,12.0443468094,0.0592879802,0.0506953336,0.0053793788,-111.5101547241,72.9034576416,43.7989845276,0.0270998478,0.0687921941,0.0104746222,17.1097049713,83.3077697754,88.3061828613,0.0263895988,0.0193741024,0.0294475853,42.9662818909,41.0807991028,74.1526107788,0.0692321062,-0.0089704394,-0.0067670345,
115.473,-3.2972533703,1.4101698399,12.0449008942,0.0617190003,0.0448034666,-0.0024352670,-111.5224456787,72.9022293091,43.7959671021,0.0285583735,0.0585347116,0.0051699877,17.1055240631,83.3065185547,88.3113250732,0.0278518796,0.0232816935,0.0216095448,42.9650154114,41.0804557800,74.1575164795,0.0672744513,-0.0162851214,-0.0004333258,
115.483,-3.2977235317,1.4111639261,12.0447940826,0.0607597828,0.0472530350,0.0097723007,-111.5239028931,72.9046554565,43.8031921387,0.0305239558,0.0648415089,0.0198106170,17.0924148560,83.3045806885,88.3069000244,0.0288245082,0.0179276168,0.0279210508,42.9640731812,41.0797500610,74.1627349854,0.0662885904,-0.0133520365,-0.0019133687,
115.493,-3.2983009815,1.4127062559,12.0459365845,0.0549273156,0.0423802473,0.0146567225,-111.5332794189,72.9042739868,43.8001708984,0.0300337076,0.0594593883,0.0042328835,17.0781650543,83.3047866821,88.3001785278,0.0288249254,0.0213741064,0.0244951546,42.9636077881,41.0765342712,74.1678771973,0.0696642399,-0.0138607621,-0.0019435287,
115.503,-3.2999343872,1.4119696617,12.0470714569,0.0627269670,0.0409438685,0.0083104372,-111.5375595093,72.9064941406,43.8012390137,0.0349279046,0.0633226633,0.0120523572,17.0757656097,83.3080673218,88.3047409058,0.0278550386,0.0184656084,0.0191762447,42.9657821655,41.0781898499,74.1757659912,0.0657798052,-0.0138688087,-0.0111882091,
115.513,-3.2998297215,1.4112422466,12.0476207733,0.0646673962,0.0492428467,0.0068449974,-111.5364608765,72.9072265625,43.8040542603,0.0280957222,0.0584303737,0.0110660195,17.0798187256,83.3055419922,88.3149719238,0.0278499126,0.0243045092,0.0245093107,42.9637451172,41.0763130188,74.1786346436,0.0701496005,-0.0128872991,-0.0043858290,
115.523,-3.3002040386,1.4100381136,12.0494289398,0.0622049868,0.0453431457,0.0044035316,-111.5333099365,72.9073333740,43.8067245483,0.0339556336,0.0598996878,0.0086088777,17.0758705139,83.3064270020,88.3164672852,0.0224806070,0.0262698531,0.0196384490,42.9660110474,41.0747833252,74.1840362549,0.0725708604,-0.0153625011,-0.0082846880,
115.533,-3.2984137535,1.4106224775,12.0505514145,0.0602620542,0.0443353876,0.0087965727,-111.5218200684,72.9103088379,43.8146247864,0.0339709520,0.0608516634,0.0129300952,17.0745239258,83.3039703369,88.3206558228,0.0312646627,0.0238186419,0.0205734968,42.9623680115,41.0750694275,74.1873474121,0.0657387376,-0.0123955011,-0.0034319758,
115.543,-3.2980008125,1.4117938280,12.0516376495,0.0602824911,0.0438398793,0.0068432093,-111.5201339722,72.9103851318,43.8135032654,0.0300650597,0.0623192787,0.0065739155,17.0905342102,83.3045501709,88.3429412842,0.0249181986,0.0218371749,0.0196176469,42.9615478516,41.0771865845,74.1933288574,0.0618603230,-0.0143241882,-0.0043987036,
115.553,-3.2983293533,1.4128987789,12.0526838303,0.0627431720,0.0433572978,0.0092856884,-111.5094299316,72.9111633301,43.8214797974,0.0310456157,0.0593976378,0.0162836313,17.0937843323,83.3009719849,88.3530426025,0.0278406143,0.0232773125,0.0220012069,42.9622001648,41.0770454407,74.1975326538,0.0657647252,-0.0084721446,-0.0073227882,
115.563,-3.2982385159,1.4119825363,12.0520381927,0.0607740656,0.0428674631,0.0063555837,-111.5018081665,72.9166030884,43.8288688660,0.0325383544,0.0705579519,0.0196319818,17.1040515900,83.2996597290,88.3688354492,0.0288144946,0.0252037942,0.0239402354,42.9672698975,41.0775375366,74.2040863037,0.0657712221,-0.0041227341,-0.0092273355,
115.573,-3.3009471893,1.4118667841,12.0549831390,0.0632134527,0.0434029251,0.0122175813,-111.5078964233,72.9164886475,43.8245353699,0.0276549459,0.0666424036,0.0030601025,17.1150341034,83.2976989746,88.3879013062,0.0195331573,0.0256605148,0.0292859972,42.9666442871,41.0778312683,74.2097930908,0.0701696277,-0.0187627077,-0.0077649355,
115.583,-3.3014712334,1.4112389088,12.0555372238,0.0622259304,0.0448769107,0.0083115101,-111.4982833862,72.9174118042,43.8376388550,0.0359604359,0.0612745285,0.0176571012,17.0952072144,83.2958908081,88.3792495728,0.0312482119,0.0203195810,0.0282678604,42.9660491943,41.0787010193,74.2166671753,0.0623685718,-0.0109378099,-0.0023924112,
115.593,-3.2992091179,1.4123545885,12.0561113358,0.0558977425,0.0482554473,0.0009856224,-111.4957046509,72.9175567627,43.8459892273,0.0325432420,0.0617654324,0.0181320310,17.0999736786,83.2962341309,88.3919677734,0.0273426771,0.0266595781,0.0214405060,42.9639930725,41.0798034668,74.2235870361,0.0662893653,-0.0148155093,-0.0009359121,
115.603,-3.2974212170,1.4134197235,12.0591106415,0.0568928905,0.0462711491,0.0117264390,-111.4972457886,72.9159088135,43.8527984619,0.0291168094,0.0642294884,0.0161963701,17.0860652924,83.2964782715,88.3879699707,0.0268548727,0.0203405917,0.0238773227,42.9656639099,41.0783195496,74.2302322388,0.0691994429,-0.0124019384,-0.0116764307,
115.613,-3.2993042469,1.4156110287,12.0613164902,0.0613256544,0.0399562381,0.0092878938,-111.5092086792,72.9146041870,43.8488426208,0.0330163836,0.0681333542,0.0089372993,17.0569496155,83.2953262329,88.3699874878,0.0253877044,0.0184394121,0.0238412321,42.9650764465,41.0746574402,74.2381820679,0.0750106573,-0.0119365454,-0.0029228926,
115.623,-3.2990083694,1.4161092043,12.0617904663,0.0627991930,0.0433690436,0.0146588683,-111.5158538818,72.9162216187,43.8502426147,0.0305832624,0.0622367859,0.0089593530,17.0561351776,83.2985153198,88.3815231323,0.0253942013,0.0213867128,0.0126624405,42.9635581970,41.0758666992,74.2452392578,0.0667257905,-0.0153303742,-0.0082975626,
115.633,-3.2985236645,1.4154350758,12.0623550415,0.0622991472,0.0462903045,0.0058690310,-111.5226898193,72.9148483276,43.8518524170,0.0276465416,0.0646864772,0.0050941706,17.0655517578,83.3010406494,88.4021682739,0.0268641710,0.0213804841,0.0200325847,42.9607734680,41.0741233826,74.2494125366,0.0676794052,-0.0138524175,-0.0029661655,
115.643,-3.2983684540,1.4154056311,12.0647201538,0.0603455082,0.0428696387,0.0039157271,-111.5311660767,72.9147262573,43.8510360718,0.0335052609,0.0666257143,0.0070886016,17.0782756805,83.3020629883,88.4253997803,0.0268662572,0.0238020122,0.0200577080,42.9560203552,41.0738372803,74.2530288696,0.0696287155,-0.0157620311,-0.0025228262,
115.653,-3.2995574474,1.4194966555,12.0663299561,0.0565106422,0.0467964970,0.0034304261,-111.5427780151,72.9156570435,43.8475227356,0.0252093077,0.0670773983,0.0071384907,17.0830097198,83.3038482666,88.4420242310,0.0288230181,0.0203837156,0.0244845152,42.9573745728,41.0741310120,74.2615966797,0.0681677461,-0.0123547316,-0.0132502317,
115.663,-3.3008317947,1.4198896885,12.0669155121,0.0565174967,0.0443772748,0.0088031292,-111.5501480103,72.9148941040,43.8508148193,0.0295999050,0.0621925294,0.0076667666,17.0936546326,83.3019104004,88.4650115967,0.0273542404,0.0267001092,0.0195744336,42.9584121704,41.0756950378,74.2702941895,0.0618407130,-0.0143055320,-0.0127394199,
115.673,-3.3007538319,1.4206509590,12.0680484772,0.0575073436,0.0404696539,0.0092915893,-111.5768966675,72.9147949219,43.8372459412,0.0266696811,0.0636086762,-0.0014820695,17.0915870667,83.3011016846,88.4733200073,0.0224697590,0.0242591798,0.0239563584,42.9577064514,41.0734710693,74.2772369385,0.0735301971,-0.0060155392,-0.0039761066,
115.683,-3.2990128994,1.4203931093,12.0686378479,0.0584794059,0.0443455800,-0.0009646416,-111.5785293579,72.9164505005,43.8468666077,0.0325375795,0.0577203631,0.0170703530,17.1028747559,83.3020324707,88.4963073730,0.0302841663,0.0257063210,0.0200720131,42.9542312622,41.0727844238,74.2826232910,0.0642437935,-0.0142881274,0.0023350716,
115.693,-3.3005185127,1.4207472801,12.0697374344,0.0609269924,0.0414421149,0.0048970580,-111.5772171021,72.9161224365,43.8548202515,0.0359538794,0.0528451502,0.0112066865,17.1205234528,83.3020019531,88.5246047974,0.0258895755,0.0227411389,0.0171506107,42.9550170898,41.0745201111,74.2907943726,0.0657315254,-0.0133055449,-0.0122916698,
115.703,-3.3007810116,1.4188123941,12.0696973801,0.0647994801,0.0414467268,0.0151498914,-111.5912704468,72.9151992798,43.8452339172,0.0305780172,0.0562507808,-0.0004391670,17.1210365295,83.3024063110,88.5355300903,0.0254021287,0.0217660964,0.0171595812,42.9547996521,41.0758361816,74.2983856201,0.0667253733,-0.0142697096,-0.0132589340,
115.713,-3.3014047146,1.4185248613,12.0713853836,0.0633296221,0.0380396284,0.0058733225,-111.5900268555,72.9163665771,43.8490638733,0.0325371623,0.0562348962,0.0151726007,17.1153202057,83.3027343750,88.5390853882,0.0258910656,0.0232438147,0.0249736905,42.9523353577,41.0725631714,74.3040771484,0.0735181570,-0.0152482390,-0.0001255274,
115.723,-3.3006839752,1.4185885191,12.0724773407,0.0643072873,0.0448630191,0.0107554793,-111.5987625122,72.9204101563,43.8427124023,0.0310930610,0.0625034869,0.0068889856,17.1361846924,83.3047256470,88.5692977905,0.0224771500,0.0237008035,0.0147646368,42.9515724182,41.0724792480,74.3093109131,0.0686343312,-0.0206124783,-0.0069682598,
115.733,-3.3021874428,1.4172893763,12.0748825073,0.0628197789,0.0434243977,0.0088032484,-111.6051177979,72.9217987061,43.8402900696,0.0330532789,0.0634471178,0.0137466788,17.1317558289,83.3030853271,88.5729598999,0.0224738121,0.0212598145,0.0254771113,42.9515113831,41.0728912354,74.3151016235,0.0627803802,-0.0127962828,-0.0045247078,
115.743,-3.3012888432,1.4195015430,12.0758962631,0.0609052554,0.0434086882,0.0063615441,-111.6060333252,72.9233551025,43.8432502747,0.0257370472,0.0604907870,0.0142301321,17.1370296478,83.3007125854,88.5863037109,0.0293049216,0.0231907070,0.0234888196,42.9498443604,41.0709342957,74.3213043213,0.0695906281,-0.0152368546,-0.0030908585,
115.753,-3.3035714626,1.4186722040,12.0770816803,0.0608907826,0.0429601893,0.0078284740,-111.6026992798,72.9242324829,43.8495712280,0.0306243300,0.0599966049,0.0146967173,17.1330623627,83.2999877930,88.5905990601,0.0253971815,0.0183120072,0.0283570886,42.9516067505,41.0736465454,74.3289718628,0.0642551780,-0.0137677789,-0.0133061409,
115.763,-3.3040599823,1.4198364019,12.0781717300,0.0604228154,0.0449217968,0.0102711320,-111.6142883301,72.9232788086,43.8431053162,0.0311077237,0.0594998896,0.0005980730,17.1179351807,83.2982330322,88.5836563110,0.0229521990,0.0193096399,0.0312489271,42.9513816833,41.0744323730,74.3356781006,0.0701248646,-0.0176657438,-0.0089070797,
115.773,-3.3037285805,1.4217461348,12.0792379379,0.0575264506,0.0414980054,0.0014825463,-111.6146163940,72.9240112305,43.8462066650,0.0306231976,0.0629066825,0.0157316327,17.1004981995,83.2994537354,88.5760879517,0.0302789211,0.0198386908,0.0205167532,42.9539566040,41.0741157532,74.3428573608,0.0671910048,-0.0069508553,-0.0093748569,
115.783,-3.3030107021,1.4172604084,12.0805454254,0.0672138035,0.0449035838,0.0063621998,-111.6144180298,72.9241180420,43.8502006531,0.0276940465,0.0663234890,0.0113357306,17.0886821747,83.2995758057,88.5722503662,0.0234432220,0.0227923393,0.0205114782,42.9544296265,41.0757942200,74.3508148193,0.0681896210,-0.0157313347,-0.0137512088,
115.793,-3.3044502735,1.4187679291,12.0816831589,0.0550330803,0.0415106453,0.0141770244,-111.6178970337,72.9225616455,43.8525428772,0.0301274657,0.0643877089,0.0079437494,17.0904674530,83.2972869873,88.5833129883,0.0307627916,0.0242423117,0.0253584385,42.9541282654,41.0754547119,74.3565902710,0.0672086477,-0.0108482838,-0.0088738799,
115.803,-3.3027522564,1.4185371399,12.0840196609,0.0633298308,0.0439224876,0.0078276992,-111.6121368408,72.9230422974,43.8616790771,0.0306182504,0.0663437247,0.0191438794,17.1002540588,83.2986679077,88.6004867554,0.0288124681,0.0252063572,0.0195272863,42.9536972046,41.0728759766,74.3629302979,0.0720575452,-0.0084228516,-0.0030399561,
115.813,-3.3031439781,1.4168262482,12.0852270126,0.0618351400,0.0409996584,0.0078272820,-111.6118621826,72.9228744507,43.8675994873,0.0320822001,0.0678118169,0.0132842660,17.0957679749,83.2972335815,88.6047821045,0.0278329849,0.0188603997,0.0238958597,42.9539489746,41.0729522705,74.3689804077,0.0676639676,-0.0118427277,-0.0084083080,
115.823,-3.3049128056,1.4175848961,12.0875520706,0.0598952509,0.0424952991,0.0088061094,-111.6124801636,72.9219284058,43.8725471497,0.0315890908,0.0614774823,0.0113397241,17.1117095947,83.3005676270,88.6281051636,0.0200272799,0.0261697173,0.0137055218,42.9538764954,41.0731201172,74.3771667480,0.0691310763,-0.0167234540,-0.0064544678,
115.833,-3.3073191643,1.4196166992,12.0885915756,0.0594424233,0.0425371677,0.0078327656,-111.6067581177,72.9224624634,43.8803100586,0.0335449576,0.0634332597,0.0117974877,17.0923843384,83.3019104004,88.6200637817,0.0288190842,0.0154724121,0.0205513835,42.9545783997,41.0749588013,74.3851852417,0.0637841225,-0.0123213530,-0.0074089766,
115.843,-3.3102247715,1.4236757755,12.0895318985,0.0565835573,0.0386814214,0.0063725114,-111.6100692749,72.9207229614,43.8812408447,0.0340242982,0.0610125661,0.0025466681,17.1032218933,83.3012390137,88.6393737793,0.0297942758,0.0300960243,0.0215234458,42.9549713135,41.0749359131,74.3938598633,0.0632955432,-0.0098838806,-0.0078939199,
115.853,-3.3094713688,1.4237031937,12.0906963348,0.0600020029,0.0450159572,0.0068601370,-111.6158752441,72.9225616455,43.8802337646,0.0237798095,0.0643916428,0.0040279627,17.1055545807,83.2990188599,88.6509552002,0.0253952146,0.0247092843,0.0258835554,42.9535064697,41.0766296387,74.3998718262,0.0662475228,-0.0132744908,-0.0069161654,
115.863,-3.3107380867,1.4215322733,12.0931158066,0.0614289679,0.0357607342,0.0044189692,-111.6156616211,72.9230422974,43.8855209351,0.0311065316,0.0658488274,0.0113481879,17.1150493622,83.2998657227,88.6678619385,0.0283266306,0.0256712139,0.0234614313,42.9540519714,41.0741882324,74.4085006714,0.0686567426,-0.0089044571,-0.0000965595,
115.873,-3.3116533756,1.4225469828,12.0947532654,0.0633997992,0.0411477461,0.0151626468,-111.6185073853,72.9215621948,43.8879890442,0.0306106210,0.0624490380,0.0059998631,17.1118144989,83.3011016846,88.6737594604,0.0278408527,0.0251954496,0.0151785910,42.9553718567,41.0753822327,74.4158401489,0.0647662878,-0.0064661503,-0.0039801598,
115.883,-3.3124759197,1.4227769375,12.0958566666,0.0614506826,0.0416503474,0.0073511004,-111.6134567261,72.9241180420,43.8989181519,0.0301354527,0.0658369362,0.0127958059,17.1224918365,83.3002700806,88.6947174072,0.0239329338,0.0290769041,0.0181029439,42.9540405273,41.0754318237,74.4222335815,0.0647668839,-0.0113359690,-0.0000864267,
115.893,-3.3106889725,1.4210791588,12.0970630646,0.0638624728,0.0465020761,0.0058836937,-111.6127777100,72.9254302979,43.9061622620,0.0311187506,0.0614227951,0.0142495632,17.1202640533,83.3024749756,88.7018280029,0.0297967792,0.0246970654,0.0205757618,42.9601821899,41.0742759705,74.4316482544,0.0740290880,-0.0035914779,-0.0151768327,
115.903,-3.3117551804,1.4203909636,12.0982608795,0.0604324900,0.0450558215,0.0088141561,-111.6239852905,72.9275131226,43.9000511169,0.0350356698,0.0633229911,0.0050129294,17.0967864990,83.3011016846,88.6867675781,0.0278408527,0.0237608552,0.0254253745,42.9619712830,41.0783767700,74.4402770996,0.0589463115,-0.0113891959,-0.0068256855,
115.913,-3.3124842644,1.4184641838,12.0994510651,0.0647934079,0.0440920070,0.0093023181,-111.6221313477,72.9306030273,43.9064292908,0.0252858996,0.0618135929,0.0171921253,17.0777702332,83.3008575439,88.6777420044,0.0307700634,0.0208665431,0.0219878256,42.9645118713,41.0810928345,74.4474487305,0.0619117022,-0.0133457780,-0.0160580277,
115.923,-3.3131265640,1.4190155268,12.1005048752,0.0623616204,0.0401969254,0.0044203401,-111.6231384277,72.9330139160,43.9106140137,0.0355521441,0.0627513230,0.0088813901,17.0905036926,83.2997207642,88.6964187622,0.0288146138,0.0281606913,0.0205155313,42.9657554626,41.0786399841,74.4541091919,0.0755513310,-0.0045877099,-0.0043480396,
115.933,-3.3120222092,1.4196192026,12.1004362106,0.0599307492,0.0484784581,0.0083258748,-111.6275711060,72.9369506836,43.9113159180,0.0321543217,0.0660995245,0.0157144070,17.0784091949,83.2994232178,88.6926727295,0.0249077678,0.0169521570,0.0283137262,42.9658813477,41.0797920227,74.4604721069,0.0667774081,-0.0109276772,-0.0092207193,
115.943,-3.3114840984,1.4156883955,12.1004943848,0.0671863779,0.0465160608,0.0068588257,-111.6269378662,72.9391860962,43.9156417847,0.0297243595,0.0587419271,0.0103266239,17.0720767975,83.2977828979,88.6950302124,0.0239278674,0.0184221864,0.0268219113,42.9626235962,41.0781059265,74.4642944336,0.0706614852,-0.0143273473,-0.0019391179,
115.953,-3.3108065128,1.4169875383,12.1015720367,0.0598848239,0.0425979719,0.0083231926,-111.6187133789,72.9422760010,43.9289474487,0.0277870893,0.0660338998,0.0239401460,17.0672817230,83.2951202393,88.7007827759,0.0258755684,0.0272064507,0.0287246406,42.9638938904,41.0809211731,74.4720458984,0.0623977780,-0.0123645067,-0.0121586323,
115.963,-3.3084878922,1.4161804914,12.1015348434,0.0628004372,0.0484169833,0.0102742314,-111.6272811890,72.9407806396,43.9252929688,0.0331504941,0.0611580610,0.0069003701,17.0756263733,83.2940444946,88.7175903320,0.0219671130,0.0257204473,0.0194379091,42.9665985107,41.0817298889,74.4803314209,0.0697326064,-0.0099427700,-0.0126155615,
115.973,-3.3103699684,1.4173717499,12.1033201218,0.0559852831,0.0464966074,0.0044162273,-111.6368179321,72.9426422119,43.9202728271,0.0316951871,0.0635527074,0.0118173957,17.0854206085,83.2949523926,88.7367706299,0.0244103670,0.0247283280,0.0218971968,42.9639282227,41.0826148987,74.4847793579,0.0619317889,-0.0143046379,0.0010398030,
115.983,-3.3121984005,1.4168646336,12.1044740677,0.0618358105,0.0445753485,0.0058833957,-111.6355133057,72.9455642700,43.9261054993,0.0312218666,0.0669280291,0.0191174746,17.0885524750,83.2944259644,88.7483291626,0.0292921066,0.0247204304,0.0150583982,42.9657173157,41.0817604065,74.4933624268,0.0751041174,-0.0138402581,-0.0057872534,
115.993,-3.3104612827,1.4154766798,12.1056232452,0.0671826899,0.0484513715,0.0088106990,-111.6413040161,72.9478302002,43.9269180298,0.0243975520,0.0673704147,0.0064358115,17.0896034241,83.2963867188,88.7588043213,0.0268546939,0.0222856700,0.0194810033,42.9629631042,41.0822944641,74.4992752075,0.0648572445,-0.0113681555,-0.0009244680,
116.003,-3.3110575676,1.4160493612,12.1092653275,0.0564504936,0.0465086177,0.0068583488,-111.6414031982,72.9477386475,43.9327659607,0.0302564502,0.0634654760,0.0152258873,17.1032943726,83.2970581055,88.7811889648,0.0297857523,0.0193332732,0.0160863996,42.9654159546,41.0830612183,74.5074234009,0.0668204427,-0.0108975172,-0.0126149058,
116.013,-3.3120408058,1.4173227549,12.1109209061,0.0603789613,0.0387132168,0.0166255832,-111.6468124390,72.9488830566,43.9329681396,0.0302622914,0.0653902888,0.0093853474,17.0970458984,83.3000411987,88.7862396240,0.0258855820,0.0213126242,0.0190564990,42.9662857056,41.0816040039,74.5137634277,0.0682660937,-0.0123822689,-0.0038309097,
116.023,-3.3095285892,1.4182630777,12.1114149094,0.0608836450,0.0469702072,0.0044165254,-111.6500930786,72.9488449097,43.9343070984,0.0317269564,0.0614783764,0.0133074522,17.0885143280,83.2980270386,88.7856140137,0.0327174067,0.0213202834,0.0229283869,42.9673995972,41.0820198059,74.5211944580,0.0653418303,-0.0133662224,-0.0018638372,
116.033,-3.3116295338,1.4172841311,12.1125364304,0.0637962520,0.0391943306,0.0141837597,-111.6558380127,72.9512710571,43.9333534241,0.0292979479,0.0653365552,0.0118551850,17.0717391968,83.2970581055,88.7775497437,0.0200201273,0.0203716159,0.0189943016,42.9665374756,41.0812225342,74.5275344849,0.0770501494,-0.0158055425,-0.0082260370,
116.043,-3.3134231567,1.4174214602,12.1136789322,0.0594041198,0.0426435471,0.0005137324,-111.6630401611,72.9548416138,43.9327087402,0.0312693715,0.0672210455,0.0138205290,17.0770778656,83.2919082642,88.7909698486,0.0292869806,0.0218004286,0.0301454365,42.9683303833,41.0834846497,74.5361557007,0.0599901080,-0.0153168440,-0.0072144270,
116.053,-3.3121531010,1.4193931818,12.1147975922,0.0574853942,0.0489690229,0.0068609118,-111.6767272949,72.9574661255,43.9259948730,0.0307945013,0.0622715950,0.0026394129,17.1002044678,83.2924957275,88.8226699829,0.0283116102,0.0295700431,0.0204032660,42.9678916931,41.0821418762,74.5428009033,0.0697380304,-0.0099520087,-0.0033231378,
116.063,-3.3124437332,1.4184665680,12.1153011322,0.0652817339,0.0436030179,0.0049079061,-111.6924057007,72.9621200562,43.9176330566,0.0293534398,0.0626582205,0.0056152344,17.1110267639,83.2912063599,88.8421478271,0.0273324251,0.0246593356,0.0238068402,42.9688682556,41.0819206238,74.5500793457,0.0658288002,-0.0089867115,-0.0086880922,
116.073,-3.3107061386,1.4195652008,12.1158466339,0.0584649593,0.0484555326,0.0127186179,-111.6951065063,72.9670486450,43.9207077026,0.0249841213,0.0645300448,0.0163400769,17.1242256165,83.2917633057,88.8627700806,0.0190327764,0.0280534327,0.0213802159,42.9736328125,41.0835380554,74.5594482422,0.0707329512,-0.0104846358,-0.0100955963,
116.083,-3.3094513416,1.4190981388,12.1158866882,0.0574802458,0.0489219651,0.0156470537,-111.6991882324,72.9688491821,43.9204063416,0.0332940817,0.0640063286,0.0163484812,17.1227645874,83.2926712036,88.8699493408,0.0253822803,0.0197609663,0.0199328959,42.9721946716,41.0851364136,74.5650939941,0.0644062757,-0.0124115348,-0.0037480593,
116.093,-3.3096921444,1.4181290865,12.1182546616,0.0638109893,0.0435550995,0.0088111162,-111.7060470581,72.9696273804,43.9183120728,0.0308566689,0.0630049706,0.0110051632,17.1160335541,83.2911834717,88.8737869263,0.0331917405,0.0226959288,0.0238083601,42.9743385315,41.0850486755,74.5740051270,0.0717294216,-0.0129210949,-0.0095889568,
116.103,-3.3083546162,1.4186601639,12.1194276810,0.0604022965,0.0513442792,0.0073450208,-111.7266540527,72.9691696167,43.9040031433,0.0308543444,0.0595547259,-0.0020773411,17.1302165985,83.2891616821,88.8952713013,0.0268399715,0.0260764956,0.0232990682,42.9718704224,41.0848236084,74.5782470703,0.0697732568,-0.0143639445,-0.0013118982,
116.113,-3.3099417686,1.4189131260,12.1211376190,0.0594301447,0.0367234834,0.0097883344,-111.7057266235,72.9551925659,43.9229965210,0.0327360034,0.0168417692,0.0252526402,17.1424636841,83.2893371582,88.9145736694,0.0273286104,0.0211692154,0.0198870301,42.9736175537,41.0841445923,74.5867004395,0.0624401569,-0.0075500607,-0.0071611404,
116.123,-3.3083064556,1.4189579487,12.1235389709,0.0604074895,0.0479254760,0.0132046938,-111.6977005005,72.9593505859,43.9327926636,0.0288510323,0.0646441579,0.0242123008,17.1433315277,83.2942504883,88.9222793579,0.0244089365,0.0202162266,0.0136222541,42.9730873108,41.0839881897,74.5915069580,0.0678091645,-0.0114526153,-0.0042381883,
116.133,-3.3093750477,1.4183568954,12.1246337891,0.0667446554,0.0450144075,0.0132049918,-111.7005538940,72.9580307007,43.9333724976,0.0312856436,0.0617297292,0.0130034685,17.1397266388,83.2912597656,88.9247970581,0.0273325443,0.0260677338,0.0291965008,42.9724121094,41.0845298767,74.5969390869,0.0648865700,-0.0129065514,-0.0061919689,
116.143,-3.3070883751,1.4191963673,12.1264066696,0.0574819595,0.0459511206,0.0132035613,-111.7050704956,72.9606628418,43.9334220886,0.0249514580,0.0709578395,0.0169152021,17.1397666931,83.2926940918,88.9329376221,0.0248940587,0.0197272599,0.0145716071,42.9737892151,41.0864486694,74.6056442261,0.0688180923,-0.0148580670,-0.0076290965,
116.153,-3.3069601059,1.4178198576,12.1263875961,0.0628290400,0.0449723601,0.0151559711,-111.7062759399,72.9596633911,43.9352607727,0.0312940478,0.0665761232,0.0125324130,17.1309680939,83.2933120728,88.9322738647,0.0278249979,0.0212124288,0.0243411660,42.9739990234,41.0880775452,74.6111755371,0.0629801750,-0.0148472786,-0.0056601763,
116.163,-3.3069474697,1.4177234173,12.1275110245,0.0628273562,0.0444838628,0.0136910677,-111.7093734741,72.9588088989,43.9401473999,0.0317779183,0.0680481195,0.0135291815,17.1251010895,83.2911224365,88.9362335205,0.0248908401,0.0217016637,0.0223502815,42.9754409790,41.0874099731,74.6188812256,0.0722487569,-0.0114483833,-0.0046758652,
116.173,-3.3051869869,1.4175673723,12.1280441284,0.0628246367,0.0464063250,0.0112472773,-111.7084884644,72.9574813843,43.9502449036,0.0342125297,0.0651406646,0.0159744024,17.1255817413,83.2906799316,88.9455566406,0.0253782272,0.0221859515,0.0252696276,42.9730720520,41.0873527527,74.6238784790,0.0663886070,-0.0163089037,-0.0007922053,
116.183,-3.3060116768,1.4187483788,12.1291265488,0.0579624251,0.0395847261,0.0024603009,-111.7048721313,72.9601898193,43.9669494629,0.0225076675,0.0729179084,0.0198466182,17.1191501617,83.2918472290,88.9482650757,0.0297751427,0.0217170417,0.0169872642,42.9748039246,41.0897445679,74.6321029663,0.0625138283,-0.0158184767,-0.0090565681,
116.193,-3.3035008907,1.4187254906,12.1302051544,0.0647979677,0.0424706787,0.0156409740,-111.7124633789,72.9592971802,43.9708290100,0.0371515155,0.0631523430,0.0067047477,17.1167697906,83.2934265137,88.9558029175,0.0239189863,0.0236825049,0.0209164321,42.9740333557,41.0915603638,74.6363372803,0.0630259514,-0.0128673315,-0.0027012229,
116.203,-3.3040316105,1.4189915657,12.1307630539,0.0569901094,0.0405267887,0.0097823739,-111.7160568237,72.9591827393,43.9753227234,0.0293384194,0.0616819859,0.0096523166,17.1289176941,83.2924957275,88.9776535034,0.0302647352,0.0270719230,0.0155383348,42.9700889587,41.0919837952,74.6401138306,0.0649846792,-0.0172204375,-0.0046856403,
116.213,-3.3060433865,1.4178328514,12.1324977875,0.0642941073,0.0395852961,0.0073423386,-111.7113723755,72.9611129761,43.9827690125,0.0332545638,0.0636146963,0.0110829473,17.1320533752,83.2900924683,88.9876861572,0.0263535976,0.0221708119,0.0286845565,42.9648513794,41.0926475525,74.6426544189,0.0586457253,-0.0161883235,0.0035736561,
116.223,-3.3071768284,1.4174017906,12.1330547333,0.0594037771,0.0405816175,0.0088082552,-111.7066345215,72.9628753662,43.9869918823,0.0337518454,0.0582249463,0.0164206624,17.1306743622,83.2903900146,88.9924774170,0.0273307562,0.0236397684,0.0184342265,42.9652252197,41.0938186646,74.6469955444,0.0669619441,-0.0137413144,-0.0105733275,
116.233,-3.3078551292,1.4189013243,12.1329736710,0.0569885299,0.0464527644,0.0146689415,-111.7082214355,72.9653091431,43.9843711853,0.0347408652,0.0630673468,0.0066477060,17.1272182465,83.2906188965,88.9951782227,0.0224484205,0.0231595933,0.0194129050,42.9658966064,41.0978736877,74.6528015137,0.0587144494,-0.0127397180,-0.0051627755,
116.243,-3.3094472885,1.4184514284,12.1334638596,0.0638166219,0.0411094129,0.0102759600,-111.7095413208,72.9708786011,43.9824180603,0.0279333591,0.0649319291,0.0105258822,17.1614265442,83.2919082642,89.0343322754,0.0287986994,0.0274929106,0.0150602162,42.9652061462,41.0957107544,74.6578216553,0.0679633617,-0.0068904757,0.0026260614,
116.253,-3.3099024296,1.4182904959,12.1353063583,0.0564895943,0.0450235941,0.0063695908,-111.7144546509,72.9762954712,43.9796485901,0.0289376378,0.0692332089,0.0075861812,17.1753635406,83.2932205200,89.0538101196,0.0263599753,0.0284480155,0.0180178285,42.9638099670,41.0956802368,74.6610031128,0.0699161291,-0.0151779652,-0.0056874752,
116.263,-3.3101782799,1.4186751842,12.1364202499,0.0608908348,0.0435635522,0.0068588853,-111.7140350342,72.9771499634,43.9850921631,0.0274771452,0.0638498962,0.0114852786,17.1698703766,83.2957077026,89.0555801392,0.0214822292,0.0226127505,0.0161049366,42.9696426392,41.0957145691,74.6712265015,0.0689399838,-0.0074213743,-0.0139358044,
116.273,-3.3101911545,1.4207791090,12.1367988586,0.0614158288,0.0401457548,0.0136953592,-111.7161788940,72.9772872925,43.9882774353,0.0308958292,0.0570073128,0.0110064149,17.1830368042,83.2974929810,89.0755538940,0.0224624276,0.0284541845,0.0151617527,42.9728889465,41.0910568237,74.6809005737,0.0727850199,-0.0016296506,-0.0012505054,
116.283,-3.3093409538,1.4189088345,12.1373519897,0.0662660077,0.0455020852,0.0005103946,-111.7217407227,72.9772033691,43.9893379211,0.0230829120,0.0657873154,0.0056621432,17.1771373749,83.2965545654,89.0804977417,0.0263667703,0.0269971192,0.0239353478,42.9748649597,41.0892906189,74.6896591187,0.0639726520,-0.0070335865,0.0011937618,
116.293,-3.3109357357,1.4183900356,12.1390981674,0.0618624240,0.0411353484,0.0019762516,-111.7253799438,72.9768905640,43.9907264709,0.0348000526,0.0633439720,0.0090995431,17.1608467102,83.2981719971,89.0735092163,0.0234403610,0.0265481472,0.0273655057,42.9813804626,41.0864830017,74.7006225586,0.0717482567,-0.0071182251,-0.0109779835,
116.303,-3.3100736141,1.4186208248,12.1414899826,0.0594250411,0.0474679768,0.0034409761,-111.7240600586,72.9762954712,43.9972877502,0.0333321691,0.0560312867,0.0134915113,17.1325035095,83.2961196899,89.0542526245,0.0302721262,0.0226883888,0.0278062522,42.9814224243,41.0847473145,74.7089996338,0.0678191185,-0.0115268826,-0.0046451092,
116.313,-3.3067579269,1.4182270765,12.1420507431,0.0613713004,0.0454571098,0.0073428154,-111.7254791260,72.9767303467,43.9993515015,0.0323578119,0.0628578663,0.0061713457,17.1077880859,83.2955932617,89.0370330811,0.0248999596,0.0202929378,0.0263164341,42.9836692810,41.0799942017,74.7170639038,0.0760574341,-0.0057262182,-0.0061292052,
116.323,-3.3054752350,1.4161323309,12.1426467896,0.0652410015,0.0468996651,0.0088061690,-111.7143783569,72.9804000854,44.0111541748,0.0274937153,0.0662401915,0.0168380737,17.0808162689,83.2953643799,89.0186691284,0.0234346390,0.0174160898,0.0228810608,42.9851303101,41.0818557739,74.7242355347,0.0692459941,-0.0164679289,-0.0163549781,
116.333,-3.3073699474,1.4168390036,12.1437053680,0.0618353635,0.0400967076,0.0049020052,-111.7045440674,72.9819793701,44.0173873901,0.0294549465,0.0642811060,0.0133635402,17.0738945007,83.2978744507,89.0175323486,0.0239280462,0.0193948746,0.0170558393,42.9877891541,41.0784988403,74.7321319580,0.0735962987,-0.0057775974,-0.0056163669,
116.343,-3.3080277443,1.4163949490,12.1442537308,0.0613393337,0.0445027091,0.0014843941,-111.6968460083,72.9834518433,44.0208930969,0.0323921442,0.0613436699,0.0108762980,17.0905590057,83.2972030640,89.0407943726,0.0253915191,0.0276596248,0.0151031911,42.9861755371,41.0780639648,74.7365646362,0.0682195425,-0.0150427818,-0.0027054548,
116.353,-3.3063631058,1.4161866903,12.1466035843,0.0632888228,0.0459385663,0.0088070035,-111.6923675537,72.9850006104,44.0229568481,0.0280055404,0.0632813871,0.0113336444,17.0857334137,83.2990417480,89.0451965332,0.0293015242,0.0218190253,0.0131771863,42.9847450256,41.0771942139,74.7414474487,0.0701611638,-0.0169889331,-0.0041900873,
116.363,-3.3073229790,1.4170615673,12.1483125687,0.0593978390,0.0410724543,0.0097848773,-111.6975402832,72.9863357544,44.0189819336,0.0353365541,0.0666678250,0.0084205866,17.1006450653,83.3002166748,89.0680694580,0.0253976583,0.0257016122,0.0136933923,42.9861106873,41.0770492554,74.7472763062,0.0652765036,-0.0067492723,-0.0110148191,
116.373,-3.3069493771,1.4158729315,12.1489048004,0.0618185103,0.0459487848,0.0019715428,-111.7036056519,72.9883880615,44.0184669495,0.0314407945,0.0641852021,0.0118544698,17.1029567719,83.3018035889,89.0814514160,0.0249125957,0.0237517655,0.0156734288,42.9885444641,41.0789947510,74.7564849854,0.0692083240,-0.0077341199,-0.0124416947,
116.383,-3.3089320660,1.4147984982,12.1501693726,0.0574052259,0.0440302230,0.0058788657,-111.7152709961,72.9881591797,44.0158729553,0.0324161649,0.0627002716,0.0075173378,17.1294651031,83.3027954102,89.1178512573,0.0273560286,0.0246810317,0.0122880340,42.9866561890,41.0795631409,74.7617645264,0.0657978058,-0.0140591860,-0.0002468824,
116.393,-3.3095989227,1.4135317802,12.1519126892,0.0666604713,0.0464832745,0.0034378171,-111.7223739624,72.9891128540,44.0190658569,0.0246085525,0.0621844530,0.0134043694,17.1293239594,83.3007431030,89.1269912720,0.0239338875,0.0236943960,0.0259262621,42.9844970703,41.0791168213,74.7675323486,0.0648154020,-0.0145301223,0.0031479001,
116.403,-3.3093140125,1.4125136137,12.1536827087,0.0637130141,0.0455017723,0.0049021244,-111.7312469482,72.9853973389,44.0193252563,0.0270310044,0.0553891361,0.0071218014,17.1353378296,83.3003311157,89.1427917480,0.0214916468,0.0290512145,0.0225038230,42.9852752686,41.0784606934,74.7745437622,0.0652950406,-0.0140544176,-0.0061278939,
116.413,-3.3095307350,1.4141943455,12.1547851563,0.0564181209,0.0415992476,0.0088089108,-111.7316970825,72.9867630005,44.0247001648,0.0338739157,0.0607378483,0.0149282217,17.1452674866,83.3009185791,89.1607894897,0.0229576826,0.0202462077,0.0200811327,42.9830131531,41.0823783875,74.7814712524,0.0614402890,-0.0144903660,-0.0070918798,
116.423,-3.3092455864,1.4152296782,12.1577186584,0.0613190010,0.0474536344,0.0122274160,-111.7369613647,72.9846267700,44.0231552124,0.0304450393,0.0534367263,0.0120367408,17.1419696808,83.2994537354,89.1657867432,0.0278375149,0.0192679167,0.0224928856,42.9838142395,41.0834159851,74.7896347046,0.0697547793,-0.0110719800,-0.0100057125,
116.433,-3.3078300953,1.4139024019,12.1582555771,0.0666669384,0.0474290214,0.0044124126,-111.7461395264,72.9848251343,44.0153160095,0.0343523026,0.0641584396,0.0052431822,17.1393966675,83.3013305664,89.1723175049,0.0288178921,0.0246540904,0.0166647732,42.9815330505,41.0860710144,74.7947845459,0.0644186139,-0.0144472122,-0.0065859556,
116.443,-3.3083729744,1.4129496813,12.1576328278,0.0612792224,0.0469502173,0.0171086788,-111.7484054565,72.9850845337,44.0156097412,0.0324004889,0.0670800507,0.0106233954,17.1291713715,83.2994537354,89.1712722778,0.0302789211,0.0212470591,0.0171170533,42.9825744629,41.0874099731,74.8020019531,0.0678542256,-0.0163998604,-0.0134012699,
116.453,-3.3091526031,1.4120876789,12.1599779129,0.0632173046,0.0396395996,0.0029484034,-111.7485580444,72.9866333008,44.0194587708,0.0260607600,0.0621728301,0.0150091648,17.1417999268,83.2986907959,89.1919479370,0.0224648714,0.0270769894,0.0210159719,42.9822616577,41.0880432129,74.8062133789,0.0703039169,-0.0149270892,-0.0080277920,
116.463,-3.3074524403,1.4136964083,12.1622924805,0.0593391247,0.0459575988,0.0171075463,-111.7527923584,72.9902954102,44.0218086243,0.0299856663,0.0660148263,0.0145184994,17.1321048737,83.2973251343,89.1889266968,0.0268566012,0.0222069919,0.0180601180,42.9836006165,41.0891723633,74.8139724731,0.0644594431,-0.0144428611,-0.0109359622,
116.473,-3.3058335781,1.4141466618,12.1659088135,0.0588587001,0.0478825122,0.0019695759,-111.7542343140,72.9909439087,44.0246887207,0.0329186916,0.0655131638,0.0115916729,17.1189632416,83.2943344116,89.1838989258,0.0239208341,0.0212413371,0.0306983888,42.9820976257,41.0889930725,74.8183135986,0.0673867464,-0.0124766827,-0.0089975595,
116.483,-3.3049423695,1.4158506393,12.1676464081,0.0564470217,0.0454255417,0.0083171129,-111.7593688965,72.9939346313,44.0255508423,0.0265862942,0.0678988695,0.0140390992,17.1223831177,83.2944259644,89.1959075928,0.0288038254,0.0266059637,0.0243537724,42.9839706421,41.0914764404,74.8263702393,0.0649780035,-0.0124752522,-0.0109132528,
116.493,-3.3047134876,1.4131048918,12.1694259644,0.0676295906,0.0410270914,0.0053858757,-111.7655715942,72.9963226318,44.0255813599,0.0246453881,0.0658974051,0.0101474524,17.1110496521,83.2971191406,89.1928176880,0.0278327465,0.0139467418,0.0156022906,42.9812698364,41.0899925232,74.8316268921,0.0732592344,-0.0163671374,-0.0055789948,
116.503,-3.3070523739,1.4142012596,12.1717710495,0.0564182438,0.0405795313,0.0039240122,-111.7647094727,72.9951248169,44.0323143005,0.0383111238,0.0615225434,0.0155218840,17.0982685089,83.2950439453,89.1875686646,0.0278285146,0.0178679228,0.0228850842,42.9802131653,41.0913200378,74.8367996216,0.0674173832,-0.0153700113,-0.0075303316,
116.513,-3.3067750931,1.4144436121,12.1735496521,0.0573990345,0.0410629734,0.0122246742,-111.7774200439,72.9949111938,44.0248527527,0.0304975510,0.0575954616,0.0067946315,17.1027412415,83.2976455688,89.2001876831,0.0249041319,0.0203135908,0.0165827572,42.9807815552,41.0910377502,74.8418579102,0.0688784719,-0.0144011378,-0.0055744648,
116.523,-3.3055028915,1.4158463478,12.1746625900,0.0574235097,0.0425056145,0.0097821355,-111.7694244385,72.9956283569,44.0390357971,0.0280597806,0.0644357204,0.0174944401,17.1008834839,83.2960662842,89.2074584961,0.0244126320,0.0266570151,0.0224153399,42.9774208069,41.0910224915,74.8465576172,0.0708314180,-0.0177868605,-0.0012101531,
116.533,-3.3048813343,1.4153609276,12.1757812500,0.0642509758,0.0444479287,0.0151531100,-111.7732620239,72.9962615967,44.0417175293,0.0295279026,0.0605120957,0.0131140351,17.1102886200,83.2943649292,89.2261199951,0.0283154249,0.0246767104,0.0209282935,42.9737243652,41.0887489319,74.8515777588,0.0756843090,-0.0163042545,-0.0041921139,
116.543,-3.3046507835,1.4146262407,12.1757688522,0.0603319108,0.0454204939,0.0083161592,-111.7759094238,72.9969635010,44.0429344177,0.0314845443,0.0595198274,0.0140990615,17.1186141968,83.2916717529,89.2431259155,0.0268450975,0.0251350105,0.0287019610,42.9756965637,41.0912742615,74.8588790894,0.0605807900,-0.0109323859,-0.0051299334,
116.553,-3.3032310009,1.4158854485,12.1787405014,0.0559593514,0.0429543257,0.0034325123,-111.7799758911,72.9978713989,44.0452613831,0.0290477872,0.0634047985,0.0087414980,17.1162014008,83.2917861938,89.2506103516,0.0263570547,0.0207459331,0.0228436589,42.9770011902,41.0918579102,74.8672027588,0.0727955103,-0.0114286542,-0.0051134825,
116.563,-3.3021042347,1.4149110317,12.1793394089,0.0613134429,0.0463526882,0.0088019967,-111.7855224609,72.9984130859,44.0473289490,0.0305154324,0.0648506582,0.0082762837,17.1320571899,83.2938690186,89.2753143311,0.0273378491,0.0212129354,0.0126316547,42.9753456116,41.0919227600,74.8730468750,0.0669369698,-0.0148301721,-0.0041508079,
116.573,-3.3015079498,1.4118894339,12.1793365479,0.0661435276,0.0424361341,0.0068470836,-111.7935867310,72.9996414185,44.0463905334,0.0310099721,0.0682343543,0.0063540339,17.1284675598,83.2958908081,89.2809677124,0.0253888369,0.0202539265,0.0190114677,42.9771080017,41.0925025940,74.8817901611,0.0674328804,-0.0089833140,-0.0075486898,
116.583,-3.3006393909,1.4124284983,12.1791982651,0.0622466877,0.0433975495,0.0068463683,-111.7937545776,72.9994735718,44.0545539856,0.0295442939,0.0579825938,0.0151448846,17.1121292114,83.2939529419,89.2751541138,0.0273380280,0.0217414498,0.0267826319,42.9750061035,41.0934028625,74.8886337280,0.0640268326,-0.0187215209,-0.0012115240,
116.593,-3.3015346527,1.4117932320,12.1822471619,0.0583293512,0.0434131585,0.0044055581,-111.7891998291,72.9976119995,44.0650024414,0.0344175696,0.0570434928,0.0156231523,17.1287651062,83.2918777466,89.3009948730,0.0253806710,0.0280456841,0.0238288641,42.9761009216,41.0951461792,74.8961868286,0.0669794083,-0.0128592253,-0.0085120201,
116.603,-3.3010005951,1.4100797176,12.1834545135,0.0641588345,0.0463335887,0.0122168660,-111.7853317261,72.9936676025,44.0751533508,0.0300028920,0.0600415468,0.0122110844,17.1562976837,83.2934570313,89.3365478516,0.0205010772,0.0284872949,0.0199647248,42.9744224548,41.0913467407,74.9002914429,0.0688825846,-0.0109194517,0.0007193089,
116.613,-3.3028786182,1.4086660147,12.1846876144,0.0587630719,0.0400186852,0.0112415552,-111.7863998413,72.9946517944,44.0793991089,0.0319610834,0.0595355630,0.0131865740,17.1432380676,83.2898635864,89.3328552246,0.0248882771,0.0201943219,0.0301521420,42.9718284607,41.0922431946,74.9049835205,0.0596169829,-0.0118641853,-0.0036917925,
116.623,-3.3040413857,1.4081257582,12.1858510971,0.0597302057,0.0405272283,0.0034300685,-111.7910537720,72.9956817627,44.0813179016,0.0300132036,0.0599994063,0.0044132471,17.1357822418,83.2883758545,89.3353576660,0.0268383622,0.0182487071,0.0242649615,42.9709510803,41.0939407349,74.9113845825,0.0669635534,-0.0128189921,-0.0085680485,
116.633,-3.3055410385,1.4063504934,12.1858339310,0.0636054873,0.0459244885,-0.0014518499,-111.7883300781,72.9928512573,44.0883407593,0.0353698134,0.0576068759,0.0112537742,17.1660919189,83.2891616821,89.3762207031,0.0263516903,0.0289343297,0.0213644803,42.9676208496,41.0923423767,74.9157943726,0.0723136067,-0.0142642260,0.0011546612,
116.643,-3.3050947189,1.4083672762,12.1863098145,0.0572930202,0.0439635329,0.0097785592,-111.7987670898,72.9929809570,44.0816955566,0.0368353724,0.0619794726,0.0044667125,17.1818332672,83.2886962891,89.4016952515,0.0209796429,0.0264602005,0.0228346884,42.9703826904,41.0923309326,74.9247970581,0.0703603625,-0.0118494630,-0.0120042562,
116.653,-3.3056704998,1.4078407288,12.1874160767,0.0641197637,0.0425087363,0.0078260303,-111.8056564331,72.9934234619,44.0772323608,0.0314664841,0.0629363954,0.0084028840,17.1755447388,83.2880554199,89.4043121338,0.0278142691,0.0196326375,0.0242816210,42.9717826843,41.0920562744,74.9328231812,0.0713332891,-0.0143066049,-0.0061353445,
116.663,-3.3052902222,1.4096037149,12.1878728867,0.0582911521,0.0415255018,0.0131974220,-111.8094100952,72.9946746826,44.0789222717,0.0339143276,0.0638858378,0.0113428235,17.1877517700,83.2865600586,89.4237976074,0.0190221667,0.0274142027,0.0271975994,42.9720191956,41.0931282043,74.9379501343,0.0689059496,-0.0157653093,-0.0046588182,
116.673,-3.3038945198,1.4082695246,12.1884469986,0.0626624078,0.0429660678,0.0112423897,-111.8118743896,72.9965057373,44.0811576843,0.0261111259,0.0614122450,0.0137845278,17.1834774017,83.2865295410,89.4263916016,0.0253697634,0.0254683793,0.0227958262,42.9760704041,41.0933647156,74.9469070435,0.0664677024,-0.0094547868,-0.0060853958,
116.683,-3.3022952080,1.4089076519,12.1883945465,0.0577907264,0.0458678864,0.0122177005,-111.8071975708,72.9995117188,44.0898666382,0.0300327539,0.0638154745,0.0176500082,17.1789703369,83.2839584351,89.4304428101,0.0248762369,0.0220474005,0.0251966119,42.9736671448,41.0941848755,74.9520950317,0.0694081783,-0.0152846575,-0.0104952455,
116.693,-3.3018436432,1.4084037542,12.1890001297,0.0553405285,0.0375592522,0.0078223944,-111.8176116943,72.9997100830,44.0853157043,0.0334517360,0.0647693276,0.0040264130,17.1747360229,83.2820358276,89.4343566895,0.0273137093,0.0235104263,0.0280902088,42.9760971069,41.0941390991,74.9618301392,0.0655012727,-0.0084724426,-0.0031487346,
116.703,-3.3020761013,1.4069081545,12.1894435883,0.0694745928,0.0395164639,0.0063572526,-111.8140029907,73.0004577637,44.0939216614,0.0280844569,0.0603701174,0.0123054981,17.1977558136,83.2803955078,89.4653015137,0.0268220901,0.0273631513,0.0212431550,42.9749336243,41.0932731628,74.9668121338,0.0650016665,-0.0094444752,-0.0090259314,
116.713,-3.3013722897,1.4088342190,12.1898889542,0.0597425662,0.0448752493,0.0092870593,-111.8032379150,73.0012741089,44.1094207764,0.0290651917,0.0623316467,0.0210381150,17.1873531342,83.2818832397,89.4632339478,0.0234071612,0.0137192905,0.0222372413,42.9727630615,41.0969505310,74.9733428955,0.0577257872,-0.0147660375,-0.0016909838,
116.723,-3.3035469055,1.4092637300,12.1909704208,0.0626797527,0.0434482731,0.0014768839,-111.8028259277,73.0024337769,44.1128005981,0.0280945301,0.0637784004,0.0122401118,17.1915740967,83.2815399170,89.4762115479,0.0248712897,0.0234743655,0.0222322941,42.9740257263,41.0984535217,74.9821090698,0.0592104197,-0.0147663355,-0.0104553699,
116.733,-3.3048410416,1.4065099955,12.1921291351,0.0675145164,0.0400529131,0.0048950911,-111.8002700806,73.0006179810,44.1198348999,0.0280852914,0.0633231401,0.0117508173,17.1861953735,83.2826156616,89.4794464111,0.0219438076,0.0225143433,0.0227366686,42.9734115601,41.0987777710,74.9876861572,0.0689802766,-0.0152463317,-0.0124118328,
116.743,-3.3045799732,1.4086751938,12.1925439835,0.0612046383,0.0454194099,0.0136846900,-111.7957229614,73.0000381470,44.1303062439,0.0290588737,0.0618766248,0.0102680326,17.1931667328,83.2833175659,89.4933624268,0.0268280506,0.0205507874,0.0203104317,42.9752082825,41.0990753174,74.9942321777,0.0631248355,-0.0137963295,-0.0065335035,
116.753,-3.3025538921,1.4076913595,12.1931819916,0.0592343472,0.0473372638,0.0097759962,-111.8011474609,72.9970626831,44.1300048828,0.0319733620,0.0633769631,-0.0004300475,17.2063007355,83.2829742432,89.5146484375,0.0248742104,0.0224758685,0.0168935955,42.9784011841,41.0986709595,75.0028457642,0.0758147836,-0.0099240541,-0.0143207312,
116.763,-3.3022634983,1.4067561626,12.1931505203,0.0611711517,0.0434259847,0.0122166872,-111.7960815430,72.9985885620,44.1409835815,0.0319811702,0.0628743470,0.0180911422,17.2246665955,83.2825012207,89.5407562256,0.0238966942,0.0307385921,0.0203181207,42.9767074585,41.0974655151,75.0097351074,0.0743340850,-0.0167532563,-0.0055575967,
116.773,-3.3048748970,1.4057905674,12.1930761337,0.0611543059,0.0376121178,0.0088008642,-111.7846832275,72.9991989136,44.1581420898,0.0349139571,0.0623989105,0.0165683031,17.2163963318,83.2819213867,89.5407485962,0.0307314396,0.0204971731,0.0261589587,42.9748115540,41.1005668640,75.0146636963,0.0587499142,-0.0181753635,-0.0060361624,
116.783,-3.3027403355,1.4058996439,12.1948337555,0.0596913695,0.0434343107,0.0024511218,-111.7878799438,72.9992141724,44.1601066589,0.0300312042,0.0589741766,0.0053531528,17.2026119232,83.2803726196,89.5354232788,0.0292634368,0.0234471262,0.0246637762,42.9736862183,41.1023292542,75.0207138062,0.0636559129,-0.0205922127,-0.0050549507,
116.793,-3.3031613827,1.4052761793,12.1966600418,0.0582156442,0.0429533757,0.0097755194,-111.7856597900,73.0031661987,44.1682395935,0.0276100039,0.0642884970,0.0180132985,17.1993465424,83.2800445557,89.5415267944,0.0238916874,0.0229631364,0.0231892765,42.9743499756,41.1022644043,75.0276412964,0.0709792972,-0.0083920956,-0.0035847425,
116.803,-3.3021721840,1.4044489861,12.1985101700,0.0567363687,0.0414713174,0.0083094239,-111.7821502686,73.0052032471,44.1779289246,0.0290852189,0.0642637610,0.0150544047,17.1985340118,83.2820663452,89.5499343872,0.0287786126,0.0210226476,0.0178540647,42.9762916565,41.1013755798,75.0357131958,0.0670613050,-0.0084177852,-0.0030866265,
116.813,-3.3024241924,1.4067218304,12.1983089447,0.0582408682,0.0395225324,0.0044043064,-111.7864685059,73.0056991577,44.1799583435,0.0315291286,0.0627833307,0.0082359314,17.1944332123,83.2833175659,89.5546417236,0.0238983631,0.0229892731,0.0227508545,42.9759330750,41.1036300659,75.0426406860,0.0641613007,-0.0171857476,-0.0064886808,
116.823,-3.3016412258,1.4037922621,12.2001686096,0.0640491322,0.0429269336,0.0068439245,-111.7848968506,73.0070343018,44.1874771118,0.0315359831,0.0593470335,0.0145677328,17.2131004333,83.2868881226,89.5806884766,0.0258587599,0.0244355798,0.0135448277,42.9754257202,41.1054840088,75.0495376587,0.0671153665,-0.0152131319,-0.0074542165,
116.833,-3.3019943237,1.4040067196,12.2006044388,0.0655177087,0.0434213616,0.0034259558,-111.7850112915,73.0095596313,44.1917037964,0.0286191702,0.0656554997,0.0125995874,17.2322998047,83.2844238281,89.6091537476,0.0263420343,0.0273147225,0.0266996622,42.9765319824,41.1062927246,75.0561523438,0.0651729107,-0.0108229518,-0.0103672743,
116.843,-3.2998692989,1.4061818123,12.2010774612,0.0567665994,0.0433842875,0.0107490420,-111.7845764160,73.0123291016,44.1951446533,0.0310747027,0.0651253164,0.0208812952,17.2519950867,83.2847442627,89.6368179321,0.0278075337,0.0282542109,0.0257416666,42.9790878296,41.1062316895,75.0639419556,0.0739611387,-0.0118245482,-0.0118097067,
116.853,-3.3011765480,1.4069579840,12.2033481598,0.0616629571,0.0399890766,0.0000088215,-111.7825469971,73.0151596069,44.2021865845,0.0286477208,0.0655737817,0.0135299563,17.2642040253,83.2848968506,89.6596832275,0.0292726755,0.0223710239,0.0208670795,42.9778480530,41.1056671143,75.0694198608,0.0661412477,-0.0098639727,-0.0030363798,
116.863,-3.3001677990,1.4096660614,12.2038698196,0.0548742712,0.0502253398,0.0097740293,-111.7981872559,73.0134201050,44.1937751770,0.0305919647,0.0572708249,-0.0024983883,17.2837371826,83.2841644287,89.6872711182,0.0224352479,0.0233054161,0.0194033086,42.9787864685,41.1061935425,75.0772476196,0.0715191960,-0.0084040165,-0.0054651499,
116.873,-3.3026974201,1.4118745327,12.2055501938,0.0549128056,0.0375740379,0.0166141987,-111.7966842651,73.0159225464,44.2031669617,0.0301164389,0.0640703738,0.0155454874,17.2813758850,83.2833175659,89.6936492920,0.0253632069,0.0213525891,0.0242705047,42.9770126343,41.1067733765,75.0850601196,0.0642026067,-0.0181481242,-0.0025465488,
116.883,-3.3023583889,1.4128876925,12.2072315216,0.0607898571,0.0414743535,0.0019649267,-111.8046875000,73.0150833130,44.2017707825,0.0281590223,0.0611390173,0.0028933287,17.3035659790,83.2831115723,89.7238464355,0.0253627896,0.0257022381,0.0150038302,42.9790458679,41.1084251404,75.0940170288,0.0700837374,-0.0113188028,-0.0147213936,
116.893,-3.2999169827,1.4134408236,12.2089881897,0.0603112280,0.0487560332,0.0034281611,-111.8045349121,73.0119934082,44.2070121765,0.0359557867,0.0577679873,0.0073063970,17.3144741058,83.2829742432,89.7440338135,0.0282921791,0.0237267315,0.0198909044,42.9780044556,41.1087188721,75.1012878418,0.0681344271,-0.0093533993,-0.0000798702,
116.903,-3.3012614250,1.4120190144,12.2107448578,0.0632161051,0.0375490189,0.0112414360,-111.8122406006,73.0142822266,44.2040252686,0.0335260630,0.0621144772,0.0122113228,17.3254356384,83.2851333618,89.7619247437,0.0268317461,0.0227389634,0.0174894333,42.9781303406,41.1078071594,75.1082382202,0.0656810403,-0.0103383064,-0.0020396709,
116.913,-3.2995879650,1.4133368731,12.2113246918,0.0554265976,0.0482620224,0.0087985396,-111.8210906982,73.0153503418,44.1989097595,0.0291369557,0.0669626594,0.0063877106,17.3387546539,83.2865600586,89.7833175659,0.0297643542,0.0202793479,0.0180127621,42.9767913818,41.1107406616,75.1145935059,0.0613251328,-0.0156735182,-0.0049562454,
116.923,-3.2972033024,1.4140073061,12.2131347656,0.0578797050,0.0506618768,0.0068435073,-111.8268890381,73.0163192749,44.1967430115,0.0286536217,0.0610771179,0.0088505149,17.3490734100,83.2871170044,89.8029708862,0.0287889242,0.0270966589,0.0204653740,42.9795112610,41.1110343933,75.1233139038,0.0710946321,-0.0113028288,-0.0161600113,
116.933,-3.2958126068,1.4144874811,12.2148513794,0.0627708957,0.0472196676,0.0053776503,-111.8252334595,73.0182342529,44.2021408081,0.0267102718,0.0649569035,0.0127370954,17.3572216034,83.2844238281,89.8195953369,0.0253654718,0.0270678103,0.0282428861,42.9815330505,41.1117858887,75.1312866211,0.0701279640,-0.0142462254,-0.0180894732,
116.943,-3.2968437672,1.4161425829,12.2147350311,0.0564521141,0.0408899300,0.0151449442,-111.8214645386,73.0175933838,44.2108345032,0.0320780873,0.0630214810,0.0151644349,17.3582515717,83.2843704224,89.8288574219,0.0234122276,0.0197406113,0.0199392736,42.9846382141,41.1124038696,75.1412429810,0.0608586669,-0.0064587593,-0.0082902908,
116.953,-3.2971837521,1.4175754786,12.2146635056,0.0569653995,0.0477317609,0.0063569546,-111.8276519775,73.0196456909,44.2102394104,0.0306236744,0.0663959980,0.0098101497,17.3744049072,83.2828521729,89.8540878296,0.0297567844,0.0289787054,0.0189497769,42.9841346741,41.1110572815,75.1474990845,0.0676769614,-0.0157417059,-0.0068413019,
116.963,-3.2975370884,1.4174016714,12.2146358490,0.0584272109,0.0433433875,0.0102635622,-111.8295288086,73.0219345093,44.2135009766,0.0330767632,0.0663565695,0.0098049641,17.3643360138,83.2822647095,89.8508377075,0.0229196548,0.0216713548,0.0228399038,42.9851799011,41.1111068726,75.1554336548,0.0686541200,-0.0103802681,-0.0078079104,
116.973,-3.2985603809,1.4170618057,12.2151660919,0.0613509677,0.0409198105,0.0122171044,-111.8284149170,73.0220413208,44.2197685242,0.0281944871,0.0570798516,0.0156582594,17.3631725311,83.2791976929,89.8570861816,0.0268196464,0.0255642235,0.0291366279,42.9870491028,41.1122703552,75.1627273560,0.0652514696,-0.0133189559,-0.0072932243,
116.983,-3.2979464531,1.4170510769,12.2168846130,0.0623273440,0.0423739627,0.0048924685,-111.8249130249,73.0222091675,44.2282409668,0.0267305374,0.0561076403,0.0112460256,17.3619155884,83.2795867920,89.8645095825,0.0238907337,0.0226391554,0.0223067701,42.9900131226,41.1124076843,75.1725082397,0.0647649765,-0.0084636211,-0.0062891245,
116.993,-3.2997150421,1.4191836119,12.2166423798,0.0608997084,0.0384984650,0.0053835511,-111.8179016113,73.0217437744,44.2394561768,0.0364937782,0.0575923324,0.0141453743,17.3640193939,83.2809829712,89.8753662109,0.0277998447,0.0206888318,0.0203772187,42.9895629883,41.1106529236,75.1785049438,0.0706012845,-0.0079846382,-0.0038663149,
117.003,-3.3005037308,1.4178106785,12.2184410095,0.0628288835,0.0438833311,0.0053837895,-111.8180007935,73.0236968994,44.2437019348,0.0267381072,0.0634213090,0.0116924047,17.3626708984,83.2791748047,89.8820953369,0.0253547430,0.0245884359,0.0315769613,42.9878845215,41.1117401123,75.1828918457,0.0642679334,-0.0172373056,-0.0048488379,
117.013,-3.2993199825,1.4160962105,12.2196025848,0.0662169307,0.0443510339,0.0097763538,-111.8179473877,73.0258255005,44.2484474182,0.0321200490,0.0629001558,0.0150969028,17.3521862030,83.2791213989,89.8797149658,0.0243780613,0.0192381442,0.0247349441,42.9845466614,41.1104965210,75.1856460571,0.0662047267,-0.0152617693,-0.0029360056,
117.023,-3.2976598740,1.4199584723,12.2206516266,0.0550538525,0.0482282788,0.0034283400,-111.8219604492,73.0257797241,44.2490310669,0.0330963731,0.0619172156,0.0063272119,17.3632144928,83.2791213989,89.8994903564,0.0287725925,0.0255631208,0.0179023743,42.9816627502,41.1091957092,75.1904449463,0.0710704327,-0.0132911205,-0.0029727817,
117.033,-3.2980432510,1.4172208309,12.2219190598,0.0633068681,0.0453053303,0.0083109736,-111.8325424194,73.0280838013,44.2437896729,0.0331081152,0.0652795434,0.0102694631,17.3831176758,83.2800445557,89.9297180176,0.0263330936,0.0265060365,0.0189105570,42.9816093445,41.1100311279,75.1976852417,0.0632688999,-0.0137723088,-0.0073606968,
117.043,-3.2966041565,1.4166672230,12.2231235504,0.0598792359,0.0452802740,0.0063556433,-111.8412933350,73.0283966064,44.2394943237,0.0321331620,0.0647696555,0.0064027309,17.3843936920,83.2792358398,89.9384613037,0.0224251747,0.0245457888,0.0203609467,42.9805755615,41.1107902527,75.2035446167,0.0691382885,-0.0191275477,-0.0088284016,
117.053,-3.2949326038,1.4167720079,12.2249240875,0.0579279438,0.0437863134,0.0136784911,-111.8332977295,73.0287857056,44.2520523071,0.0306702852,0.0603843927,0.0200341940,17.3985671997,83.2801666260,89.9611206055,0.0253567696,0.0279406607,0.0184327662,42.9794502258,41.1128463745,75.2094497681,0.0613527894,-0.0171476007,-0.0097985268,
117.063,-3.2947196960,1.4175848961,12.2265987396,0.0618483759,0.0408529006,0.0122137070,-111.8377609253,73.0267562866,44.2511062622,0.0331013203,0.0584536195,0.0088375807,17.3988208771,83.2815093994,89.9695205688,0.0297540426,0.0196461380,0.0184544623,42.9792175293,41.1107139587,75.2158355713,0.0671841502,-0.0088610649,-0.0005403161,
117.073,-3.2941088676,1.4179437160,12.2282848358,0.0633194745,0.0423070975,0.0087952018,-111.8431549072,73.0255661011,44.2522735596,0.0335835814,0.0623686314,0.0054525137,17.4045906067,83.2835540771,89.9840316772,0.0248754025,0.0215979218,0.0121421516,42.9775848389,41.1100387573,75.2215423584,0.0725463629,-0.0171516538,0.0004151464,
117.083,-3.2938983440,1.4193756580,12.2293863297,0.0574850887,0.0408385508,0.0151433945,-111.8401260376,73.0272140503,44.2597045898,0.0311505795,0.0623480380,0.0190998912,17.4176368713,83.2818069458,90.0068130493,0.0321960449,0.0259586275,0.0214027464,42.9785804749,41.1096572876,75.2289428711,0.0710764527,-0.0122812390,-0.0039727688,
117.093,-3.2951962948,1.4186563492,12.2305183411,0.0628436357,0.0398846082,0.0131912231,-111.8330841064,73.0265502930,44.2722473145,0.0335885882,0.0555365682,0.0146760345,17.4193592072,83.2806930542,90.0172653198,0.0258461237,0.0254599154,0.0233336687,42.9775733948,41.1111106873,75.2341842651,0.0642597079,-0.0161665678,-0.0083649158,
117.103,-3.2970240116,1.4192212820,12.2309398651,0.0623652078,0.0360101834,0.0092871189,-111.8383102417,73.0272140503,44.2718276978,0.0257794857,0.0608872473,0.0098138452,17.4056091309,83.2793502808,90.0126724243,0.0263316631,0.0215749145,0.0242833495,42.9784164429,41.1121635437,75.2401275635,0.0672031641,-0.0151897669,-0.0083481073,
117.113,-3.2961068153,1.4188048840,12.2333116531,0.0618696623,0.0433184318,0.0087977648,-111.8464279175,73.0255813599,44.2678489685,0.0316305161,0.0604088306,0.0083976984,17.3954505920,83.2799072266,90.0101318359,0.0214499831,0.0167145431,0.0174481571,42.9804649353,41.1122741699,75.2478637695,0.0662280917,-0.0122788548,-0.0053987503,
117.123,-3.2978701591,1.4179577827,12.2332134247,0.0628314465,0.0384663679,0.0073342323,-111.8519287109,73.0247039795,44.2677230835,0.0316260457,0.0613884032,0.0108706355,17.3880500793,83.2762603760,90.0130538940,0.0253487825,0.0269650221,0.0291050375,42.9819259644,41.1129760742,75.2549209595,0.0716084242,-0.0113109946,-0.0073337555,
117.133,-3.2982547283,1.4165399075,12.2343711853,0.0628067106,0.0389613770,0.0039162040,-111.8555755615,73.0255279541,44.2676239014,0.0316302776,0.0603926182,0.0108827949,17.3855209351,83.2746810913,90.0174942017,0.0263221264,0.0191495419,0.0266365111,42.9784240723,41.1128196716,75.2605972290,0.0681884289,-0.0186026096,-0.0010180473,
117.143,-3.2982437611,1.4165709019,12.2355499268,0.0579244345,0.0423791558,0.0092872977,-111.8577423096,73.0240173340,44.2704048157,0.0247865915,0.0609002709,0.0099259019,17.3750209808,83.2755508423,90.0164947510,0.0263239145,0.0167328715,0.0198062360,42.9798812866,41.1104812622,75.2674789429,0.0720638633,-0.0078929067,-0.0083495975,
117.153,-3.2983746529,1.4165933132,12.2361211777,0.0579248257,0.0418931469,0.0122168064,-111.8597640991,73.0224533081,44.2720870972,0.0306379795,0.0604321361,0.0094568729,17.3834648132,83.2738952637,90.0341567993,0.0307150483,0.0240324140,0.0222278237,42.9816360474,41.1093063354,75.2730178833,0.0661890507,-0.0108485818,-0.0073662996,
117.163,-3.2962017059,1.4184672832,12.2366456985,0.0555161163,0.0457615070,0.0053797364,-111.8617553711,73.0239791870,44.2742691040,0.0306457877,0.0657759011,0.0138514042,17.3885993958,83.2725830078,90.0485153198,0.0243647099,0.0249919891,0.0207443535,42.9800682068,41.1074905396,75.2786178589,0.0715363026,-0.0128008127,-0.0034900904,
117.173,-3.2972788811,1.4193800688,12.2364940643,0.0609031357,0.0408974290,0.0058693886,-111.8648071289,73.0230560303,44.2763214111,0.0321059227,0.0584600866,0.0065473914,17.3843708038,83.2701950073,90.0522384644,0.0268012285,0.0259647667,0.0250973701,42.9745025635,41.1093177795,75.2817993164,0.0622829795,-0.0244516730,0.0033119917,
117.183,-3.2958762646,1.4194149971,12.2383184433,0.0579740591,0.0472206585,0.0073330402,-111.8725662231,73.0220642090,44.2736587524,0.0257532597,0.0628546178,0.0056137443,17.3616161346,83.2683258057,90.0382308960,0.0243560076,0.0186762214,0.0279827416,42.9726295471,41.1095924377,75.2878799438,0.0730287433,-0.0136894584,-0.0045157075,
117.193,-3.2957134247,1.4198741913,12.2381315231,0.0648180097,0.0408701524,0.0107508898,-111.8761444092,73.0204315186,44.2739028931,0.0320925713,0.0609207749,0.0080822706,17.3485488892,83.2662048340,90.0344390869,0.0272813439,0.0206445456,0.0250107348,42.9711074829,41.1085014343,75.2934188843,0.0720378757,-0.0190542340,-0.0069789886,
117.203,-3.2936458588,1.4203437567,12.2399435043,0.0565254204,0.0452286601,0.0097724199,-111.8703613281,73.0232315063,44.2849960327,0.0325950980,0.0628409386,0.0178031921,17.3381137848,83.2651824951,90.0314788818,0.0331386328,0.0216365159,0.0269403458,42.9723930359,41.1065635681,75.3001861572,0.0671295524,-0.0054099560,-0.0050314069,
117.213,-3.2947857380,1.4198210239,12.2404527664,0.0618873909,0.0384125859,0.0092851520,-111.8687057495,73.0231323242,44.2913551331,0.0286883712,0.0564981401,0.0134013891,17.3376731873,83.2640457153,90.0390014648,0.0292300582,0.0260261297,0.0244801044,42.9760932922,41.1077156067,75.3080062866,0.0637267232,-0.0073897243,-0.0103594065,
117.223,-3.2954590321,1.4223551750,12.2415447235,0.0555839539,0.0442836247,0.0092868805,-111.8723220825,73.0255661011,44.2930717468,0.0301656127,0.0603599250,0.0124267936,17.3489799500,83.2641983032,90.0582427979,0.0243475437,0.0274696350,0.0235144794,42.9802818298,41.1107025146,75.3171310425,0.0618128777,-0.0118011236,-0.0127381086,
117.233,-3.2956132889,1.4215600491,12.2433166504,0.0633825809,0.0437980518,0.0170988441,-111.8681259155,73.0244750977,44.3018188477,0.0311366320,0.0594077110,0.0168083310,17.3394107819,83.2617416382,90.0561523438,0.0272722244,0.0216168463,0.0259100795,42.9789695740,41.1125030518,75.3221664429,0.0633014441,-0.0171456337,-0.0083407164,
117.243,-3.2953274250,1.4209581614,12.2444667816,0.0623955131,0.0433048084,0.0122161508,-111.8652725220,73.0251159668,44.3093872070,0.0360226631,0.0662398338,0.0182555914,17.3226909637,83.2612228394,90.0481643677,0.0199469328,0.0221349597,0.0283298492,42.9800682068,41.1142997742,75.3304367065,0.0652781725,-0.0127475262,-0.0092915893,
117.253,-3.2963538170,1.4204037189,12.2462463379,0.0618975535,0.0452758223,-0.0004789829,-111.8569335938,73.0245971680,44.3244361877,0.0301606655,0.0564982295,0.0084535480,17.3061790466,83.2619171143,90.0392303467,0.0316671133,0.0133827627,0.0156377852,42.9789619446,41.1154022217,75.3370285034,0.0691989064,-0.0151696801,-0.0088042021,
117.263,-3.2968652248,1.4181041718,12.2468204498,0.0657636821,0.0428433865,0.0039153099,-111.8609161377,73.0227661133,44.3248977661,0.0360106826,0.0614008009,0.0065309405,17.3082714081,83.2597961426,90.0499725342,0.0214088559,0.0245981812,0.0263462961,42.9807777405,41.1173210144,75.3451004028,0.0589702129,-0.0117540956,-0.0097482204,
117.273,-3.2969372272,1.4169026613,12.2467613220,0.0642778799,0.0443095118,0.0127040148,-111.8613281250,73.0233688354,44.3299751282,0.0272247195,0.0609031320,0.0128766298,17.3042392731,83.2585983276,90.0551910400,0.0287306309,0.0231352746,0.0229062736,42.9778594971,41.1181030273,75.3503036499,0.0614219308,-0.0146497488,-0.0063505173,
117.283,-3.2963182926,1.4167616367,12.2478704453,0.0647636950,0.0467401408,0.0039141774,-111.8679580688,73.0248794556,44.3291587830,0.0282089710,0.0642850101,0.0065509677,17.3094882965,83.2559280396,90.0695800781,0.0238423347,0.0284827948,0.0311684906,42.9794883728,41.1178665161,75.3570861816,0.0736258626,-0.0136905909,-0.0082905889,
117.293,-3.2960574627,1.4167251587,12.2502193451,0.0628099367,0.0452707596,0.0122148395,-111.8731002808,73.0278625488,44.3300399780,0.0355483890,0.0656939745,0.0129045248,17.2995223999,83.2569503784,90.0672378540,0.0199381709,0.0206942260,0.0228739083,42.9786605835,41.1186866760,75.3619537354,0.0628944039,-0.0136764050,-0.0004792809,
