Time(sec),Gyr1_X(deg/sec),Gyr1_Y(deg/sec),Gyr1_Z(deg/sec),Acc1_X(m/s^2),Acc1_Y(m/s^2),Acc1_Z(m/s^2),Gyr2_X(deg/sec),Gyr2_Y(deg/sec),Gyr2_Z(deg/sec),Acc2_X(m/s^2),Acc2_Y(m/s^2),Acc2_Z(m/s^2),Gyr_X(deg/sec),Gyr_Y(deg/sec),Gyr_Z(deg/sec),Acc_X(m/s^2),Acc_Y(m/s^2),Acc_Z(m/s^2),Gyr_X(deg/sec),Gyr_Y(deg/sec),Gyr_Z(deg/sec),Acc_X(m/s^2),Acc_Y(m/s^2),Acc_Z(m/s^2),
158.753,-3.3162021637,1.4187980890,16.9981613159,0.0604046993,0.0456216075,0.0156539679,-115.2870178223,73.6531524658,47.7676353455,0.0284231305,0.0654147267,0.0185868740,17.1993961334,83.3203582764,122.7986679077,0.0234854817,0.0260963142,0.0223826170,43.1921310425,41.0690689087,103.1298980713,0.0695660114,-0.0063508749,-0.0043478012,
158.763,-3.3181314468,1.4166579247,16.9993152618,0.0676915795,0.0441904180,0.0093071461,-115.2985839844,73.6523513794,47.7621459961,0.0215832591,0.0629629493,0.0049721599,17.2121105194,83.3190994263,122.8192367554,0.0327602625,0.0309476852,0.0228579640,43.1921539307,41.0695495605,103.1365432739,0.0685957670,-0.0126948357,-0.0092254281,
158.773,-3.3191075325,1.4149399996,17.0010700226,0.0661967620,0.0432308987,0.0058894753,-115.2922058105,73.6511840820,47.7745780945,0.0318314433,0.0590864420,0.0176474452,17.2197208405,83.3185119629,122.8380050659,0.0259231329,0.0216523409,0.0218762755,43.1952400208,41.0713577271,103.1461868286,0.0686195493,-0.0122221708,-0.0155313611,
158.783,-3.3229379654,1.4151706696,17.0032691956,0.0657124966,0.0354851149,0.0005224943,-115.2940216064,73.6515121460,47.7839698792,0.0289033651,0.0683550537,0.0103289485,17.2438430786,83.3197402954,122.8733367920,0.0200662613,0.0245404541,0.0233749151,43.1950721741,41.0695953369,103.1561126709,0.0700611472,-0.0122343302,-0.0013867021,
158.793,-3.3238384724,1.4133977890,17.0044364929,0.0642167255,0.0413602144,0.0083350539,-115.2943649292,73.6520156860,47.7978515625,0.0274410248,0.0624874532,0.0186276436,17.2578067780,83.3232116699,122.8990173340,0.0244678259,0.0245303810,0.0166036487,43.1969490051,41.0709686279,103.1663208008,0.0642198920,-0.0083352327,-0.0052645802,
158.803,-3.3261492252,1.4125949144,17.0073738098,0.0632261485,0.0384708010,0.0054074526,-115.3020019531,73.6526336670,47.8083915710,0.0284206271,0.0624614060,0.0118213892,17.2655925751,83.3242340088,122.9196548462,0.0234933496,0.0250088871,0.0185796618,43.1951332092,41.0724029541,103.1755905151,0.0617974401,-0.0185604692,-0.0042923689,
158.813,-3.3266730309,1.4146143198,17.0083751678,0.0593551397,0.0384798795,0.0039439797,-115.3032989502,73.6514282227,47.8236503601,0.0279263854,0.0546645820,0.0089060664,17.2841377258,83.3264007568,122.9518127441,0.0249626040,0.0220532417,0.0117885470,43.1938552856,41.0738525391,103.1837387085,0.0608398914,-0.0146305561,-0.0003854632,
158.823,-3.3267927170,1.4170430899,17.0094318390,0.0579326712,0.0462943986,0.0039451122,-115.3104171753,73.6500473022,47.8293380737,0.0288962126,0.0541819334,0.0045530796,17.3043231964,83.3277893066,122.9823608398,0.0220357180,0.0264157057,0.0162206292,43.1899490356,41.0741310120,103.1884994507,0.0662146807,-0.0214268565,-0.0013950467,
158.833,-3.3254611492,1.4170975685,17.0105342865,0.0618398711,0.0428532399,0.0010139942,-115.3113479614,73.6474609375,47.8361778259,0.0269303322,0.0493370891,0.0055522919,17.2991504669,83.3287277222,122.9859924316,0.0269204378,0.0205705166,0.0191591382,43.1850852966,41.0709342957,103.1926498413,0.0691023469,-0.0194521546,0.0043938756,
158.843,-3.3262565136,1.4136323929,17.0135898590,0.0661739409,0.0394492075,0.0068726540,-115.3146209717,73.6474151611,47.8382530212,0.0269300938,0.0488423109,0.0094735026,17.3001194000,83.3333435059,122.9942855835,0.0288829207,0.0225456059,0.0119126439,43.1838531494,41.0726013184,103.1977005005,0.0637531281,-0.0204038620,-0.0082986951,
158.853,-3.3268854618,1.4143900871,17.0141811371,0.0530035682,0.0423898324,0.0054088235,-115.3039855957,73.6465835571,47.8501319885,0.0279026031,0.0488769114,0.0128499866,17.2692642212,83.3344345093,122.9696426392,0.0283968449,0.0177287161,0.0172818303,43.1819801331,41.0725746155,103.2008514404,0.0720535517,-0.0203860402,-0.0044094920,
158.863,-3.3295698166,1.4144618511,17.0159549713,0.0598407611,0.0458545536,0.0029702783,-115.3168334961,73.6470870972,47.8370170593,0.0259519219,0.0566547513,-0.0012563467,17.2774810791,83.3342590332,122.9822082520,0.0235136747,0.0230829120,0.0172843933,43.1803321838,41.0707817078,103.2014465332,0.0681236982,-0.0150132179,-0.0029744506,
158.873,-3.3285939693,1.4145593643,17.0170764923,0.0617955886,0.0458375588,0.0039458871,-115.3163299561,73.6451339722,47.8355140686,0.0327782631,0.0561971068,0.0041263700,17.2870025635,83.3336715698,122.9954986572,0.0249773264,0.0215965807,0.0182580352,43.1806907654,41.0713768005,103.2061996460,0.0710611939,-0.0111057758,-0.0098022223,
158.883,-3.3315072060,1.4169881344,17.0175037384,0.0579317100,0.0429585464,0.0078560710,-115.3144454956,73.6395492554,47.8345947266,0.0322625637,0.0509142578,0.0119704008,17.2924861908,83.3335571289,123.0047912598,0.0279067755,0.0215849876,0.0192352533,43.1772384644,41.0709075928,103.2091369629,0.0642191172,-0.0159590244,0.0018815994,
158.893,-3.3282260895,1.4164534807,17.0180530548,0.0618286356,0.0453428254,0.0063876510,-115.3108978271,73.6330795288,47.8367767334,0.0317424536,0.0593203902,0.0154185295,17.2781333923,83.3293151855,122.9950180054,0.0283864737,0.0162205994,0.0303876996,43.1784553528,41.0714912415,103.2129287720,0.0730158687,-0.0154778361,-0.0122624040,
158.903,-3.3262274265,1.4175159931,17.0191898346,0.0584292077,0.0472611077,0.0039446950,-115.3223266602,73.6230697632,47.8240547180,0.0302283764,0.0565170050,0.0033340454,17.2871971130,83.3270797729,123.0103607178,0.0264288187,0.0240040421,0.0274273753,43.1778259277,41.0731201172,103.2167892456,0.0627834201,-0.0071582794,-0.0068838000,
158.913,-3.3276357651,1.4183942080,17.0197334290,0.0550265610,0.0394731127,0.0161536336,-115.3346481323,73.6126174927,47.8130836487,0.0287120938,0.0600682795,0.0059050322,17.2898826599,83.3245849609,123.0185852051,0.0308182836,0.0254510045,0.0264120698,43.1825027466,41.0728683472,103.2256088257,0.0740105510,-0.0086699724,-0.0136796832,
158.923,-3.3271334171,1.4222618341,17.0201473236,0.0550940409,0.0463002101,0.0098071694,-115.3509368896,73.6000747681,47.7982826233,0.0320682526,0.0563156307,0.0129034519,17.2964801788,83.3216247559,123.0332183838,0.0220232010,0.0268878341,0.0327153802,43.1861381531,41.0751457214,103.2338104248,0.0662280321,-0.0096635222,-0.0146045089,
158.933,-3.3284094334,1.4235908985,17.0199737549,0.0595117621,0.0380216129,0.0078554153,-115.3610382080,73.5871047974,47.7916870117,0.0295628905,0.0613727868,0.0105999708,17.3172645569,83.3206787109,123.0602493286,0.0312986374,0.0248888135,0.0234347582,43.1888122559,41.0763359070,103.2414016724,0.0662436485,-0.0106564164,-0.0121287107,
158.943,-3.3274757862,1.4229419231,17.0224342346,0.0580355898,0.0477709919,-0.0023993850,-115.3643722534,73.5774841309,47.7934761047,0.0265857577,0.0654174685,0.0204493999,17.3393230438,83.3179779053,123.0898895264,0.0215275288,0.0219022036,0.0277996659,43.1858940125,41.0753631592,103.2465438843,0.0691605210,-0.0121009946,0.0000433326,
158.953,-3.3283379078,1.4237197638,17.0234813690,0.0614671335,0.0394852087,0.0015079379,-115.3678588867,73.5669784546,47.7953948975,0.0265339017,0.0606850386,0.0215166211,17.3508472443,83.3209762573,123.1102447510,0.0293461084,0.0184764564,0.0161356926,43.1839523315,41.0766868591,103.2504196167,0.0667365789,-0.0154898167,-0.0033805966,
158.963,-3.3285303116,1.4213399887,17.0247364044,0.0619138926,0.0438831486,0.0044369698,-115.3781890869,73.5540847778,47.7946243286,0.0259819627,0.0584163666,0.0133542418,17.3743724823,83.3218536377,123.1417999268,0.0273947716,0.0228295624,0.0171427131,43.1817474365,41.0772590637,103.2562484741,0.0701620579,-0.0164408088,-0.0024192929,
158.973,-3.3302929401,1.4216134548,17.0263500214,0.0633835047,0.0341482274,0.0024857521,-115.3804397583,73.5448760986,47.7995376587,0.0220301747,0.0561091006,0.0148950219,17.3859367371,83.3235015869,123.1645584106,0.0225152969,0.0233028233,0.0171740651,43.1799201965,41.0750198364,103.2621078491,0.0735505819,-0.0125346184,-0.0044076443,
158.983,-3.3297581673,1.4226541519,17.0268268585,0.0585188568,0.0399982557,0.0083449483,-115.3873138428,73.5375823975,47.8005371094,0.0259003639,0.0581578612,0.0125367045,17.3719139099,83.3200912476,123.1611709595,0.0259263515,0.0179424584,0.0332251787,43.1781654358,41.0760688782,103.2692871094,0.0657518506,-0.0169040561,-0.0039265156,
158.993,-3.3287813663,1.4218988419,17.0285663605,0.0629002154,0.0414461046,0.0078555346,-115.3842544556,73.5334396362,47.8098411560,0.0258798599,0.0582265258,0.0140175223,17.3909492493,83.3218841553,123.1893386841,0.0254417062,0.0291446149,0.0151996017,43.1762809753,41.0736274719,103.2760086060,0.0671845675,-0.0100691319,0.0062903166,
159.003,-3.3291532993,1.4237651825,17.0314655304,0.0585382394,0.0429173782,0.0166456699,-115.3791046143,73.5333099365,47.8200569153,0.0297854543,0.0626338422,0.0169249177,17.3789863586,83.3233261108,123.1860046387,0.0278860331,0.0213630497,0.0176572204,43.1769752502,41.0762023926,103.2832641602,0.0608708262,-0.0149385333,-0.0054008961,
159.013,-3.3287675381,1.4236795902,17.0332431793,0.0585367493,0.0414458252,0.0117624998,-115.3702316284,73.5342712402,47.8306350708,0.0263722539,0.0587325990,0.0119954944,17.3764877319,83.3254394531,123.1901321411,0.0269137621,0.0257730484,0.0128066540,43.1728363037,41.0743980408,103.2864913940,0.0647533536,-0.0139363408,0.0057772994,
159.023,-3.3294847012,1.4224668741,17.0331802368,0.0619335547,0.0399935022,0.0063916445,-115.3586654663,73.5356140137,47.8429489136,0.0312617421,0.0562945008,0.0148635507,17.3658313751,83.3243179321,123.1856002808,0.0249583721,0.0257883966,0.0264540315,43.1741905212,41.0745658875,103.2928848267,0.0662204027,-0.0071120858,-0.0049512982,
159.033,-3.3272058964,1.4248418808,17.0325202942,0.0512328073,0.0463014022,-0.0004455447,-115.3532714844,73.5415420532,47.8497085571,0.0254316926,0.0650062561,0.0094259977,17.3566932678,83.3223266602,123.1851577759,0.0259308815,0.0218900144,0.0244628191,43.1768760681,41.0755081177,103.3004531860,0.0725804567,-0.0120131373,-0.0137079358,
159.043,-3.3264629841,1.4245198965,17.0356101990,0.0551334396,0.0448236279,0.0054128170,-115.3484573364,73.5485229492,47.8562965393,0.0274193287,0.0688173771,0.0132607818,17.3607254028,83.3220062256,123.1953506470,0.0264185071,0.0243217051,0.0220182538,43.1778259277,41.0750617981,103.3060455322,0.0676917434,-0.0086079240,-0.0112621784,
159.053,-3.3262343407,1.4245772362,17.0362358093,0.0556227230,0.0453079231,0.0112716556,-115.3460311890,73.5523986816,47.8603668213,0.0323212743,0.0633930564,0.0112690330,17.3512878418,83.3213272095,123.1913909912,0.0254405737,0.0233607292,0.0224915147,43.1801452637,41.0725212097,103.3142242432,0.0720528960,-0.0037672520,-0.0078445077,
159.063,-3.3263168335,1.4234390259,17.0380840302,0.0580442660,0.0418914184,0.0151777864,-115.3395156860,73.5588531494,47.8736648560,0.0308883190,0.0672156215,0.0146117210,17.3517398834,83.3195037842,123.2018127441,0.0269017220,0.0238384008,0.0249015689,43.1846351624,41.0714340210,103.3245315552,0.0735033751,-0.0043072104,-0.0170905590,
159.073,-3.3229074478,1.4233859777,17.0417346954,0.0585316233,0.0476914085,0.0034556389,-115.3440475464,73.5646133423,47.8773002625,0.0274987817,0.0641893148,0.0131260753,17.3465499878,83.3199157715,123.2064971924,0.0327619314,0.0209218264,0.0229551792,43.1885490417,41.0721015930,103.3342514038,0.0681411028,-0.0106871724,-0.0111902952,
159.083,-3.3242766857,1.4241844416,17.0435237885,0.0575689934,0.0482035242,0.0112697482,-115.3506851196,73.5687255859,47.8798141479,0.0319136381,0.0646017492,0.0165443420,17.3466911316,83.3199462891,123.2152938843,0.0244612098,0.0258034766,0.0219749808,43.1872901917,41.0708580017,103.3400192261,0.0700778365,-0.0165442228,-0.0048645139,
159.093,-3.3205571175,1.4259150028,17.0452270508,0.0605288781,0.0510683805,0.0049192309,-115.3527069092,73.5678024292,47.8890609741,0.0275145173,0.0621699691,0.0146068931,17.3525428772,83.3196868896,123.2332458496,0.0269020796,0.0292092860,0.0244187117,43.1852035522,41.0684051514,103.3462982178,0.0680924654,-0.0121489167,0.0033971071,
159.103,-3.3223900795,1.4241514206,17.0451755524,0.0639160722,0.0403581597,0.0078496337,-115.3653411865,73.5668716431,47.8887023926,0.0265333652,0.0597153902,0.0102757215,17.3378200531,83.3220901489,123.2322616577,0.0220241547,0.0175311863,0.0176104903,43.1817474365,41.0677108765,103.3523406982,0.0744309425,-0.0179805160,0.0009191632,
159.113,-3.3233976364,1.4245285988,17.0469036102,0.0609929673,0.0452585146,0.0054095984,-115.3754119873,73.5673599243,47.8899993896,0.0245826840,0.0587101877,0.0156883001,17.3189296722,83.3246459961,123.2244873047,0.0239824653,0.0166051984,0.0127594471,43.1817321777,41.0687408447,103.3606567383,0.0641905665,-0.0091832876,-0.0020025373,
159.123,-3.3232717514,1.4232381582,17.0474033356,0.0668298304,0.0428149402,0.0117565989,-115.3748626709,73.5663909912,47.9006690979,0.0289724469,0.0533547103,0.0181341767,17.2990417480,83.3240280151,123.2165527344,0.0225163698,0.0156646967,0.0234794617,43.1795234680,41.0706024170,103.3665542603,0.0637267828,-0.0154950619,-0.0049360394,
159.133,-3.3224186897,1.4247683287,17.0496749878,0.0614854321,0.0452414602,0.0088266134,-115.3793640137,73.5635070801,47.9045600891,0.0274933577,0.0519244969,0.0132920146,17.2960643768,83.3264007568,123.2215881348,0.0210563540,0.0220300257,0.0147265196,43.1741981506,41.0700187683,103.3708114624,0.0744613409,-0.0203313828,-0.0010831356,
159.143,-3.3212594986,1.4228502512,17.0515403748,0.0604754016,0.0442447513,0.0058951974,-115.3937988281,73.5641250610,47.8970642090,0.0265198350,0.0548141301,0.0104227066,17.2892475128,83.3229141235,123.2233963013,0.0313031673,0.0239789188,0.0302907825,43.1757164001,41.0703086853,103.3775863647,0.0676292181,-0.0139960051,-0.0079028010,
159.153,-3.3201019764,1.4232498407,17.0513572693,0.0648769066,0.0422714539,0.0068703294,-115.3958740234,73.5628509521,47.8985824585,0.0279783607,0.0518987179,0.0094646215,17.2744464874,83.3241424561,123.2143249512,0.0200752020,0.0176667571,0.0200481415,43.1736602783,41.0693359375,103.3818435669,0.0700578094,-0.0154487491,-0.0049997568,
159.163,-3.3195579052,1.4228503704,17.0525455475,0.0594988428,0.0442151055,0.0112646818,-115.4022293091,73.5606918335,47.8927841187,0.0333387852,0.0553363264,0.0085319281,17.2817211151,83.3263778687,123.2290649414,0.0230094194,0.0215700269,0.0156944990,43.1717605591,41.0700988770,103.3860168457,0.0666499138,-0.0188423991,-0.0020804405,
159.173,-3.3187448978,1.4245526791,17.0536384583,0.0585519820,0.0451774709,0.0107758641,-115.3930053711,73.5614166260,47.9030838013,0.0284595490,0.0607160032,0.0202041864,17.2753791809,83.3268508911,123.2295837402,0.0283814669,0.0196318030,0.0181399584,43.1756668091,41.0687828064,103.3947906494,0.0690739751,-0.0071715713,-0.0113341212,
159.183,-3.3174982071,1.4244450331,17.0547561646,0.0624563508,0.0446674712,0.0024741888,-115.3990859985,73.5602035522,47.8985939026,0.0304067135,0.0592564642,0.0129158497,17.2717266083,83.3251495361,123.2334518433,0.0283780098,0.0210947692,0.0229909420,43.1772994995,41.0674476624,103.4005737305,0.0749157667,-0.0140336752,-0.0088889599,
159.193,-3.3186452389,1.4258469343,17.0570983887,0.0575979985,0.0446874201,0.0073585510,-115.3914260864,73.5584335327,47.9076766968,0.0274682641,0.0617407262,0.0153355598,17.2828407288,83.3244094849,123.2513732910,0.0249585509,0.0235112607,0.0283597708,43.1799087524,41.0681533813,103.4080429077,0.0690656900,-0.0116117597,-0.0093479156,
159.203,-3.3171813488,1.4265457392,17.0581817627,0.0620047227,0.0431970581,0.0088219047,-115.3780212402,73.5558242798,47.9229316711,0.0284319520,0.0588786602,0.0196887255,17.2811431885,83.3212051392,123.2583694458,0.0220223665,0.0264270306,0.0287905931,43.1776580811,41.0685119629,103.4118347168,0.0632110238,-0.0125638247,-0.0025292039,
159.213,-3.3185861111,1.4264366627,17.0587730408,0.0561434440,0.0417566858,0.0093122125,-115.3642120361,73.5513381958,47.9400024414,0.0259683728,0.0579995513,0.0181940794,17.2788105011,83.3205032349,123.2659301758,0.0249506235,0.0215460658,0.0273162127,43.1808547974,41.0706138611,103.4211120605,0.0681215525,-0.0106250048,-0.0122483969,
159.223,-3.3179776669,1.4267579317,17.0611705780,0.0571256131,0.0422343612,0.0083346367,-115.3601531982,73.5487899780,47.9493522644,0.0230261087,0.0604875386,0.0118463635,17.2628612518,83.3188018799,123.2599945068,0.0249471664,0.0196152329,0.0267884731,43.1758003235,41.0708389282,103.4231948853,0.0661713481,-0.0130160451,-0.0000850558,
159.233,-3.3158600330,1.4260082245,17.0623493195,0.0629719123,0.0475685894,0.0137034655,-115.3481750488,73.5436096191,47.9658699036,0.0303246975,0.0591265857,0.0172009468,17.2522125244,83.3216781616,123.2573547363,0.0278826952,0.0201394856,0.0126704574,43.1776695251,41.0707969666,103.4301757813,0.0666590929,-0.0081515312,-0.0029981136,
159.243,-3.3173077106,1.4281831980,17.0615520477,0.0586153269,0.0417343751,0.0093114972,-115.3444824219,73.5389099121,47.9742813110,0.0268834829,0.0592051446,0.0103819370,17.2479782104,83.3210372925,123.2617416382,0.0269048214,0.0245385170,0.0219323039,43.1785469055,41.0730285645,103.4377136230,0.0657119155,-0.0140019059,-0.0122494102,
159.253,-3.3164432049,1.4272731543,17.0627670288,0.0610408559,0.0475787111,0.0039389729,-115.3394699097,73.5353164673,47.9839324951,0.0288188457,0.0646408796,0.0069671273,17.2527828217,83.3215637207,123.2732543945,0.0347183943,0.0255086124,0.0238984227,43.1812400818,41.0735893250,103.4449844360,0.0706020594,-0.0130466223,-0.0161257982,
159.263,-3.3165631294,1.4271579981,17.0626754761,0.0605505630,0.0397683047,0.0156578422,-115.3296737671,73.5311813354,47.9977188110,0.0263569951,0.0564233661,0.0137885809,17.2441768646,83.3222656250,123.2727737427,0.0249541998,0.0191816390,0.0199990273,43.1793479919,41.0747985840,103.4500579834,0.0662234426,-0.0144839883,-0.0053917170,
159.273,-3.3164849281,1.4257007837,17.0632419586,0.0629665405,0.0426966660,0.0078446865,-115.3273696899,73.5295410156,48.0055541992,0.0248840451,0.0642654598,0.0098837614,17.2354412079,83.3227615356,123.2732849121,0.0239786506,0.0240841508,0.0229312778,43.1805534363,41.0748138428,103.4574127197,0.0701298714,-0.0135187507,-0.0107509494,
159.283,-3.3173751831,1.4280506372,17.0654239655,0.0630075485,0.0412472710,0.0117523670,-115.3331909180,73.5262069702,48.0053329468,0.0268206596,0.0564908385,0.0089570880,17.2212066650,83.3222656250,123.2677536011,0.0230010748,0.0206916928,0.0248676538,43.1795082092,41.0752372742,103.4643630981,0.0652526617,-0.0149704814,-0.0034336448,
159.293,-3.3178086281,1.4270114899,17.0671596527,0.0639659762,0.0407665670,0.0097998977,-115.3344039917,73.5251846313,48.0101737976,0.0238859057,0.0608982742,0.0079932809,17.2371730804,83.3257598877,123.2916259766,0.0215433240,0.0260489583,0.0107738972,43.1751518250,41.0719871521,103.4672012329,0.0700926781,-0.0144656897,0.0008953810,
159.303,-3.3182716370,1.4265933037,17.0670738220,0.0615172721,0.0407746434,0.0127293468,-115.3413848877,73.5235900879,48.0095329285,0.0282725096,0.0560248196,0.0070595145,17.2298069000,83.3243789673,123.2934875488,0.0288647413,0.0241033137,0.0239304304,43.1742134094,41.0719261169,103.4742965698,0.0676504970,-0.0149455667,-0.0074147582,
159.313,-3.3169996738,1.4267970324,17.0675830841,0.0634739548,0.0490532629,0.0049159527,-115.3538970947,73.5248260498,48.0034408569,0.0302317739,0.0633037388,0.0066184998,17.2098102570,83.3218536377,123.2814407349,0.0273947716,0.0241300464,0.0272954702,43.1700897217,41.0734291077,103.4778976440,0.0632757545,-0.0202651620,-0.0035325289,
159.323,-3.3173193932,1.4261589050,17.0693931580,0.0580917262,0.0412463509,0.0044278502,-115.3734054565,73.5256576538,47.9902572632,0.0248647928,0.0617849231,0.0032821894,17.2007713318,83.3220596313,123.2798690796,0.0278834701,0.0212192237,0.0214340091,43.1705551147,41.0719757080,103.4844512939,0.0710690618,-0.0080741048,-0.0035409331,
159.333,-3.3181235790,1.4272962809,17.0704269409,0.0625061020,0.0417486094,0.0058935285,-115.3841018677,73.5276641846,47.9860038757,0.0297575593,0.0627084672,0.0072219968,17.1794567108,83.3207321167,123.2667922974,0.0254393816,0.0163717568,0.0301886201,43.1702613831,41.0725746155,103.4908065796,0.0715652704,-0.0163673162,-0.0084213018,
159.343,-3.3164989948,1.4260727167,17.0722217560,0.0624847487,0.0436734632,0.0102862120,-115.3891677856,73.5296325684,47.9870452881,0.0278141499,0.0577853322,0.0116254091,17.1815929413,83.3212661743,123.2782669067,0.0259287357,0.0197881758,0.0170149207,43.1718750000,41.0728836060,103.4991760254,0.0666865110,-0.0119858384,-0.0113338232,
159.353,-3.3180725574,1.4267338514,17.0733547211,0.0576134771,0.0412594527,0.0014989376,-115.3934707642,73.5344009399,47.9884605408,0.0297908783,0.0625869036,0.0120986700,17.1907749176,83.3203277588,123.2956619263,0.0308096409,0.0212298036,0.0248160958,43.1717491150,41.0753974915,103.5054016113,0.0637899041,-0.0139180422,-0.0113138556,
159.363,-3.3187468052,1.4268184900,17.0744342804,0.0620094836,0.0378532261,0.0088239312,-115.4067916870,73.5354537964,47.9802665710,0.0293077826,0.0591251254,0.0043385625,17.1993656158,83.3223266602,123.3140716553,0.0317902565,0.0226881504,0.0146015286,43.1752815247,41.0784873962,103.5166625977,0.0667602420,-0.0105097890,-0.0136976242,
159.373,-3.3203840256,1.4267132282,17.0749855042,0.0605427995,0.0452059619,0.0127317905,-115.4140548706,73.5364990234,47.9794960022,0.0298012495,0.0561641157,0.0131526589,17.2271747589,83.3235015869,123.3505172729,0.0288629532,0.0265454650,0.0200083852,43.1729774475,41.0786170959,103.5217895508,0.0677385330,-0.0148811340,-0.0029754043,
159.383,-3.3177869320,1.4286094904,17.0754299164,0.0595993251,0.0451606773,0.0019878745,-115.4228668213,73.5392990112,47.9785919189,0.0268853903,0.0609860122,0.0131720304,17.2444610596,83.3270568848,123.3783187866,0.0244756341,0.0231114626,0.0117760301,43.1744651794,41.0807113647,103.5307388306,0.0658129454,-0.0095078349,-0.0092918873,
159.393,-3.3195891380,1.4282170534,17.0777149200,0.0639870092,0.0359147377,0.0102899075,-115.4226074219,73.5422515869,47.9865760803,0.0249469280,0.0594768226,0.0190090537,17.2443103790,83.3277893066,123.3879776001,0.0274068117,0.0250686109,0.0205769539,43.1749076843,41.0801734924,103.5393218994,0.0648293495,-0.0129342675,-0.0039212704,
159.403,-3.3212180138,1.4276943207,17.0781822205,0.0639778897,0.0388728119,0.0078505278,-115.4184799194,73.5438842773,47.9992065430,0.0308143497,0.0545785427,0.0175141692,17.2404899597,83.3280868530,123.3940429688,0.0254542828,0.0221479237,0.0205794573,43.1734771729,41.0804214478,103.5453643799,0.0619028807,-0.0109654665,-0.0005142093,
159.413,-3.3206005096,1.4248635769,17.0776576996,0.0609988123,0.0447214991,0.0049185753,-115.4167633057,73.5431747437,48.0081901550,0.0249514580,0.0560579300,0.0165348649,17.2300434113,83.3282012939,123.3923568726,0.0274076462,0.0192392766,0.0239925385,43.1741714478,41.0798034668,103.5539398193,0.0658010244,-0.0104886889,-0.0107668638,
159.423,-3.3220775127,1.4237533808,17.0800037384,0.0643974096,0.0413292907,0.0112674236,-115.4197692871,73.5416412354,48.0120239258,0.0288501382,0.0565629303,0.0111882091,17.2327442169,83.3276748657,123.4053268433,0.0235003233,0.0299735069,0.0205676556,43.1758499146,41.0768775940,103.5635070801,0.0716218948,-0.0075981021,-0.0097997189,
159.433,-3.3228754997,1.4257586002,17.0823059082,0.0575964600,0.0437845401,0.0063862205,-115.4114456177,73.5402297974,48.0260543823,0.0312845707,0.0595311821,0.0165321827,17.2333145142,83.3284683228,123.4151077271,0.0269199014,0.0250935853,0.0225341320,43.1751022339,41.0758399963,103.5704727173,0.0691668391,-0.0100404620,-0.0078619719,
159.443,-3.3235580921,1.4248497486,17.0834503174,0.0609985702,0.0379370786,0.0029686689,-115.4089050293,73.5373382568,48.0341300964,0.0341999531,0.0581150949,0.0072640777,17.2455081940,83.3253173828,123.4341354370,0.0239838362,0.0265185833,0.0303030014,43.1734352112,41.0762634277,103.5763778687,0.0633130074,-0.0163688064,-0.0054318905,
159.453,-3.3212838173,1.4261738062,17.0851306915,0.0619982332,0.0481513403,0.0063849092,-115.4146575928,73.5344924927,48.0338478088,0.0288147926,0.0605873466,-0.0029436350,17.2435188293,83.3262023926,123.4395828247,0.0317981243,0.0231087804,0.0264092088,43.1740722656,41.0768394470,103.5841751099,0.0662503242,-0.0109993219,-0.0103045702,
159.463,-3.3187689781,1.4251142740,17.0856781006,0.0658859983,0.0490841195,0.0083349943,-115.3955459595,73.5319442749,48.0554199219,0.0278255939,0.0499244034,0.0189616084,17.2363471985,83.3296127319,123.4405441284,0.0264339447,0.0211869180,0.0215772986,43.1752891541,41.0791740417,103.5911254883,0.0604216456,-0.0114809871,-0.0063678026,
159.473,-3.3174891472,1.4263876677,17.0873775482,0.0600488409,0.0446672626,0.0068693161,-115.3816680908,73.5319213867,48.0719490051,0.0302668810,0.0563013852,0.0164580941,17.2503070831,83.3289031982,123.4624786377,0.0259442329,0.0250620842,0.0176678300,43.1722984314,41.0806961060,103.5958480835,0.0677658319,-0.0177879930,-0.0073582530,
159.483,-3.3172528744,1.4257996082,17.0891666412,0.0600385815,0.0431983173,0.0039392114,-115.3795089722,73.5298004150,48.0784606934,0.0283032656,0.0534089208,0.0125572681,17.2704772949,83.3265533447,123.4912033081,0.0244746208,0.0294054151,0.0283854604,43.1728172302,41.0803413391,103.6026992798,0.0667846203,-0.0138894320,-0.0049151778,
159.493,-3.3157010078,1.4282385111,17.0902252197,0.0581280105,0.0456126407,0.0112630129,-115.3847045898,73.5307235718,48.0778236389,0.0248898864,0.0631496310,0.0018318295,17.2865600586,83.3246459961,123.5147552490,0.0239824653,0.0249693692,0.0259221196,43.1757469177,41.0796623230,103.6114501953,0.0721468329,-0.0119698644,-0.0102660060,
159.503,-3.3159856796,1.4295822382,17.0925750732,0.0576631725,0.0456175618,0.0029630661,-115.3881607056,73.5330505371,48.0785827637,0.0278310776,0.0611539781,0.0140377283,17.2744693756,83.3273468018,123.5112762451,0.0210582614,0.0225654244,0.0166813135,43.1714973450,41.0790901184,103.6156463623,0.0648150444,-0.0187694430,0.0014100671,
159.513,-3.3160161972,1.4271039963,17.0938243866,0.0625027418,0.0422001891,0.0112627745,-115.3896484375,73.5333099365,48.0825309753,0.0297854543,0.0601704121,0.0076949000,17.2743911743,83.3290176392,123.5205383301,0.0298507214,0.0196442604,0.0152431726,43.1717491150,41.0789718628,103.6215896606,0.0711611509,-0.0177962780,-0.0073780417,
159.523,-3.3146338463,1.4273692369,17.0949840546,0.0590894073,0.0451057851,0.0044255257,-115.3925018311,73.5321731567,48.0852355957,0.0302681327,0.0606696308,0.0130869150,17.2638492584,83.3281402588,123.5192108154,0.0244778395,0.0225903690,0.0210822821,43.1723251343,41.0784988403,103.6287689209,0.0696901083,-0.0148757100,-0.0049348474,
159.533,-3.3136916161,1.4258747101,17.0967998505,0.0634578615,0.0455776900,0.0107712746,-115.3982009888,73.5316543579,48.0861625671,0.0283124447,0.0587123930,0.0057920218,17.2689380646,83.3294372559,123.5348358154,0.0244804621,0.0206341445,0.0181782842,43.1724433899,41.0748291016,103.6333618164,0.0745246410,-0.0119759440,-0.0059412122,
159.543,-3.3134274483,1.4271937609,17.0985069275,0.0576214977,0.0411785319,0.0029592514,-115.4005355835,73.5311508179,48.0911331177,0.0273333788,0.0611558855,0.0072709322,17.2685699463,83.3305511475,123.5421066284,0.0337600708,0.0172219574,0.0191704035,43.1726646423,41.0755729675,103.6416168213,0.0662336349,-0.0134370923,-0.0122806430,
159.553,-3.3131704330,1.4283579588,17.1002140045,0.0581300929,0.0411740243,0.0019829273,-115.4048080444,73.5313720703,48.0931549072,0.0292876363,0.0606557131,0.0121712685,17.2693233490,83.3284912109,123.5526504517,0.0283848047,0.0259996653,0.0289052129,43.1692733765,41.0755729675,103.6457824707,0.0681867599,-0.0143810511,-0.0035220385,
159.563,-3.3150820732,1.4277766943,17.1019592285,0.0620262027,0.0421838984,0.0005199909,-115.4054412842,73.5296325684,48.0968780518,0.0263493061,0.0597036183,0.0126748681,17.2823848724,83.3289031982,123.5732269287,0.0254559517,0.0235341191,0.0230584145,43.1706314087,41.0720977783,103.6515426636,0.0759534836,-0.0041675568,-0.0045154691,
159.573,-3.3133893013,1.4263068438,17.1026115417,0.0585825853,0.0441075750,0.0034472942,-115.3967056274,73.5270156860,48.1080780029,0.0253598094,0.0514608026,0.0136311054,17.2695770264,83.3278808594,123.5677337646,0.0264304280,0.0230662823,0.0215708017,43.1766052246,41.0747833252,103.6610260010,0.0676880479,-0.0085983872,-0.0112755895,
159.583,-3.3110044003,1.4254623652,17.1032466888,0.0585678518,0.0465074629,0.0044210553,-115.3993988037,73.5257492065,48.1075668335,0.0336543322,0.0602632761,0.0082809925,17.2700061798,83.3278808594,123.5768585205,0.0235007405,0.0216006935,0.0171767473,43.1777229309,41.0761566162,103.6682205200,0.0677061677,-0.0134811401,-0.0068593621,
159.593,-3.3109786510,1.4247756004,17.1044406891,0.0605089962,0.0445538983,0.0112568140,-115.4015197754,73.5251007080,48.1085433960,0.0219323635,0.0568510294,0.0112248063,17.2700939178,83.3271179199,123.5849151611,0.0327765346,0.0235496461,0.0186287761,43.1796455383,41.0761413574,103.6759719849,0.0647762418,-0.0076403022,-0.0034239888,
159.603,-3.3090445995,1.4251855612,17.1044311523,0.0585630238,0.0513561368,0.0112549663,-115.4038391113,73.5226898193,48.1105995178,0.0272915363,0.0563940704,0.0102759004,17.2590637207,83.3267898560,123.5811996460,0.0293579102,0.0250344574,0.0191046000,43.1802368164,41.0738868713,103.6822128296,0.0725591183,-0.0105932951,-0.0044140816,
159.613,-3.3078739643,1.4242674112,17.1037654877,0.0629415363,0.0444998406,0.0068584085,-115.4051895142,73.5231857300,48.1154136658,0.0209463239,0.0607780218,0.0141847730,17.2611408234,83.3284912109,123.5920104980,0.0230137110,0.0206442773,0.0201096535,43.1778831482,41.0739212036,103.6880645752,0.0671884418,-0.0183829665,-0.0073646903,
159.623,-3.3081498146,1.4254431725,17.1072635651,0.0610089265,0.0410866477,0.0141840577,-115.4104919434,73.5235137939,48.1169853210,0.0316901207,0.0617384613,0.0122530460,17.2579879761,83.3257904053,123.5973739624,0.0249613523,0.0269846618,0.0239706039,43.1757736206,41.0744590759,103.6937026978,0.0686603785,-0.0124992132,-0.0034732819,
159.633,-3.3086175919,1.4259711504,17.1096229553,0.0585767291,0.0406064950,0.0093010664,-115.4105453491,73.5232772827,48.1263084412,0.0199701786,0.0563707948,0.0127432942,17.2532176971,83.3283157349,123.6025085449,0.0259430408,0.0216355026,0.0157071948,43.1752471924,41.0720443726,103.7005691528,0.0735113621,-0.0120248199,-0.0000799298,
159.643,-3.3084983826,1.4246432781,17.1102046967,0.0624598116,0.0449989885,0.0063714385,-115.4106674194,73.5231628418,48.1333999634,0.0282704234,0.0573487282,0.0161626935,17.2506046295,83.3302536011,123.6086044312,0.0298532248,0.0201859176,0.0186679363,43.1766319275,41.0710983276,103.7089538574,0.0686161518,-0.0120454431,-0.0020285249,
159.653,-3.3083395958,1.4235615730,17.1120109558,0.0619526580,0.0449962467,0.0093004704,-115.4148483276,73.5215225220,48.1381111145,0.0272857547,0.0534582138,0.0074040294,17.2574939728,83.3300247192,123.6253280640,0.0274113417,0.0245656669,0.0186681151,43.1798439026,41.0726051331,103.7196502686,0.0647297502,-0.0110880136,-0.0107760429,
159.663,-3.3089289665,1.4248400927,17.1131248474,0.0575804338,0.0425650738,0.0010002851,-115.4220504761,73.5195999146,48.1361503601,0.0292293429,0.0578666031,0.0054971576,17.2424163818,83.3275527954,123.6194915771,0.0308243036,0.0221412182,0.0239890218,43.1804885864,41.0734062195,103.7262573242,0.0618105531,-0.0145058036,-0.0073456168,
159.673,-3.3122773170,1.4213954210,17.1149768829,0.0614265800,0.0328578614,0.0029560328,-115.4162445068,73.5205764771,48.1463623047,0.0277693272,0.0593289733,0.0162062049,17.2310104370,83.3262634277,123.6161880493,0.0259388685,0.0221573710,0.0307978988,43.1788978577,41.0749702454,103.7325668335,0.0628077388,-0.0125251412,-0.0039289594,
159.683,-3.3149893284,1.4222835302,17.1160316467,0.0614420772,0.0392527319,0.0117476583,-115.4131546021,73.5213928223,48.1532440186,0.0341210365,0.0573702753,0.0137449503,17.2310867310,83.3238220215,123.6242752075,0.0249573588,0.0236096978,0.0229455829,43.1806907654,41.0755653381,103.7413330078,0.0716046095,-0.0096080303,-0.0083023310,
159.693,-3.3162226677,1.4231033325,17.1170883179,0.0614563823,0.0402507596,0.0054019094,-115.4104614258,73.5243988037,48.1586227417,0.0273000002,0.0612367988,0.0127348304,17.2496051788,83.3217391968,123.6471786499,0.0210468769,0.0250276029,0.0268293023,43.1793899536,41.0755996704,103.7462921143,0.0657457113,-0.0100834966,0.0029168129,
159.703,-3.3155958652,1.4235116243,17.1170310974,0.0585338175,0.0446343608,0.0102839470,-115.4090728760,73.5267181396,48.1641120911,0.0282880068,0.0592517853,0.0097823143,17.2385253906,83.3215332031,123.6422653198,0.0273941159,0.0245600939,0.0253542662,43.1831970215,41.0789489746,103.7523651123,0.0623717904,-0.0130235553,-0.0126463175,
159.713,-3.3154377937,1.4240107536,17.1186790466,0.0624487773,0.0387722217,-0.0014344454,-115.3942794800,73.5288772583,48.1813201904,0.0263455510,0.0597387850,0.0219075084,17.2422065735,83.3207931519,123.6557159424,0.0269043446,0.0260138214,0.0229027271,43.1810836792,41.0790901184,103.7575759888,0.0706744790,-0.0139784813,-0.0028976798,
159.723,-3.3144893646,1.4252393246,17.1204185486,0.0600288063,0.0499861352,0.0014944077,-115.3974304199,73.5288772583,48.1816749573,0.0331814885,0.0636385679,0.0087381601,17.2241744995,83.3203277588,123.6472091675,0.0225088596,0.0153048635,0.0272789001,43.1827468872,41.0813026428,103.7666244507,0.0599613190,-0.0110476613,-0.0077480078,
159.733,-3.3160190582,1.4261845350,17.1220531464,0.0634632632,0.0412236974,0.0102857351,-115.3968429565,73.5284042358,48.1892738342,0.0297611952,0.0626703203,0.0141098499,17.2392864227,83.3178634644,123.6709671021,0.0249452591,0.0255165696,0.0252949595,43.1827888489,41.0824470520,103.7718200684,0.0702303648,-0.0173866153,-0.0126199722,
159.743,-3.3149895668,1.4239804745,17.1219654083,0.0697724670,0.0460886322,0.0083307624,-115.4048919678,73.5263900757,48.1898727417,0.0292629600,0.0607305765,0.0034183860,17.2551307678,83.3150711060,123.6947860718,0.0259161592,0.0279126465,0.0262356997,43.1803741455,41.0821952820,103.7777099609,0.0658324957,-0.0129710436,-0.0048324466,
159.753,-3.3156535625,1.4229658842,17.1230716705,0.0658485144,0.0421939753,0.0083310604,-115.4057922363,73.5267791748,48.1956825256,0.0287765861,0.0553517342,0.0136734843,17.2611026764,83.3146896362,123.7100906372,0.0283567905,0.0220396221,0.0233036280,43.1787796021,41.0810699463,103.7816009521,0.0702121854,-0.0129644275,-0.0068084598,
159.763,-3.3163704872,1.4227980375,17.1241798401,0.0624276139,0.0422064625,-0.0038757324,-115.4105072021,73.5237503052,48.1961631775,0.0277850628,0.0509928465,0.0122514367,17.2532653809,83.3148040771,123.7092285156,0.0229859352,0.0176611245,0.0223241448,43.1748123169,41.0827674866,103.7848205566,0.0673048496,-0.0221903324,-0.0004823208,
159.773,-3.3150327206,1.4214545488,17.1247425079,0.0648455769,0.0470660143,0.0112592578,-115.4004211426,73.5220336914,48.2096786499,0.0282648206,0.0539694130,0.0195426345,17.2575759888,83.3172760010,123.7234573364,0.0244557858,0.0210831761,0.0189495087,43.1731605530,41.0827598572,103.7906112671,0.0712109804,-0.0153387189,-0.0009860396,
159.783,-3.3125290871,1.4225782156,17.1270561218,0.0634003431,0.0509286262,0.0219994187,-115.4053039551,73.5227508545,48.2077674866,0.0341277719,0.0627377629,0.0141884089,17.2546386719,83.3159790039,123.7293090820,0.0312891006,0.0191292167,0.0228325725,43.1721611023,41.0803413391,103.7969360352,0.0692260265,-0.0099769831,-0.0010149479,
159.793,-3.3129444122,1.4253206253,17.1262245178,0.0585653782,0.0411701649,0.0029581785,-115.4195327759,73.5198516846,48.1980972290,0.0263009071,0.0554268360,0.0010893941,17.2547264099,83.3143997192,123.7374343872,0.0239616632,0.0249800682,0.0247584581,43.1700325012,41.0800971985,103.8017044067,0.0638517737,-0.0143529773,0.0028700829,
159.803,-3.3107321262,1.4268133640,17.1268310547,0.0527320504,0.0479675233,0.0112573504,-115.4124450684,73.5172500610,48.2086486816,0.0336122513,0.0515743792,0.0162129402,17.2568511963,83.3132324219,123.7487869263,0.0259124041,0.0235053599,0.0223004222,43.1686325073,41.0812072754,103.8073577881,0.0609366894,-0.0143308043,-0.0020159483,
159.813,-3.3087265491,1.4280599356,17.1285705566,0.0581248924,0.0450028703,0.0107675791,-115.4034042358,73.5178680420,48.2229423523,0.0248262286,0.0579321980,0.0147030950,17.2579345703,83.3133163452,123.7585144043,0.0273774266,0.0215505958,0.0183964968,43.1681404114,41.0823822021,103.8140716553,0.0609521270,-0.0084574819,-0.0049402714,
159.823,-3.3102202415,1.4306008816,17.1313762665,0.0601223558,0.0391694531,0.0063756108,-115.4052352905,73.5169143677,48.2267265320,0.0267746449,0.0579426587,0.0117884278,17.2644290924,83.3144836426,123.7725296021,0.0210321546,0.0225202143,0.0237902999,43.1639709473,41.0830078125,103.8174972534,0.0634017587,-0.0147601962,-0.0059490800,
159.833,-3.3077161312,1.4310141802,17.1331424713,0.0611061268,0.0488914512,0.0122326016,-115.4109725952,73.5153198242,48.2257499695,0.0311612487,0.0589310527,0.0049896836,17.2524299622,83.3143997192,123.7716140747,0.0229851007,0.0220551789,0.0208520293,43.1625518799,41.0829238892,103.8238754272,0.0692600012,-0.0181653500,-0.0069395900,
159.843,-3.3095192909,1.4321017265,17.1335735321,0.0625899434,0.0425751731,0.0068639517,-115.4184188843,73.5152282715,48.2236251831,0.0340905190,0.0603819788,0.0064886212,17.2610301971,83.3157501221,123.7878417969,0.0268940926,0.0186271369,0.0199028850,43.1605758667,41.0819435120,103.8292236328,0.0692471266,-0.0147359967,-0.0040354729,
159.853,-3.3099651337,1.4329109192,17.1340847015,0.0591860972,0.0430712029,0.0039346218,-115.4038925171,73.5164489746,48.2403945923,0.0282371640,0.0574643016,0.0225279927,17.2704315186,83.3155136108,123.8050689697,0.0293350220,0.0288613439,0.0203931928,43.1592941284,41.0842666626,103.8340911865,0.0673245192,-0.0137288570,-0.0133048892,
159.863,-3.3073480129,1.4332433939,17.1352386475,0.0611450225,0.0493732579,0.0088153481,-115.4070739746,73.5165176392,48.2403526306,0.0214015841,0.0638038516,0.0049635768,17.2782936096,83.3139877319,123.8203506470,0.0229842663,0.0234671831,0.0213503242,43.1595993042,41.0847244263,103.8405990601,0.0668423176,-0.0083571076,-0.0069506168,
159.873,-3.3083755970,1.4334100485,17.1357727051,0.0591948032,0.0410903729,0.0010039806,-115.4090957642,73.5160140991,48.2422294617,0.0282350183,0.0603895485,0.0108356476,17.2666053772,83.3130187988,123.8181304932,0.0268885493,0.0181136429,0.0237664580,43.1605377197,41.0835227966,103.8473892212,0.0697561502,-0.0103287101,-0.0040229559,
159.883,-3.3087663651,1.4344292879,17.1368408203,0.0606774315,0.0410971530,0.0029576421,-115.4078826904,73.5186004639,48.2492752075,0.0228767395,0.0667007565,0.0152061582,17.2733459473,83.3142776489,123.8339614868,0.0234731436,0.0249434412,0.0159817338,43.1633110046,41.0829544067,103.8566818237,0.0682838559,-0.0137776732,-0.0088850260,
159.893,-3.3075311184,1.4338644743,17.1391487122,0.0665269494,0.0444936268,0.0049096346,-115.4103546143,73.5207672119,48.2527160645,0.0238640308,0.0608035922,0.0093424320,17.2903099060,83.3171539307,123.8594207764,0.0273852348,0.0312713087,0.0145702958,43.1627693176,41.0815048218,103.8619308472,0.0687531233,-0.0098776221,-0.0045076013,
159.903,-3.3082764149,1.4330625534,17.1397666931,0.0587004609,0.0440183394,0.0132107735,-115.4093704224,73.5213470459,48.2606849670,0.0297262669,0.0573788285,0.0117753148,17.2897624969,83.3173370361,123.8693542480,0.0249441862,0.0215087235,0.0219012499,43.1623725891,41.0802574158,103.8680191040,0.0692249537,-0.0118367672,-0.0079395771,
159.913,-3.3058943748,1.4314969778,17.1416015625,0.0659973621,0.0527659543,0.0141839385,-115.4210662842,73.5224761963,48.2570800781,0.0277787447,0.0592900217,0.0084016919,17.3025379181,83.3181533813,123.8908386230,0.0268989801,0.0234400332,0.0194779634,43.1615447998,41.0789833069,103.8737869263,0.0613956451,-0.0123271942,-0.0030753613,
159.923,-3.3046181202,1.4324679375,17.1433486938,0.0586900860,0.0468843281,-0.0014417171,-115.4226379395,73.5234298706,48.2633209229,0.0346193910,0.0602487922,0.0176792145,17.3087997437,83.3184814453,123.9057617188,0.0254347920,0.0234294534,0.0214406848,43.1598205566,41.0785560608,103.8800125122,0.0652962923,-0.0108490586,-0.0016290545,
159.933,-3.3034434319,1.4320960045,17.1456718445,0.0660078153,0.0463755913,0.0088109374,-115.4233322144,73.5238494873,48.2702064514,0.0268089771,0.0587761998,0.0123082399,17.2945785522,83.3174514771,123.9008102417,0.0298272371,0.0210111439,0.0253226161,43.1615676880,41.0766067505,103.8862380981,0.0706417561,-0.0133224726,-0.0070008636,
159.943,-3.3037860394,1.4302812815,17.1468753815,0.0645113140,0.0454050452,0.0122283101,-115.4207229614,73.5230789185,48.2766456604,0.0321762562,0.0543985963,0.0108372569,17.2892589569,83.3180389404,123.9035034180,0.0273870230,0.0224894881,0.0155633688,43.1617164612,41.0769462585,103.8927993774,0.0682048202,-0.0118564963,-0.0016256571,
159.953,-3.3034975529,1.4306356907,17.1467418671,0.0630526468,0.0434468798,0.0112516880,-115.4146041870,73.5245513916,48.2853240967,0.0292538404,0.0553665757,0.0220297575,17.2943515778,83.3166885376,123.9184722900,0.0273842812,0.0229607522,0.0204268694,43.1597709656,41.0796852112,103.8994979858,0.0648229122,-0.0171874166,-0.0050382614,
159.963,-3.3024888039,1.4336377382,17.1477050781,0.0626167431,0.0458706394,0.0117403269,-115.4180755615,73.5269851685,48.2885971069,0.0268244743,0.0602053702,0.0142153502,17.3066673279,83.3128128052,123.9402084351,0.0254232883,0.0219403207,0.0320902467,43.1595993042,41.0807914734,103.9041366577,0.0672788620,-0.0098528266,-0.0016126037,
159.973,-3.3022987843,1.4338620901,17.1476936340,0.0548081622,0.0409845114,0.0078338981,-115.4306716919,73.5276336670,48.2819404602,0.0278042555,0.0611453950,0.0113376379,17.3097267151,83.3138427734,123.9539642334,0.0264019370,0.0180332363,0.0213665366,43.1612701416,41.0801086426,103.9118652344,0.0697113276,-0.0064562559,-0.0084392428,
159.983,-3.3004283905,1.4345698357,17.1500740051,0.0601916015,0.0487644114,0.0122267604,-115.4447555542,73.5280532837,48.2757492065,0.0243883729,0.0596436560,0.0089563131,17.3229827881,83.3136367798,123.9771041870,0.0268898010,0.0228888690,0.0199065804,43.1577644348,41.0808067322,103.9158172607,0.0604431033,-0.0171593428,0.0013006926,
159.993,-3.3011045456,1.4335867167,17.1518192291,0.0660338253,0.0463348106,0.0127155781,-115.4643936157,73.5258636475,48.2632637024,0.0277954936,0.0547526777,0.0061303973,17.3218784332,83.3082733154,123.9841156006,0.0293202996,0.0238400996,0.0320243239,43.1562080383,41.0804710388,103.9211120605,0.0648332238,-0.0103110671,-0.0021340847,
160.003,-3.3001987934,1.4349983931,17.1523323059,0.0592225194,0.0477838404,0.0039258599,-115.4802322388,73.5240554810,48.2521362305,0.0248568654,0.0591401160,0.0076792240,17.3224029541,83.3086242676,123.9913024902,0.0278561711,0.0243299603,0.0193384290,43.1587829590,41.0795211792,103.9327468872,0.0760512352,-0.0122963786,-0.0079781413,
160.013,-3.2974987030,1.4343273640,17.1517658234,0.0601873733,0.0540844835,0.0141769052,-115.4898834229,73.5237655640,48.2465515137,0.0326679349,0.0630301535,0.0135840178,17.3139076233,83.3102035522,123.9909973145,0.0190703273,0.0209361017,0.0227742195,43.1546134949,41.0786094666,103.9360427856,0.0643204451,-0.0166580081,-0.0006990433,
160.023,-3.3000376225,1.4322221279,17.1529903412,0.0606389232,0.0380154811,-0.0043761730,-115.4973068237,73.5193710327,48.2458190918,0.0287399292,0.0538032949,0.0092543960,17.2854347229,83.3075408936,123.9694137573,0.0263891220,0.0185374320,0.0290613770,43.1554603577,41.0789222717,103.9429779053,0.0682308078,-0.0078746080,-0.0119193792,
160.033,-3.3000874519,1.4325914383,17.1540813446,0.0630867705,0.0443639942,0.0068545938,-115.4941482544,73.5185394287,48.2534980774,0.0262944102,0.0523574948,0.0175469518,17.3090038300,83.3058090210,124.0033874512,0.0322449803,0.0282480419,0.0246542096,43.1559257507,41.0793113708,103.9491882324,0.0701890588,-0.0117822886,-0.0089822412,
160.043,-3.2995557785,1.4329520464,17.1563796997,0.0635813475,0.0419133194,0.0127131939,-115.4919052124,73.5173873901,48.2615890503,0.0321480632,0.0587274730,0.0116859078,17.3248176575,83.3091506958,124.0285339355,0.0249275565,0.0223738551,0.0110440850,43.1544609070,41.0784568787,103.9550170898,0.0740840435,-0.0117749572,-0.0099790692,
160.053,-3.3017587662,1.4341332912,17.1592445374,0.0587191433,0.0321860313,0.0146696568,-115.4892883301,73.5182418823,48.2700080872,0.0248280764,0.0611616075,0.0141092539,17.3237514496,83.3059005737,124.0337295532,0.0288271904,0.0208952427,0.0290594101,43.1533012390,41.0800209045,103.9597244263,0.0750811696,-0.0210288763,-0.0109529495,
160.063,-3.3005499840,1.4330049753,17.1622714996,0.0621174239,0.0443720371,0.0024604797,-115.4780120850,73.5184173584,48.2854919434,0.0297117829,0.0592299402,0.0135691762,17.3563499451,83.3018569946,124.0761413574,0.0273541212,0.0300875306,0.0299897194,43.1505699158,41.0843505859,103.9642028809,0.0614662766,-0.0199921131,-0.0084998012,
160.073,-3.2993323803,1.4336265326,17.1621952057,0.0596868619,0.0467922240,0.0029481649,-115.4638061523,73.5170745850,48.3023490906,0.0297051072,0.0602569878,0.0188861489,17.3404598236,83.3030242920,124.0711059570,0.0249150991,0.0149874687,0.0280431509,43.1491737366,41.0863761902,103.9691238403,0.0668640137,-0.0214276910,-0.0089837313,
160.083,-3.2999346256,1.4314231873,17.1640224457,0.0635546744,0.0424082354,0.0044125319,-115.4441528320,73.5150375366,48.3272895813,0.0277419090,0.0500758886,0.0163711309,17.3324851990,83.3046722412,124.0691909790,0.0229653120,0.0218484700,0.0168383718,43.1543693542,41.0865974426,103.9777526855,0.0688200593,-0.0126867890,-0.0103999972,
160.093,-3.2990150452,1.4295768738,17.1658191681,0.0664521456,0.0477633588,0.0009924173,-115.4406280518,73.5151824951,48.3359603882,0.0311605930,0.0603346527,0.0056120753,17.3285541534,83.3033218384,124.0728378296,0.0205211639,0.0233132839,0.0275524259,43.1537933350,41.0849647522,103.9833374023,0.0687986016,-0.0146472454,-0.0079779029,
160.103,-3.2995307446,1.4312043190,17.1668434143,0.0611094423,0.0404480807,0.0151541829,-115.4383316040,73.5160903931,48.3435325623,0.0336064696,0.0676506758,0.0080366731,17.3267707825,83.3040847778,124.0783004761,0.0288234949,0.0252747238,0.0221963525,43.1542892456,41.0839042664,103.9908981323,0.0687846541,-0.0141719580,-0.0060286522,
160.113,-3.2998464108,1.4307467937,17.1680374146,0.0596366152,0.0433832817,0.0092947483,-115.4442062378,73.5174865723,48.3448257446,0.0253126621,0.0598037839,0.0065880418,17.3013973236,83.3040237427,124.0613250732,0.0263819695,0.0136051476,0.0290132761,43.1557464600,41.0833892822,103.9988021851,0.0741489530,-0.0102838278,-0.0104147792,
160.123,-3.3016946316,1.4271250963,17.1698684692,0.0664093643,0.0380444787,0.0053889155,-115.4461975098,73.5118179321,48.3494567871,0.0360267758,0.0554909408,0.0066375732,17.2907028198,83.3009719849,124.0592727661,0.0312585831,0.0219123662,0.0309133530,43.1556129456,41.0831756592,104.0053405762,0.0677984953,-0.0097957253,-0.0055341721,
160.133,-3.3009309769,1.4280011654,17.1703052521,0.0634949580,0.0429139622,0.0112478733,-115.4405212402,73.5121231079,48.3595237732,0.0296806097,0.0598922968,0.0153991580,17.3030700684,83.2988739014,124.0798034668,0.0288128853,0.0238294005,0.0225819349,43.1552314758,41.0840225220,104.0119857788,0.0629268885,-0.0122269392,-0.0021132231,
160.143,-3.3014831543,1.4290256500,17.1720142365,0.0586300269,0.0404821485,0.0024600029,-115.4542083740,73.5078582764,48.3514938354,0.0345422626,0.0584631860,0.0057255626,17.3177585602,83.2946548462,124.1018524170,0.0268511772,0.0242682695,0.0259442925,43.1584167480,41.0863494873,104.0211868286,0.0663753748,-0.0132158995,-0.0113424659,
160.153,-3.3024501801,1.4299061298,17.1731224060,0.0566922612,0.0370809957,-0.0033984780,-115.4584274292,73.5027770996,48.3519973755,0.0247514844,0.0565778911,0.0131052136,17.3218441010,83.2925567627,124.1145706177,0.0273351669,0.0271785259,0.0298160911,43.1572990417,41.0840225220,104.0266952515,0.0702510476,-0.0102936625,-0.0001410842,
160.163,-3.3017630577,1.4319514036,17.1735782623,0.0572162271,0.0404869504,0.0107621551,-115.4674301147,73.5024871826,48.3471488953,0.0267031789,0.0658395290,0.0136359334,17.3303909302,83.2908020020,124.1310348511,0.0239136219,0.0261765420,0.0195403695,43.1561050415,41.0869178772,104.0335540771,0.0654063225,-0.0146539807,-0.0064753294,
160.173,-3.3026835918,1.4317009449,17.1754074097,0.0567235798,0.0434326716,0.0039271116,-115.4717025757,73.4998779297,48.3471832275,0.0301082134,0.0570812821,0.0190449357,17.3454627991,83.2897720337,124.1548156738,0.0292826295,0.0217470229,0.0200213194,43.1556663513,41.0899314880,104.0406112671,0.0605630875,-0.0136496425,-0.0093838573,
160.183,-3.3042070866,1.4346642494,17.1770572662,0.0567752831,0.0410177372,0.0234607458,-115.4745712280,73.4976806641,48.3500289917,0.0305855870,0.0595491529,0.0180971622,17.3537616730,83.2844848633,124.1705474854,0.0234124660,0.0275627375,0.0316576362,43.1572837830,41.0929107666,104.0488662720,0.0669500232,-0.0155948997,-0.0117862225,
160.193,-3.3044188023,1.4341894388,17.1781768799,0.0616498105,0.0395565927,0.0039300919,-115.4808959961,73.4989318848,48.3496170044,0.0237558484,0.0595170856,0.0151867867,17.3757610321,83.2842864990,124.2003707886,0.0263417363,0.0275188684,0.0165341496,43.1598625183,41.0982704163,104.0560226440,0.0606728196,-0.0155776739,-0.0185537338,
160.203,-3.3069417477,1.4340258837,17.1805839539,0.0567641445,0.0376474150,0.0112566948,-115.4902801514,73.4988403320,48.3469123840,0.0305913687,0.0599866807,0.0035108924,17.3791294098,83.2857437134,124.2137069702,0.0278095603,0.0216594338,0.0141151547,43.1640014648,41.0995483398,104.0648880005,0.0685021281,-0.0092597008,-0.0145996213,
160.213,-3.3053076267,1.4356577396,17.1822929382,0.0587457418,0.0459196940,0.0053963065,-115.4930725098,73.5027313232,48.3501243591,0.0291457772,0.0672469139,0.0122843981,17.3960056305,83.2883758545,124.2379531860,0.0243969560,0.0226165056,0.0127055049,43.1628837585,41.0997238159,104.0696868896,0.0699692965,-0.0082710385,-0.0009363294,
160.223,-3.3074564934,1.4349331856,17.1833477020,0.0670338795,0.0391212031,0.0097926855,-115.4883041382,73.5077743530,48.3601875305,0.0316121578,0.0622974634,0.0205278397,17.4030799866,83.2884292603,124.2511367798,0.0214673877,0.0274856389,0.0210117102,43.1593437195,41.1005058289,104.0741348267,0.0675381422,-0.0126253963,-0.0034030080,
160.233,-3.3088889122,1.4342944622,17.1844825745,0.0601867996,0.0352399126,0.0068637729,-115.4856491089,73.5106582642,48.3661842346,0.0238139629,0.0598184466,0.0126825571,17.4096775055,83.2898330688,124.2645492554,0.0278179049,0.0216203332,0.0137141347,43.1580238342,41.0985641479,104.0799026489,0.0714188814,-0.0087217689,-0.0000131130,
160.243,-3.3090703487,1.4370411634,17.1861839294,0.0548636317,0.0459851995,0.0058892965,-115.4819107056,73.5137863159,48.3744277954,0.0252943039,0.0578262806,0.0131316185,17.3975162506,83.2918472290,124.2593841553,0.0248923302,0.0182361603,0.0210615396,43.1530151367,41.0973739624,104.0823440552,0.0709149241,-0.0140541196,-0.0000680685,
160.253,-3.3116853237,1.4370044470,17.1861743927,0.0558395498,0.0396830924,0.0117503405,-115.4885177612,73.5150375366,48.3720321655,0.0287184715,0.0573050678,0.0033865571,17.3939685822,83.2921981812,124.2650299072,0.0273344517,0.0216636956,0.0196033716,43.1476631165,41.0942497253,104.0861511230,0.0708738565,-0.0189099908,0.0066934824,
160.263,-3.3111362457,1.4383093119,17.1873569489,0.0558623187,0.0484625548,0.0180987120,-115.4932861328,73.5194091797,48.3729591370,0.0292283893,0.0655299723,0.0131422877,17.3847389221,83.2917327881,124.2639160156,0.0258686543,0.0202138722,0.0181218386,43.1457519531,41.0943031311,104.0922851563,0.0669682622,-0.0174264908,-0.0079716444,
160.273,-3.3117506504,1.4393168688,17.1878414154,0.0607627109,0.0445669815,0.0078459978,-115.4988784790,73.5229721069,48.3723907471,0.0297343135,0.0596051812,0.0107004046,17.3839340210,83.2921981812,124.2704620361,0.0224516392,0.0221718252,0.0176441073,43.1491088867,41.0928115845,104.1005706787,0.0728080273,-0.0077047944,-0.0064892769,
160.283,-3.3119103909,1.4392727613,17.1895809174,0.0602736585,0.0396869592,0.0039394498,-115.5056381226,73.5271606445,48.3738441467,0.0326847434,0.0634337962,0.0116771460,17.3681278229,83.2951812744,124.2633590698,0.0248991251,0.0207524598,0.0142610669,43.1443557739,41.0906829834,104.1033782959,0.0683855414,-0.0169530511,0.0046806931,
160.293,-3.3139400482,1.4376710653,17.1913623810,0.0636636838,0.0416754670,0.0063824058,-115.5145721436,73.5317611694,48.3708457947,0.0253832936,0.0609036684,0.0053365231,17.3521194458,83.2910614014,124.2554397583,0.0278204083,0.0188108981,0.0312777162,43.1423835754,41.0901985168,104.1076736450,0.0674026012,-0.0115668774,-0.0012006164,
160.303,-3.3135404587,1.4354254007,17.1938781738,0.0597182512,0.0436216928,0.0093107224,-115.5215911865,73.5361175537,48.3673629761,0.0244282484,0.0598481596,0.0063130856,17.3475151062,83.2917861938,124.2589721680,0.0204976797,0.0232177079,0.0268899798,43.1426353455,41.0890846252,104.1145019531,0.0654348135,-0.0101131797,-0.0070667267,
160.313,-3.3153903484,1.4344813824,17.1944332123,0.0611666217,0.0402359776,0.0078473687,-115.5283432007,73.5389251709,48.3639450073,0.0278601050,0.0583252311,0.0048583746,17.3331089020,83.2878112793,124.2537155151,0.0258606672,0.0261562467,0.0331661701,43.1431350708,41.0873527527,104.1202011108,0.0688300133,-0.0106199384,0.0017119646,
160.323,-3.3142542839,1.4356135130,17.1948947906,0.0602098107,0.0421692915,0.0044286847,-115.5373992920,73.5428695679,48.3610229492,0.0342273116,0.0606878400,0.0034056902,17.3446865082,83.2878112793,124.2751998901,0.0331848860,0.0217384696,0.0146174431,43.1425399780,41.0882377625,104.1252288818,0.0644470453,-0.0150017142,-0.0026802421,
160.333,-3.3148581982,1.4352800846,17.1966705322,0.0592274331,0.0402266867,0.0063823462,-115.5481872559,73.5487442017,48.3554115295,0.0332797766,0.0591116548,0.0058531761,17.3228759766,83.2849884033,124.2626647949,0.0229251981,0.0203024447,0.0248119831,43.1401519775,41.0900573730,104.1306991577,0.0630062222,-0.0159411430,-0.0061045289,
160.343,-3.3173108101,1.4353497028,17.1983375549,0.0641114563,0.0402694046,0.0029669404,-115.5617370605,73.5581741333,48.3479499817,0.0299084187,0.0638234615,0.0112169385,17.3367195129,83.2880554199,124.2852020264,0.0214666128,0.0217556059,0.0121755600,43.1377143860,41.0898590088,104.1353149414,0.0742340684,-0.0173841119,-0.0031985044,
160.353,-3.3178582191,1.4365890026,17.1989135742,0.0533908978,0.0427203141,0.0029675961,-115.5854797363,73.5629348755,48.3313789368,0.0318850279,0.0578418970,0.0049412251,17.3582477570,83.2896881104,124.3167037964,0.0200051069,0.0226972699,0.0122129321,43.1380424500,41.0911865234,104.1436004639,0.0620445013,-0.0085877180,-0.0075789094,
160.363,-3.3166840076,1.4391841888,17.1993312836,0.0592955500,0.0466060452,0.0019916892,-115.6148910522,73.5688705444,48.3122253418,0.0314260721,0.0645257533,0.0064947009,17.3622474670,83.2917861938,124.3286666870,0.0268453360,0.0202597082,0.0151835084,43.1363449097,41.0888557434,104.1505889893,0.0717794895,-0.0105428696,-0.0022426248,
160.373,-3.3163969517,1.4380892515,17.2022800446,0.0666006655,0.0431831069,0.0107790232,-115.6500930786,73.5735473633,48.2873573303,0.0285194516,0.0604733229,-0.0007058978,17.3519783020,83.2877578735,124.3282623291,0.0253722668,0.0241647363,0.0234082937,43.1377868652,41.0898704529,104.1598587036,0.0698396564,-0.0144549608,-0.0129630566,
160.383,-3.3153917789,1.4386565685,17.2033462524,0.0622160323,0.0417007357,0.0019899011,-115.6762390137,73.5768280029,48.2697067261,0.0304887891,0.0554854870,0.0101292729,17.3847293854,83.2860031128,124.3714141846,0.0258569717,0.0279979706,0.0199848413,43.1381416321,41.0919380188,104.1667480469,0.0581481457,-0.0120007396,-0.0095246434,
160.393,-3.3149588108,1.4372905493,17.2044696808,0.0646336079,0.0397401080,0.0005238652,-115.7048492432,73.5790481567,48.2494659424,0.0314763188,0.0578317344,0.0107291937,17.3836441040,83.2855911255,124.3809585571,0.0282975435,0.0221376121,0.0248561502,43.1364669800,41.0929908752,104.1730041504,0.0659744740,-0.0134413838,-0.0046485066,
160.403,-3.3158295155,1.4373655319,17.2056274414,0.0597520992,0.0436615199,0.0044310093,-115.7374420166,73.5794219971,48.2207679749,0.0280601978,0.0548271239,0.0084304214,17.3884067535,83.2879028320,124.3954696655,0.0268374085,0.0231174529,0.0122050643,43.1359939575,41.0920333862,104.1792602539,0.0718212724,-0.0144208670,-0.0056371689,
160.413,-3.3174386024,1.4394407272,17.2078895569,0.0573469028,0.0388066806,0.0063868761,-115.7627792358,73.5778961182,48.1972579956,0.0246346593,0.0567483306,0.0056248903,17.3751945496,83.2857742310,124.3904266357,0.0248799324,0.0182498097,0.0277868509,43.1332855225,41.0911483765,104.1827316284,0.0674151182,-0.0124486089,-0.0007861853,
160.423,-3.3159568310,1.4392631054,17.2103004456,0.0588086471,0.0431754068,0.0063848495,-115.7690124512,73.5770034790,48.1910362244,0.0329310298,0.0572369397,0.0164014101,17.3822116852,83.2878723145,124.4030532837,0.0283021927,0.0226412416,0.0156185031,43.1324157715,41.0905113220,104.1876754761,0.0635004640,-0.0090272427,0.0011542439,
160.433,-3.3150386810,1.4374883175,17.2126560211,0.0690315813,0.0475539900,0.0146845579,-115.7735748291,73.5740585327,48.1852760315,0.0304750800,0.0523884296,0.0135133862,17.3919696808,83.2882232666,124.4212722778,0.0248849392,0.0289712846,0.0190479159,43.1362037659,41.0895462036,104.1962661743,0.0722768307,-0.0115126967,-0.0120039582,
160.443,-3.3146517277,1.4373546839,17.2143535614,0.0651230067,0.0436410010,0.0107773542,-115.7880783081,73.5709304810,48.1726913452,0.0324127674,0.0611948073,0.0072529912,17.3943538666,83.2899780273,124.4298934937,0.0258650780,0.0216510594,0.0156589746,43.1384201050,41.0908546448,104.2039184570,0.0742471814,-0.0144533515,-0.0168556571,
160.453,-3.3144273758,1.4376587868,17.2154636383,0.0612220615,0.0431488045,0.0083361268,-115.7985305786,73.5643539429,48.1637268066,0.0279858112,0.0568755567,0.0093005896,17.3914966583,83.2879333496,124.4356460571,0.0248843431,0.0265292227,0.0302727818,43.1389732361,41.0925064087,104.2108078003,0.0698744059,-0.0139574409,-0.0090243220,
160.463,-3.3136343956,1.4387651682,17.2166309357,0.0563585497,0.0450880937,0.0112655163,-115.8190841675,73.5569000244,48.1446685791,0.0259958506,0.0579197705,0.0050520897,17.4081840515,83.2898025513,124.4604949951,0.0331889391,0.0211344361,0.0185939670,43.1396980286,41.0951766968,104.2184066772,0.0718626380,-0.0139434934,-0.0070424080,
160.473,-3.3124811649,1.4349921942,17.2196884155,0.0694763213,0.0440915376,0.0088213682,-115.8361511230,73.5492477417,48.1313972473,0.0342588425,0.0628806055,0.0129963756,17.4176883698,83.2883377075,124.4779510498,0.0253734589,0.0240384936,0.0180901289,43.1374206543,41.0971641541,104.2217330933,0.0674942136,-0.0168356895,-0.0050927997,
160.483,-3.3129596710,1.4366147518,17.2207508087,0.0587624386,0.0406818613,0.0088224411,-115.8766098022,73.5401153564,48.0960540771,0.0288425684,0.0624419451,-0.0009166598,17.4224395752,83.2863616943,124.4885253906,0.0297639370,0.0176707208,0.0229412913,43.1363563538,41.0984649658,104.2261276245,0.0699527264,-0.0197451115,-0.0075334907,
160.493,-3.3176531792,1.4370703697,17.2211494446,0.0626766384,0.0324628279,0.0073621869,-115.9225769043,73.5308380127,48.0574340820,0.0375857353,0.0610168278,0.0076570511,17.4306354523,83.2847213745,124.5048370361,0.0253660679,0.0195997953,0.0209686756,43.1376113892,41.1008224487,104.2327804565,0.0680305958,-0.0060666800,-0.0060371161,
160.503,-3.3188407421,1.4368022680,17.2228851318,0.0612071157,0.0402960181,0.0083401203,-115.9680557251,73.5180206299,48.0189399719,0.0336160660,0.0576924086,0.0103952885,17.4436969757,83.2809829712,124.5261154175,0.0297529697,0.0215073824,0.0272612572,43.1356048584,41.1025085449,104.2380371094,0.0695176125,-0.0118936896,-0.0011587143,
160.513,-3.3199162483,1.4384665489,17.2239799500,0.0563533455,0.0408029780,0.0049239397,-116.0257568359,73.5037612915,47.9686470032,0.0271977782,0.0548513234,0.0053862929,17.4600658417,83.2767181396,124.5511398315,0.0243731737,0.0214541554,0.0218348503,43.1377220154,41.1052742004,104.2445983887,0.0695540309,-0.0060328841,-0.0118583441,
160.523,-3.3210563660,1.4397850037,17.2250232697,0.0597943142,0.0383814089,0.0078554749,-116.0913543701,73.4860839844,47.9091377258,0.0300397873,0.0554609597,0.0009263158,17.4940662384,83.2755279541,124.5921478271,0.0233941674,0.0228444934,0.0179259777,43.1335983276,41.1078796387,104.2468719482,0.0666586161,-0.0181797743,-0.0069908500,
160.533,-3.3194196224,1.4408797026,17.2279529572,0.0612782575,0.0456770919,0.0171313286,-116.1457595825,73.4692306519,47.8568267822,0.0284913182,0.0502240360,0.0081293583,17.5255851746,83.2737503052,124.6317367554,0.0287616253,0.0222854018,0.0179197192,43.1308746338,41.1097297668,104.2505187988,0.0676594973,-0.0093501210,-0.0084648132,
160.543,-3.3200466633,1.4407908916,17.2285156250,0.0603001416,0.0466645733,0.0073664784,-116.1979293823,73.4520874023,47.8045463562,0.0269412994,0.0557360053,0.0055593848,17.5524864197,83.2743072510,124.6644287109,0.0238799453,0.0197931528,0.0169671774,43.1284675598,41.1124229431,104.2548828125,0.0672066212,-0.0161418915,-0.0069991350,
160.553,-3.3198387623,1.4401733875,17.2284851074,0.0598010905,0.0432429984,0.0049245954,-116.2454833984,73.4406890869,47.7539863586,0.0224900842,0.0587328374,0.0170866847,17.5756092072,83.2726974487,124.6939315796,0.0282711983,0.0182746351,0.0189101100,43.1284980774,41.1167678833,104.2580718994,0.0614043474,-0.0112251639,-0.0142862797,
160.563,-3.3162736893,1.4406270981,17.2301788330,0.0627386943,0.0441574566,0.0019914508,-116.2847137451,73.4310226440,47.7127265930,0.0200005770,0.0641607940,0.0173338056,17.6056098938,83.2678375244,124.7297515869,0.0253315568,0.0201430917,0.0251967907,43.1295356750,41.1208686829,104.2635269165,0.0707356334,-0.0116913319,-0.0118018389,
160.573,-3.3168370724,1.4412084818,17.2319202423,0.0583543070,0.0402610078,0.0122461319,-116.3140335083,73.4248733521,47.6834793091,0.0243644714,0.0617485046,0.0228816271,17.6192264557,83.2621231079,124.7483444214,0.0297144055,0.0244813561,0.0270663500,43.1247482300,41.1256217957,104.2639465332,0.0629856586,-0.0184439421,-0.0069217682,
160.583,-3.3175144196,1.4407755136,17.2330951691,0.0593233146,0.0422259383,0.0024812818,-116.3383331299,73.4232482910,47.6599998474,0.0238680840,0.0651356280,0.0225143433,17.6677761078,83.2584838867,124.8019714355,0.0253124237,0.0258311331,0.0231313705,43.1219978333,41.1282463074,104.2665100098,0.0718092322,-0.0183969736,-0.0030182600,
160.593,-3.3178637028,1.4417484999,17.2341651917,0.0608051345,0.0412554368,0.0019937158,-116.3551864624,73.4188232422,47.6453018188,0.0228695273,0.0607698560,0.0172515512,17.6820468903,83.2536621094,124.8219223022,0.0248142481,0.0223598778,0.0269682407,43.1233596802,41.1319961548,104.2746582031,0.0679522753,-0.0066618323,-0.0088338852,
160.603,-3.3160946369,1.4410817623,17.2359294891,0.0627466291,0.0441543236,0.0122454762,-116.3716354370,73.4166488647,47.6319961548,0.0213938355,0.0646722615,0.0153881311,17.7049808502,83.2517700195,124.8535995483,0.0243220925,0.0218163729,0.0181632042,43.1259078979,41.1331367493,104.2814025879,0.0689438581,-0.0086305141,-0.0088015199,
160.613,-3.3137178421,1.4409825802,17.2383079529,0.0607917681,0.0441129282,0.0098015070,-116.3738098145,73.4155120850,47.6357994080,0.0223647356,0.0583376586,0.0173594356,17.7200069427,83.2504577637,124.8760147095,0.0228545666,0.0261740685,0.0220569968,43.1272506714,41.1349792480,104.2888107300,0.0679914355,-0.0115586519,-0.0092623234,
160.623,-3.3117449284,1.4406088591,17.2382564545,0.0612735339,0.0450551324,0.0102878213,-116.3672943115,73.4157180786,47.6524391174,0.0252954364,0.0661607087,0.0207465291,17.7340393066,83.2495956421,124.8987731934,0.0306652784,0.0232120752,0.0235168338,43.1281700134,41.1361846924,104.2973403931,0.0655658245,-0.0135111809,-0.0077791810,
160.633,-3.3141446114,1.4399412870,17.2387962341,0.0622384474,0.0426555462,0.0049184561,-116.3558883667,73.4154510498,47.6744880676,0.0223644376,0.0574005842,0.0202093124,17.7197303772,83.2492675781,124.8944702148,0.0316411853,0.0183560848,0.0249675512,43.1291656494,41.1354713440,104.3037567139,0.0679979324,-0.0115731955,-0.0033817291,
160.643,-3.3151295185,1.4366234541,17.2393245697,0.0714579001,0.0412079357,0.0039417148,-116.3491210938,73.4200363159,47.6902389526,0.0228755474,0.0646713972,0.0113559365,17.7269554138,83.2486648560,124.9108047485,0.0272454023,0.0290805995,0.0220319629,43.1281204224,41.1345062256,104.3104553223,0.0679852366,-0.0130356550,-0.0063291788,
160.653,-3.3172898293,1.4353713989,17.2409877777,0.0646001175,0.0305034108,0.0068731308,-116.3312301636,73.4348907471,47.7144393921,0.0292971730,0.0664421022,0.0204432607,17.7457180023,83.2493362427,124.9386367798,0.0282233357,0.0300234556,0.0161955953,43.1254081726,41.1320953369,104.3150405884,0.0684418082,-0.0174230337,-0.0053969026,
160.663,-3.3178546429,1.4339792728,17.2427635193,0.0631109849,0.0402789190,0.0112672448,-116.3165740967,73.4515304565,47.7348670959,0.0318213105,0.0657376647,0.0095124245,17.7456607819,83.2495956421,124.9458465576,0.0277355909,0.0266072750,0.0220605135,43.1244735718,41.1310958862,104.3221130371,0.0708701015,-0.0110742450,-0.0034605861,
160.673,-3.3186292648,1.4328528643,17.2446136475,0.0577202402,0.0417572819,0.0063853264,-116.2997589111,73.4732055664,47.7591896057,0.0221633911,0.0649616718,0.0195309520,17.7393283844,83.2512207031,124.9495086670,0.0267623663,0.0197919011,0.0167098641,43.1237373352,41.1316223145,104.3292465210,0.0606230497,-0.0139927268,-0.0034628510,
160.683,-3.3186049461,1.4353674650,17.2456302643,0.0597172379,0.0446864702,0.0024800301,-116.2865295410,73.5003356934,47.7828292847,0.0169268847,0.0680047870,0.0178063512,17.7366790771,83.2491302490,124.9567565918,0.0257815123,0.0207632780,0.0235117078,43.1239509583,41.1305503845,104.3357086182,0.0703746676,-0.0091204047,-0.0073761344,
160.693,-3.3172760010,1.4353015423,17.2449855804,0.0602043681,0.0471047349,0.0141969323,-116.2757263184,73.5262756348,47.8053092957,0.0199850798,0.0617795289,0.0092658401,17.7263584137,83.2466583252,124.9574966431,0.0238233209,0.0251652896,0.0283473730,43.1238670349,41.1299209595,104.3432617188,0.0689015388,-0.0125424266,-0.0044522882,
160.703,-3.3180425167,1.4344415665,17.2461585999,0.0611659251,0.0417470112,0.0127327442,-116.2457580566,73.5538940430,47.8486099243,0.0250044465,0.0565493107,0.0221121907,17.6965179443,83.2447967529,124.9393005371,0.0252843499,0.0232619643,0.0282988548,43.1249504089,41.1294937134,104.3512954712,0.0640131235,-0.0110912919,-0.0083522797,
160.713,-3.3189368248,1.4358166456,17.2466373444,0.0572836697,0.0393211469,0.0063865781,-116.2208023071,73.5790939331,47.8868446350,0.0261054635,0.0601327717,0.0140026808,17.6972732544,83.2471542358,124.9503021240,0.0243126154,0.0325498879,0.0219894052,43.1314468384,41.1259193420,104.3647232056,0.0683606267,-0.0072754622,-0.0083237886,
160.723,-3.3150248528,1.4352564812,17.2467117310,0.0597153008,0.0582959950,0.0078473687,-116.1778640747,73.6035690308,47.9433822632,0.0281792283,0.0588833392,0.0185145736,17.6732845306,83.2507247925,124.9390258789,0.0248082280,0.0267565250,0.0186139941,43.1305503845,41.1234817505,104.3732833862,0.0629574656,-0.0141219497,-0.0044465065,
160.733,-3.3173604012,1.4355159998,17.2453556061,0.0606963933,0.0388054140,0.0029668808,-116.1447372437,73.6275405884,47.9941787720,0.0312269330,0.0605493486,0.0108670592,17.6267948151,83.2526702881,124.9054107666,0.0218825340,0.0219759643,0.0249636173,43.1298332214,41.1183700562,104.3815765381,0.0702145100,-0.0146434307,-0.0035186410,
160.743,-3.3174946308,1.4355974197,17.2458686829,0.0616743751,0.0441788435,0.0024787784,-116.1068191528,73.6510009766,48.0489921570,0.0269477367,0.0563739836,0.0129680634,17.5995483398,83.2536010742,124.8909454346,0.0243258476,0.0239883661,0.0230100751,43.1324958801,41.1153602600,104.3917694092,0.0643155575,-0.0088332891,-0.0108446479,
160.753,-3.3147459030,1.4352639914,17.2482662201,0.0616685562,0.0475489497,0.0112650394,-116.0801544189,73.6746139526,48.0885467529,0.0353644490,0.0590072572,0.0029108524,17.5804691315,83.2542953491,124.8829269409,0.0292100906,0.0245172977,0.0210529566,43.1311874390,41.1126594543,104.3984756470,0.0711159706,-0.0156778693,0.0003516078,
160.763,-3.3155095577,1.4368987083,17.2499752045,0.0587673932,0.0460973643,0.0063837171,-116.0477752686,73.6979293823,48.1305885315,0.0301076770,0.0601918399,0.0060145855,17.5642738342,83.2524948120,124.8760681152,0.0301829576,0.0167286098,0.0254118443,43.1268844604,41.1106262207,104.4031982422,0.0701127052,-0.0166289806,-0.0055630803,
160.773,-3.3165810108,1.4369254112,17.2529125214,0.0626741052,0.0426980592,0.0112676620,-116.0088882446,73.7212524414,48.1763038635,0.0331515074,0.0550430417,0.0115313530,17.5677947998,83.2502899170,124.8901214600,0.0238307714,0.0259865522,0.0243973136,43.1288261414,41.1111793518,104.4130935669,0.0710965395,-0.0088307261,-0.0074942112,
160.783,-3.3155052662,1.4383960962,17.2540855408,0.0568403937,0.0504917875,-0.0014286041,-115.9600067139,73.7436752319,48.2304153442,0.0322846174,0.0528581142,0.0194523335,17.5520725250,83.2461624146,124.8856887817,0.0233340263,0.0162319541,0.0336017609,43.1248741150,41.1164741516,104.4193115234,0.0628653169,-0.0194935203,-0.0084620714,
160.793,-3.3179917336,1.4402955770,17.2550678253,0.0598032214,0.0358866118,0.0049232244,-115.9334793091,73.7668838501,48.2642517090,0.0333744884,0.0662378967,0.0030526519,17.5609169006,83.2443695068,124.9045639038,0.0233303308,0.0210875869,0.0262522697,43.1263771057,41.1214599609,104.4279174805,0.0648840070,-0.0136094689,-0.0152428746,
160.803,-3.3176901340,1.4425002337,17.2579441071,0.0593534075,0.0432055146,0.0122475028,-115.8925704956,73.7869415283,48.3131294250,0.0246831775,0.0567468405,0.0144448280,17.5679206848,83.2473526001,124.9225006104,0.0262661576,0.0259723663,0.0141005516,43.1291809082,41.1207275391,104.4376449585,0.0668275356,-0.0107124448,-0.0078995228,
160.813,-3.3189237118,1.4426375628,17.2590026855,0.0637503415,0.0402973108,0.0029717684,-115.8463439941,73.8024520874,48.3674468994,0.0262235999,0.0556355715,0.0146165490,17.5549316406,83.2504577637,124.9194564819,0.0262725353,0.0221069157,0.0195100904,43.1286544800,41.1217498779,104.4460754395,0.0585401654,-0.0136290193,-0.0069190264,
160.823,-3.3174569607,1.4435279369,17.2594738007,0.0613244660,0.0432014354,0.0122479200,-115.8008499146,73.8175354004,48.4232788086,0.0302032828,0.0525751114,0.0157715082,17.5171680450,83.2519149780,124.8927230835,0.0233458281,0.0207254589,0.0268378854,43.1280326843,41.1189804077,104.4535751343,0.0702224374,-0.0155980587,-0.0006006956,
160.833,-3.3183815479,1.4417095184,17.2582321167,0.0617810190,0.0393113233,0.0098065734,-115.7677536011,73.8305969238,48.4652557373,0.0253839493,0.0573320985,0.0062538385,17.4796714783,83.2539749146,124.8662338257,0.0253031850,0.0266689956,0.0258677006,43.1322174072,41.1161270142,104.4659194946,0.0682318807,-0.0063831806,-0.0049809217,
160.843,-3.3179388046,1.4441282749,17.2580814362,0.0579169691,0.0461394936,0.0102955699,-115.7232742310,73.8411560059,48.5172843933,0.0312946439,0.0553138554,0.0035402179,17.4497127533,83.2546844482,124.8479843140,0.0292108655,0.0203848481,0.0297684669,43.1356124878,41.1132545471,104.4759674072,0.0716121197,-0.0093679428,-0.0049744248,
160.853,-3.3168008327,1.4443631172,17.2592372894,0.0593859106,0.0441665389,0.0102946162,-115.6757659912,73.8510513306,48.5716743469,0.0357372165,0.0552651882,0.0135138035,17.4343986511,83.2588348389,124.8432388306,0.0292193890,0.0179949999,0.0132244825,43.1312484741,41.1125526428,104.4804306030,0.0647668839,-0.0205621123,0.0013276935,
160.863,-3.3168122768,1.4431486130,17.2609767914,0.0642475337,0.0402605236,0.0010166168,-115.6417083740,73.8600311279,48.6110916138,0.0289448500,0.0552014709,0.0089047551,17.4276752472,83.2621231079,124.8473815918,0.0233667493,0.0268145502,0.0132752061,43.1288146973,41.1128578186,104.4851150513,0.0662357807,-0.0122354031,-0.0011327267,
160.873,-3.3169863224,1.4418776035,17.2602767944,0.0642253608,0.0397753008,0.0083403587,-115.6027450562,73.8645248413,48.6525268555,0.0333611965,0.0561923385,0.0087011456,17.4468498230,83.2673339844,124.8746185303,0.0253305435,0.0233846307,0.0109283924,43.1293830872,41.1126976013,104.4917831421,0.0706282258,-0.0088242292,-0.0084531307,
160.883,-3.3185334206,1.4425854683,17.2614517212,0.0554486439,0.0412670784,0.0059009194,-115.5803604126,73.8676605225,48.6786308289,0.0377709270,0.0571689010,0.0002795458,17.4375839233,83.2671051025,124.8715591431,0.0292363167,0.0209606886,0.0226387978,43.1286430359,41.1122360229,104.4972686768,0.0691572428,-0.0097972751,-0.0060222745,
160.893,-3.3201863766,1.4400796890,17.2632579803,0.0666353926,0.0452021807,0.0015069842,-115.5528335571,73.8677520752,48.7083816528,0.0328885913,0.0474593043,0.0089469552,17.4515533447,83.2686233521,124.8941040039,0.0233800411,0.0253352821,0.0148596764,43.1300315857,41.1125831604,104.5054473877,0.0720915794,-0.0107844472,-0.0094248056,
160.903,-3.3221547604,1.4384652376,17.2613239288,0.0651423782,0.0379122943,0.0073676109,-115.5265655518,73.8667602539,48.7388648987,0.0250712633,0.0568065047,0.0112801194,17.4496116638,83.2669601440,124.9002990723,0.0287477374,0.0219126046,0.0285030603,43.1287498474,41.1115341187,104.5097122192,0.0691480637,-0.0141983032,-0.0006561279,
160.913,-3.3231251240,1.4375685453,17.2636890411,0.0631736070,0.0433003157,-0.0014209151,-115.4929885864,73.8625640869,48.7773818970,0.0270040035,0.0481510460,0.0179987550,17.4526939392,83.2660522461,124.9126892090,0.0238630772,0.0238549113,0.0260484815,43.1299667358,41.1108932495,104.5170822144,0.0715810061,-0.0122619867,-0.0094396472,
160.923,-3.3241097927,1.4383579493,17.2648010254,0.0592811331,0.0433174446,0.0010221004,-115.4739685059,73.8579559326,48.8010482788,0.0264933705,0.0550960600,0.0086709857,17.4493083954,83.2675170898,124.9197387695,0.0253309011,0.0233812928,0.0226539969,43.1319732666,41.1105766296,104.5256347656,0.0666940212,-0.0122837424,-0.0094242692,
160.933,-3.3243806362,1.4365786314,17.2660140991,0.0621797778,0.0413690805,0.0107867122,-115.4436569214,73.8525619507,48.8380813599,0.0284203291,0.0537764132,0.0129708648,17.4407806396,83.2691421509,124.9205169678,0.0272873640,0.0229175389,0.0192545056,43.1307640076,41.1113929749,104.5317153931,0.0676813722,-0.0176367760,-0.0050337315,
160.943,-3.3244132996,1.4377585649,17.2670593262,0.0626886487,0.0442993082,0.0151824355,-115.3975830078,73.8493499756,48.8867645264,0.0298695564,0.0583149493,0.0181621909,17.4365062714,83.2696151733,124.9254608154,0.0248469114,0.0214641988,0.0197502375,43.1313514709,41.1068496704,104.5401611328,0.0764106512,-0.0088890195,-0.0050663948,
160.953,-3.3249878883,1.4380961657,17.2694225311,0.0592765659,0.0423561819,0.0102998018,-115.3788986206,73.8428192139,48.9098587036,0.0342323780,0.0550362468,-0.0023812056,17.4165344238,83.2708053589,124.9150543213,0.0302204490,0.0146732926,0.0236610174,43.1310348511,41.1073951721,104.5468292236,0.0661639571,-0.0137644410,-0.0040882230,
160.963,-3.3253250122,1.4398874044,17.2704601288,0.0602843799,0.0433385745,0.0078597665,-115.3503875732,73.8410110474,48.9410095215,0.0293408036,0.0614694655,0.0092249513,17.4158115387,83.2699890137,124.9224319458,0.0272890925,0.0215070248,0.0275555253,43.1296882629,41.1099357605,104.5524139404,0.0613145828,-0.0137315989,-0.0138445497,
160.973,-3.3252813816,1.4405038357,17.2697677612,0.0598068535,0.0448026359,0.0098127127,-115.3182830811,73.8396606445,48.9745445251,0.0307990909,0.0620448887,0.0120227933,17.4349384308,83.2665252686,124.9490280151,0.0292351246,0.0253576338,0.0275110006,43.1344261169,41.1106567383,104.5624465942,0.0745075941,-0.0059589744,-0.0177022815,
160.983,-3.3269162178,1.4427686930,17.2713565826,0.0608229339,0.0409248099,0.0059097409,-115.3047485352,73.8389968872,48.9913177490,0.0298193097,0.0645245612,0.0046436191,17.4630546570,83.2646560669,124.9828414917,0.0316727161,0.0243156552,0.0274977088,43.1329383850,41.1134147644,104.5677413940,0.0657547712,-0.0156887770,-0.0084152818,
160.993,-3.3272047043,1.4455448389,17.2742652893,0.0550119989,0.0433711708,0.0059108138,-115.2935485840,73.8379974365,49.0063514709,0.0376269221,0.0616329908,0.0099726319,17.4704380035,83.2627334595,124.9971008301,0.0267859697,0.0233145952,0.0264943838,43.1310348511,41.1146888733,104.5727157593,0.0628418922,-0.0151721239,-0.0025622845,
161.003,-3.3264400959,1.4450955391,17.2754802704,0.0574455634,0.0428695790,0.0088396668,-115.2851181030,73.8379058838,49.0167274475,0.0307905674,0.0606755316,0.0084713101,17.4640960693,83.2599716187,124.9989547729,0.0258037448,0.0194068253,0.0308400989,43.1290168762,41.1144638062,104.5777359009,0.0686983466,-0.0083185434,-0.0020939112,
161.013,-3.3275480270,1.4433064461,17.2766304016,0.0642502904,0.0384943932,0.0078635216,-115.2673187256,73.8410720825,49.0363655090,0.0268996954,0.0640825033,0.0166708827,17.4638156891,83.2599411011,125.0061950684,0.0209208727,0.0189192295,0.0176569819,43.1295547485,41.1157264709,104.5846328735,0.0657851696,-0.0122200847,-0.0069614053,
161.023,-3.3265376091,1.4426404238,17.2790870667,0.0583792925,0.0458010249,0.0063972473,-115.2365646362,73.8456268311,49.0692253113,0.0220389962,0.0577299595,0.0169910789,17.4535713196,83.2600021362,125.0060195923,0.0238506794,0.0179631710,0.0244869590,43.1265640259,41.1167068481,104.5890579224,0.0687277913,-0.0175548196,-0.0084449053,
161.033,-3.3271052837,1.4401428699,17.2809486389,0.0627302453,0.0423930138,0.0122561455,-115.1834945679,73.8544540405,49.1226501465,0.0269646645,0.0635662377,0.0225535631,17.4503116608,83.2596511841,125.0125350952,0.0248265266,0.0272451341,0.0269204378,43.1271858215,41.1160240173,104.5981979370,0.0682305098,-0.0073121786,-0.0045387745,
161.043,-3.3289637566,1.4400016069,17.2821063995,0.0607746542,0.0443785153,0.0122578144,-115.1097869873,73.8653030396,49.1953163147,0.0265290141,0.0537881255,0.0211749673,17.4311771393,83.2584838867,125.0025482178,0.0223827362,0.0238591731,0.0234715343,43.1261291504,41.1147193909,104.6038360596,0.0696781874,-0.0131716728,-0.0070006847,
161.053,-3.3277800083,1.4390444756,17.2826786041,0.0631993636,0.0487524495,0.0034673810,-115.0220184326,73.8824539185,49.2826995850,0.0280770063,0.0634749532,0.0177369714,17.3910865784,83.2598266602,124.9705047607,0.0238503218,0.0210157931,0.0263975859,43.1263275146,41.1140365601,104.6105728149,0.0638098717,-0.0136671662,-0.0070045590,
161.063,-3.3272798061,1.4375011921,17.2833843231,0.0568247810,0.0463023670,0.0073722601,-114.9363021851,73.9023666382,49.3714408875,0.0271968842,0.0653016865,0.0142890215,17.3670005798,83.2606735229,124.9548873901,0.0262934566,0.0235097110,0.0210269094,43.1265640259,41.1115417480,104.6176986694,0.0779372454,-0.0117359757,-0.0075119734,
161.073,-3.3271110058,1.4368785620,17.2826461792,0.0660912618,0.0453228876,0.0044423342,-114.8417816162,73.9269027710,49.4739379883,0.0302451849,0.0685402453,0.0224890709,17.3385906219,83.2641372681,124.9352188110,0.0228825808,0.0196764469,0.0166670680,43.1256752014,41.1106948853,104.6222915649,0.0701135397,-0.0117340088,-0.0031321049,
161.083,-3.3270974159,1.4371778965,17.2836837769,0.0656082034,0.0423929505,0.0103016496,-114.7478256226,73.9514617920,49.5780410767,0.0318286419,0.0664053261,0.0175089836,17.3361530304,83.2645721436,124.9413223267,0.0287428498,0.0216376483,0.0147235394,43.1213645935,41.1086578369,104.6233749390,0.0691102743,-0.0165913701,-0.0012347698,
161.093,-3.3257024288,1.4376845360,17.2829475403,0.0621990710,0.0452983268,0.0059060454,-114.6624908447,73.9769058228,49.6756057739,0.0309747458,0.0593549907,0.0150027871,17.3156070709,83.2643661499,124.9301910400,0.0233713388,0.0182588398,0.0249591470,43.1208419800,41.1120719910,104.6295471191,0.0681785345,-0.0175362825,-0.0090239048,
161.103,-3.3253278732,1.4377992153,17.2840290070,0.0636659116,0.0438269563,-0.0014187098,-114.5777587891,74.0051498413,49.7729797363,0.0301341414,0.0639787912,0.0036916137,17.3214340210,83.2654724121,124.9445495605,0.0316743851,0.0241126120,0.0137516260,43.1211738586,41.1102027893,104.6366195679,0.0730367899,-0.0097416043,-0.0022001266,
161.113,-3.3238880634,1.4401572943,17.2863864899,0.0544297174,0.0472197831,0.0137177706,-114.4684143066,74.0399932861,49.8874282837,0.0273718238,0.0607367158,0.0210365057,17.3109760284,83.2642517090,124.9457778931,0.0272773504,0.0216857791,0.0215379000,43.1191864014,41.1114273071,104.6419296265,0.0701231956,-0.0170371532,-0.0066027641,
161.123,-3.3233792782,1.4386520386,17.2882423401,0.0592862666,0.0418398678,0.0137166381,-114.3562088013,74.0813522339,50.0022430420,0.0319646001,0.0652127564,0.0178173780,17.3012275696,83.2620086670,124.9473495483,0.0253196359,0.0187640786,0.0293077826,43.1149673462,41.1121940613,104.6458358765,0.0691567063,-0.0184553266,-0.0037036538,
161.133,-3.3249585629,1.4389077425,17.2918109894,0.0597790107,0.0408908017,0.0093237162,-114.2343597412,74.1277847290,50.1220588684,0.0243740678,0.0613262355,0.0218476057,17.2863502502,83.2589492798,124.9452285767,0.0145711899,0.0251257420,0.0233893394,43.1094894409,41.1110916138,104.6501693726,0.0642594695,-0.0096224546,0.0040491819,
161.143,-3.3242835999,1.4387489557,17.2923278809,0.0627059191,0.0447853096,0.0078581572,-114.1033401489,74.1817474365,50.2490692139,0.0212132335,0.0671061575,0.0228590965,17.2742710114,83.2639541626,124.9454879761,0.0204408169,0.0217568874,0.0132085681,43.1081390381,41.1082916260,104.6580429077,0.0705702305,-0.0115845203,-0.0018450618,
161.153,-3.3255782127,1.4379851818,17.2947177887,0.0631808788,0.0462727137,0.0112767816,-113.9626312256,74.2338485718,50.3825607300,0.0292732120,0.0631642640,0.0174964666,17.2322216034,83.2640151978,124.9150924683,0.0233706236,0.0208641291,0.0239258409,43.1100692749,41.1074409485,104.6686019897,0.0617699623,-0.0130745769,-0.0052528977,
161.163,-3.3247175217,1.4366903305,17.2940883636,0.0597403161,0.0413749479,0.0000454783,-113.8129730225,74.2875442505,50.5279808044,0.0236680508,0.0631180257,0.0159936547,17.2032356262,83.2666931152,124.8988647461,0.0233761072,0.0258184969,0.0239533782,43.1161308289,41.1058807373,104.6818618774,0.0661440492,-0.0067973137,-0.0135123730,
161.173,-3.3226337433,1.4380595684,17.2952919006,0.0553696752,0.0496394001,0.0088325143,-113.6510696411,74.3417358398,50.6897087097,0.0288065672,0.0665017962,0.0198091269,17.1514167786,83.2676849365,124.8598937988,0.0311906338,0.0225080550,0.0273545980,43.1171073914,41.1033744812,104.6934204102,0.0665993690,-0.0117091537,-0.0091301203,
161.183,-3.3201181889,1.4372583628,17.2976284027,0.0651213229,0.0447127894,0.0024821162,-113.4653320313,74.3974533081,50.8770065308,0.0363928080,0.0601362884,0.0225382447,17.1117916107,83.2721481323,124.8337097168,0.0268052220,0.0221208334,0.0171489716,43.1169166565,41.0996856689,104.7005767822,0.0699687600,-0.0132011175,-0.0023266077,
161.193,-3.3208305836,1.4365663528,17.2975997925,0.0602264367,0.0442369357,0.0098069906,-113.2689590454,74.4516906738,51.0761947632,0.0337173343,0.0640626252,0.0125405192,17.0934391022,83.2710113525,124.8282852173,0.0268028975,0.0211749375,0.0263964534,43.1133499146,41.0962829590,104.7077941895,0.0728537440,-0.0131934881,0.0000544190,
161.203,-3.3232979774,1.4355015755,17.2975654602,0.0616727024,0.0423268117,0.0137149096,-113.0731735229,74.5037918091,51.2752990723,0.0339606404,0.0606905222,0.0108644962,17.0889034271,83.2711791992,124.8391418457,0.0268032551,0.0241144300,0.0244430900,43.1096420288,41.0942077637,104.7138595581,0.0708732605,-0.0131741762,0.0000036359,
161.213,-3.3240153790,1.4347186089,17.2962722778,0.0601941980,0.0379447974,0.0068795681,-112.8834915161,74.5491027832,51.4672393799,0.0395427346,0.0608249605,0.0038921833,17.0850143433,83.2683563232,124.8494720459,0.0238677859,0.0206904411,0.0258610845,43.1138038635,41.0980567932,104.7259521484,0.0645762682,-0.0122073889,-0.0199462771,
161.223,-3.3261444569,1.4350708723,17.2979488373,0.0611769073,0.0370053127,0.0083469152,-112.6974029541,74.5859603882,51.6542663574,0.0411787629,0.0478951335,-0.0034950972,17.0855464935,83.2673950195,124.8635177612,0.0267955065,0.0265435576,0.0258440971,43.1115455627,41.0976676941,104.7329483032,0.0699422359,-0.0126770139,-0.0048330426,
161.233,-3.3259537220,1.4370276928,17.2984371185,0.0553516746,0.0409081876,0.0098120570,-112.5150070190,74.6188430786,51.8343391418,0.0320537686,0.0491762459,0.0028337240,17.0840816498,83.2702560425,124.8749313354,0.0253365040,0.0216782391,0.0156371593,43.1090087891,41.0987777710,104.7402648926,0.0631209016,-0.0175268650,0.0010127425,
161.243,-3.3250322342,1.4345369339,17.2996196747,0.0670269653,0.0433336049,0.0156695843,-112.3282165527,74.6511001587,52.0161552429,0.0326912403,0.0494947731,0.0071966052,17.0718460083,83.2693176270,124.8744430542,0.0214283466,0.0231627524,0.0258684158,43.1078109741,41.1008453369,104.7469177246,0.0616832376,-0.0155459046,-0.0121642947,
161.253,-3.3229415417,1.4341491461,17.2995815277,0.0592077002,0.0432971977,0.0112728477,-112.1312637329,74.6861648560,52.2019653320,0.0313882232,0.0512476116,0.0178480148,17.0572071075,83.2710113525,124.8696365356,0.0233849287,0.0251530111,0.0263737440,43.1095008850,41.1003608704,104.7571182251,0.0621652007,-0.0062886477,-0.0058059096,
161.263,-3.3253829479,1.4324904680,17.3013591766,0.0616201647,0.0360155478,0.0034621358,-111.9184265137,74.7186355591,52.3961029053,0.0330025554,0.0476927459,0.0147783756,17.0388488770,83.2759094238,124.8609313965,0.0185121298,0.0247262716,0.0142379999,43.1098175049,41.0966873169,104.7662811279,0.0640699863,-0.0087617636,0.0039325953,
161.273,-3.3242340088,1.4328598976,17.3012981415,0.0586969256,0.0442963094,0.0112735033,-111.7057189941,74.7569274902,52.5811538696,0.0317136645,0.0572254658,0.0116753578,17.0014610291,83.2789993286,124.8322067261,0.0234012604,0.0228619576,0.0250046253,43.1089973450,41.0905303955,104.7734680176,0.0718014836,-0.0122202635,-0.0010095835,
161.283,-3.3256003857,1.4329311848,17.3024692535,0.0577216074,0.0418787003,0.0073686242,-111.4884719849,74.8013534546,52.7671928406,0.0353351831,0.0632471293,0.0051002502,16.9545269012,83.2831420898,124.7955169678,0.0268276930,0.0224879384,0.0147919655,43.1054115295,41.0854988098,104.7787399292,0.0648993254,-0.0156431794,0.0091697574,
161.293,-3.3252906799,1.4324522018,17.3036823273,0.0596663728,0.0477326922,0.0078564882,-111.2694778442,74.8530197144,52.9563064575,0.0336180925,0.0711056590,0.0072667003,16.9155712128,83.2864456177,124.7657089233,0.0243930221,0.0220931768,0.0216578245,43.1073760986,41.0817146301,104.7863006592,0.0648495555,-0.0108088851,-0.0079337955,
161.303,-3.3259520531,1.4340558052,17.3035697937,0.0562763810,0.0423730873,0.0034632683,-111.0360412598,74.8990325928,53.1607360840,0.0391986966,0.0629569143,0.0147814751,16.8699951172,83.2881927490,124.7293701172,0.0307442546,0.0207272470,0.0265411735,43.1092071533,41.0779075623,104.7957153320,0.0735885501,-0.0093914866,-0.0016016960,
161.313,-3.3286666870,1.4330136776,17.3034400940,0.0635824203,0.0350961685,0.0093250275,-110.8096160889,74.9460449219,53.3666877747,0.0457597971,0.0679582804,0.0086525679,16.8339538574,83.2911453247,124.7023391724,0.0224494934,0.0256963074,0.0182678103,43.1098823547,41.0753402710,104.8040695190,0.0711134076,-0.0147891641,-0.0045468211,
161.323,-3.3293671608,1.4341317415,17.3045291901,0.0582308359,0.0399911590,0.0039551258,-110.6060791016,74.9864349365,53.5558395386,0.0425246954,0.0652083904,-0.0017302632,16.8213520050,83.2945175171,124.7001113892,0.0268508792,0.0242729485,0.0178265572,43.1155242920,41.0704650879,104.8177413940,0.0700726509,-0.0065807104,-0.0089309812,
161.333,-3.3278093338,1.4329162836,17.3063888550,0.0601627529,0.0477765538,0.0059062243,-110.4220199585,75.0199584961,53.7309989929,0.0436526537,0.0610676110,-0.0012447834,16.7854251862,83.2983474731,124.6765213013,0.0307649374,0.0194800198,0.0183551908,43.1172904968,41.0685234070,104.8286056519,0.0700470805,-0.0154020190,-0.0094199777,
161.343,-3.3269979954,1.4346666336,17.3074588776,0.0606815740,0.0472740941,0.0151833892,-110.2463302612,75.0497436523,53.9038925171,0.0384157896,0.0642914474,0.0041833520,16.7506999969,83.3024444580,124.6541976929,0.0210076571,0.0181044936,0.0267037153,43.1166610718,41.0677185059,104.8342514038,0.0666185617,-0.0188202262,-0.0157801509,
161.353,-3.3260402679,1.4350671768,17.3085899353,0.0606885627,0.0457925610,0.0024869442,-110.0944213867,75.0764007568,54.0543136597,0.0409771204,0.0602003187,-0.0014981031,16.7185497284,83.3072433472,124.6337051392,0.0263885260,0.0220978558,0.0174852610,43.1197624207,41.0651626587,104.8466949463,0.0704911351,-0.0091044903,-0.0084493756,
161.363,-3.3248903751,1.4326653481,17.3104190826,0.0640646219,0.0443077460,-0.0004443526,-109.9372558594,75.1054534912,54.2076759338,0.0357365012,0.0599837899,0.0069461465,16.6830806732,83.3111724854,124.6104812622,0.0224902630,0.0221870244,0.0233867764,43.1212692261,41.0599975586,104.8580551147,0.0713997483,-0.0130655766,-0.0031074882,
161.373,-3.3248999119,1.4327672720,17.3122787476,0.0533242151,0.0423547849,0.0024847984,-109.7910766602,75.1387557983,54.3464813232,0.0456513762,0.0635868907,0.0085785389,16.6509628296,83.3138122559,124.5905685425,0.0220073462,0.0247049630,0.0248761177,43.1227874756,41.0537719727,104.8669891357,0.0747358203,-0.0062931180,0.0017357469,
161.383,-3.3270323277,1.4334713221,17.3139820099,0.0596841574,0.0414153524,0.0005344748,-109.6629180908,75.1790924072,54.4618988037,0.0409488678,0.0675363541,0.0048784614,16.6126194000,83.3163909912,124.5645980835,0.0288485289,0.0199107230,0.0268492103,43.1212196350,41.0517425537,104.8765106201,0.0625020862,-0.0092234612,0.0012174249,
161.393,-3.3266897202,1.4338389635,17.3155879974,0.0675030649,0.0414093733,0.0068819523,-109.5389328003,75.2261047363,54.5667343140,0.0450646877,0.0679543018,0.0055552125,16.5846824646,83.3185653687,124.5482482910,0.0293412209,0.0219296217,0.0166142583,43.1228637695,41.0505599976,104.8855133057,0.0605334044,-0.0121782422,-0.0051253438,
161.403,-3.3280184269,1.4310662746,17.3168239594,0.0655015633,0.0463153981,0.0063939095,-109.4041213989,75.2763290405,54.6737823486,0.0447995663,0.0654051453,0.0144721270,16.5484886169,83.3183288574,124.5237274170,0.0220165253,0.0215117335,0.0263546705,43.1199226379,41.0464019775,104.8902511597,0.0756154060,-0.0136473775,0.0006728172,
161.413,-3.3270673752,1.4299458265,17.3198013306,0.0645054504,0.0433691703,0.0098100305,-109.2753143311,75.3280792236,54.7707977295,0.0450286865,0.0633081049,0.0053425431,16.5292301178,83.3185119629,124.5155029297,0.0264114141,0.0230154097,0.0204864144,43.1227912903,41.0440368652,104.9006042480,0.0736311078,-0.0151582956,-0.0066453815,
161.423,-3.3267021179,1.4312399626,17.3209323883,0.0557389744,0.0414096527,0.0127402544,-109.1465911865,75.3829040527,54.8671989441,0.0379464030,0.0660420656,0.0132892132,16.4995441437,83.3189773560,124.4968948364,0.0259240866,0.0186819434,0.0185239315,43.1227912903,41.0442962646,104.9113311768,0.0672868490,-0.0083204508,0.0011688471,
161.433,-3.3269026279,1.4315663576,17.3208160400,0.0606274828,0.0419014171,0.0005335212,-109.0197753906,75.4378128052,54.9628143311,0.0347698331,0.0682812333,0.0139229298,16.4982185364,83.3164520264,124.5071411133,0.0264072418,0.0264849365,0.0248299241,43.1253623962,41.0430603027,104.9216308594,0.0677589178,-0.0112844110,-0.0085836053,
161.443,-3.3277673721,1.4277769327,17.3227005005,0.0649558902,0.0414282940,0.0078569055,-108.9119110107,75.4857788086,55.0425529480,0.0432807803,0.0608358532,0.0039342046,16.4693641663,83.3152236938,124.4917907715,0.0249398947,0.0216533542,0.0238165259,43.1282157898,41.0415191650,104.9303588867,0.0672503114,-0.0079060793,-0.0056416392,
161.453,-3.3287913799,1.4272319078,17.3257408142,0.0581104457,0.0429109894,0.0073696375,-108.8038787842,75.5276489258,55.1245422363,0.0385808349,0.0588563383,0.0066759586,16.4505062103,83.3189773560,124.4871063232,0.0225061178,0.0212202668,0.0175184011,43.1263580322,41.0384635925,104.9382553101,0.0667217970,-0.0137714148,-0.0008006096,
161.463,-3.3298220634,1.4245417118,17.3257617950,0.0629463196,0.0409758873,0.0098103285,-108.7009277344,75.5672683716,55.2099113464,0.0426596999,0.0598347485,0.0109176636,16.4212036133,83.3215026855,124.4681015015,0.0220229626,0.0251968503,0.0229144096,43.1297836304,41.0388565063,104.9498672485,0.0603793263,-0.0103833079,-0.0115086436,
161.473,-3.3282511234,1.4234086275,17.3263759613,0.0595085844,0.0458313599,0.0024847984,-108.6017150879,75.6041717529,55.2956733704,0.0511208177,0.0593833923,0.0107969642,16.3965892792,83.3262634277,124.4561767578,0.0259388685,0.0277097523,0.0166299343,43.1279220581,41.0382118225,104.9567031860,0.0598825216,-0.0133001804,-0.0007888079,
161.483,-3.3287756443,1.4225261211,17.3287277222,0.0633994341,0.0404694304,0.0059024692,-108.5084228516,75.6392440796,55.3751106262,0.0434603095,0.0579759181,0.0048528910,16.3841953278,83.3288192749,124.4559402466,0.0283854604,0.0257934630,0.0156881213,43.1257362366,41.0333251953,104.9639358521,0.0720252991,-0.0167353153,0.0030570030,
161.493,-3.3293578625,1.4234856367,17.3304367065,0.0590216443,0.0424326658,0.0073683262,-108.4167633057,75.6717758179,55.4511528015,0.0460423827,0.0556291640,-0.0069288015,16.3641052246,83.3330841064,124.4479904175,0.0259526968,0.0234123170,0.0113519430,43.1240768433,41.0310096741,104.9712982178,0.0676002502,-0.0123429894,-0.0028366446,
161.503,-3.3323919773,1.4237413406,17.3309135437,0.0609792322,0.0405323841,0.0000473261,-108.2983551025,75.7029418945,55.5480728149,0.0417823195,0.0513855517,0.0139030814,16.3601799011,83.3398513794,124.4564743042,0.0210835934,0.0214987695,0.0109693408,43.1287612915,41.0299949646,104.9833068848,0.0719814301,-0.0109311342,-0.0145217180,
161.513,-3.3313708305,1.4225157499,17.3321094513,0.0624226928,0.0458857268,0.0117647052,-108.1634902954,75.7337036133,55.6543540955,0.0394733548,0.0515636057,0.0141635537,16.3280258179,83.3416137695,124.4340591431,0.0254817009,0.0201067924,0.0246555805,43.1292610168,41.0256080627,104.9909820557,0.0704587698,-0.0065758228,-0.0013704300,
161.523,-3.3328890800,1.4248695374,17.3319911957,0.0536746979,0.0415175781,0.0039543509,-108.0196380615,75.7583084106,55.7632942200,0.0473915935,0.0538030416,0.0100266337,16.3136901855,83.3439178467,124.4308929443,0.0264629126,0.0230748653,0.0178450346,43.1300544739,41.0254173279,104.9991149902,0.0704562664,-0.0139091611,-0.0091774464,
161.533,-3.3340511322,1.4250342846,17.3313198090,0.0570955388,0.0405612551,0.0098152161,-107.8686218262,75.7757415771,55.8767166138,0.0484429598,0.0488411486,0.0058985353,16.2950706482,83.3418579102,124.4220504761,0.0249938965,0.0206612051,0.0251284838,43.1252784729,41.0258941650,105.0037994385,0.0729039907,-0.0216718912,-0.0082393289,
161.543,-3.3333294392,1.4283077717,17.3329429626,0.0571526513,0.0449431315,0.0010269284,-107.6952590942,75.7865753174,56.0115699768,0.0528839231,0.0484061688,0.0080616474,16.3126258850,83.3390884399,124.4483489990,0.0284062624,0.0245188773,0.0241138935,43.1257591248,41.0249862671,105.0095748901,0.0763099790,-0.0070354342,-0.0018960834,
161.553,-3.3312942982,1.4297027588,17.3335094452,0.0552238710,0.0473490544,0.0112789869,-107.4912948608,75.7940216064,56.1814002991,0.0402205586,0.0597807765,0.0169524550,16.3343029022,83.3368453979,124.4785614014,0.0269368887,0.0254423618,0.0192088485,43.1228256226,41.0286064148,105.0136032104,0.0607326627,-0.0182091594,-0.0072623491,
161.563,-3.3312361240,1.4307961464,17.3352146149,0.0586609170,0.0424652062,0.0107917786,-107.2956161499,75.7953338623,56.3456306458,0.0387613177,0.0580579340,0.0102829933,16.3102588654,83.3379669189,124.4644851685,0.0230329037,0.0201235414,0.0231170058,43.1219635010,41.0322227478,105.0203018188,0.0622451305,-0.0181726217,-0.0091934204,
161.573,-3.3293135166,1.4333493710,17.3369312286,0.0557757765,0.0468261801,0.0137201548,-107.0861282349,75.7943878174,56.5294189453,0.0358275771,0.0646860600,0.0069853663,16.2899990082,83.3420562744,124.4528579712,0.0205997825,0.0182303488,0.0148732662,43.1249847412,41.0343551636,105.0319061279,0.0647145510,-0.0137903690,-0.0125659108,
161.583,-3.3289346695,1.4315557480,17.3381614685,0.0620921366,0.0458430648,0.0068832040,-106.8530654907,75.7973480225,56.7411460876,0.0329105854,0.0683481842,0.0206599832,16.2740039825,83.3479843140,124.4459838867,0.0250062943,0.0265908539,0.0208198428,43.1247444153,41.0326194763,105.0401611328,0.0622503161,-0.0138017535,-0.0057472587,
161.593,-3.3295967579,1.4301023483,17.3394184113,0.0586488098,0.0443897918,0.0034654140,-106.6246261597,75.7982177734,56.9515228271,0.0294963121,0.0642211139,0.0133672357,16.2213935852,83.3520278931,124.4032287598,0.0230613351,0.0208546221,0.0311101675,43.1247901917,41.0321350098,105.0491867065,0.0578494072,-0.0186886787,-0.0057500601,
161.603,-3.3284296989,1.4289109707,17.3419113159,0.0581397414,0.0463226214,0.0083465576,-106.3758087158,75.7985153198,57.1826972961,0.0417045951,0.0601261407,0.0177105069,16.1581745148,83.3606719971,124.3503875732,0.0235670805,0.0210201144,0.0194962621,43.1298980713,41.0282592773,105.0606460571,0.0656108856,-0.0158386230,-0.0091556311,
161.613,-3.3286104202,1.4293344021,17.3424568176,0.0586354099,0.0438843407,0.0112761855,-106.1127853394,75.7999267578,57.4236373901,0.0382927060,0.0579761416,0.0122232437,16.1059989929,83.3683547974,124.3066329956,0.0226060152,0.0255536139,0.0195918679,43.1354026794,41.0245132446,105.0747070313,0.0728858113,-0.0149441361,-0.0076716542,
161.623,-3.3299465179,1.4283972979,17.3455009460,0.0595956221,0.0439076461,0.0107895136,-105.8406906128,75.8002471924,57.6668472290,0.0514776707,0.0592687279,0.0076785684,16.0374736786,83.3731536865,124.2471618652,0.0289633274,0.0218048394,0.0191435218,43.1349792480,41.0185241699,105.0828475952,0.0649944544,-0.0140104294,-0.0013783574,
161.633,-3.3301320076,1.4278261662,17.3478736877,0.0620270669,0.0439108834,-0.0019067526,-105.5402374268,75.8041076660,57.9288673401,0.0524707437,0.0634610206,0.0054405928,15.9971733093,83.3765258789,124.2159576416,0.0275052786,0.0258062184,0.0250353813,43.1362876892,41.0140686035,105.0923995972,0.0707951188,-0.0140578747,-0.0067743063,
161.643,-3.3308589458,1.4297436476,17.3483200073,0.0576659888,0.0419703759,0.0107909441,-105.2123031616,75.8061676025,58.2141151428,0.0534561276,0.0623348951,0.0143256783,15.9481954575,83.3778839111,124.1756744385,0.0304377079,0.0156550109,0.0216121078,43.1360359192,41.0099983215,105.0992126465,0.0712298155,-0.0140873790,-0.0043696165,
161.653,-3.3294334412,1.4312864542,17.3488044739,0.0586694703,0.0453634709,0.0010239482,-104.8698043823,75.8083953857,58.5113792419,0.0524891019,0.0695155412,0.0138706565,15.9356927872,83.3790740967,124.1706771851,0.0265338421,0.0191033185,0.0186955929,43.1355209351,41.0112686157,105.1047515869,0.0722230673,-0.0184670091,-0.0126643777,
161.663,-3.3279576302,1.4319788218,17.3492832184,0.0640526414,0.0497322790,0.0088353753,-104.5013809204,75.8116226196,58.8367614746,0.0466435552,0.0654674768,0.0186728835,15.9401702881,83.3761062622,124.1832275391,0.0338521004,0.0210336745,0.0230436325,43.1360282898,41.0128784180,105.1102294922,0.0693145990,-0.0111350417,-0.0077635050,
161.673,-3.3286988735,1.4310197830,17.3504905701,0.0591531023,0.0419327244,0.0063944459,-104.0835266113,75.8168792725,59.2170867920,0.0378769636,0.0711941570,0.0354659557,15.9461822510,83.3745727539,124.1972198486,0.0255482197,0.0249207616,0.0215565562,43.1353492737,41.0141448975,105.1163177490,0.0649366975,-0.0106303692,-0.0009231567,
161.683,-3.3281378746,1.4297498465,17.3523349762,0.0625489056,0.0507120453,0.0073698163,-103.6652374268,75.8252029419,59.6029396057,0.0349828601,0.0734412372,0.0195279717,15.9427804947,83.3721084595,124.2031555176,0.0206604600,0.0229628384,0.0366511345,43.1377716064,41.0149307251,105.1265716553,0.0669002533,-0.0116240382,-0.0121252537,
161.693,-3.3296022415,1.4303162098,17.3522701263,0.0557228550,0.0395070650,0.0068833828,-103.2093887329,75.8378982544,60.0297927856,0.0311308503,0.0736851543,0.0292944312,15.9337615967,83.3774642944,124.2038269043,0.0196946859,0.0283767879,0.0181793571,43.1417655945,41.0172119141,105.1381988525,0.0625357628,-0.0126211047,-0.0174413919,
161.703,-3.3294947147,1.4326565266,17.3539772034,0.0542988442,0.0404816978,0.0112783909,-102.7326202393,75.8551330566,60.4766349792,0.0297395587,0.0792298317,0.0174720883,15.8990898132,83.3816223145,124.1800460815,0.0250741243,0.0260231495,0.0260414481,43.1445617676,41.0160064697,105.1506958008,0.0654495955,-0.0126574039,-0.0061956644,
161.713,-3.3288123608,1.4323923588,17.3551635742,0.0567356423,0.0404698141,0.0068838000,-102.1944732666,75.8800430298,60.9819488525,0.0313105583,0.0729666948,0.0307571292,15.8460893631,83.3895645142,124.1415481567,0.0202072859,0.0276291370,0.0183292031,43.1460380554,41.0105705261,105.1624069214,0.0634248853,-0.0107609630,0.0010964870,
161.723,-3.3276202679,1.4322731495,17.3581657410,0.0611280948,0.0463084318,0.0137176514,-101.6404037476,75.9100875854,61.4982070923,0.0363211632,0.0744225532,0.0195471644,15.7810039520,83.3922576904,124.0922241211,0.0246072412,0.0238632560,0.0232201815,43.1479415894,41.0067596436,105.1738433838,0.0638629198,-0.0147154331,-0.0111252069,
161.733,-3.3292772770,1.4298561811,17.3594417572,0.0620624833,0.0473139174,0.0049299598,-101.0477294922,75.9467391968,62.0476684570,0.0428243279,0.0757766366,0.0145072341,15.6868162155,83.3991165161,124.0107498169,0.0255975723,0.0201736391,0.0193743110,43.1469955444,41.0008163452,105.1833190918,0.0711089373,-0.0186589956,-0.0014176369,
161.743,-3.3296337128,1.4302157164,17.3592662811,0.0649984479,0.0434138663,0.0063949227,-100.4338378906,75.9879455566,62.6115417480,0.0449518561,0.0716710389,0.0108371973,15.6197261810,83.4066085815,123.9565734863,0.0265891552,0.0154568553,0.0121359825,43.1492118835,40.9956398010,105.1942901611,0.0690875649,-0.0153029561,0.0000237823,
161.753,-3.3338100910,1.4302743673,17.3604621887,0.0557221286,0.0405569226,0.0107938647,-99.7921600342,76.0322036743,63.1979064941,0.0500214100,0.0743414760,0.0163294077,15.5752983093,83.4117355347,123.9255523682,0.0290408134,0.0243561268,0.0151236057,43.1460647583,40.9922485352,105.2024307251,0.0690429211,-0.0201820135,-0.0024743080,
161.763,-3.3330218792,1.4278460741,17.3617038727,0.0639805347,0.0473791920,-0.0019033551,-99.1200866699,76.0791320801,63.8097686768,0.0526601672,0.0740238428,0.0153518319,15.5213069916,83.4145889282,123.8856353760,0.0280699730,0.0166632533,0.0205156803,43.1464729309,40.9922370911,105.2128295898,0.0685544610,-0.0128619075,-0.0078419447,
161.773,-3.3305256367,1.4286968708,17.3646087646,0.0639953837,0.0488005280,0.0088366270,-98.4294128418,76.1305847168,64.4370422363,0.0543406606,0.0711648166,0.0128338337,15.4753637314,83.4184036255,123.8533172607,0.0231947899,0.0192111433,0.0185959935,43.1461982727,40.9921760559,105.2226181030,0.0631825924,-0.0128596425,0.0019207597,
161.783,-3.3295004368,1.4280387163,17.3657932281,0.0600776486,0.0438998789,0.0015111566,-97.7401885986,76.1825027466,65.0647277832,0.0516278148,0.0804672837,0.0039885044,15.4462633133,83.4199523926,123.8370208740,0.0261275768,0.0207409263,0.0244689584,43.1470108032,40.9939842224,105.2324752808,0.0666243434,-0.0192009211,-0.0117284060,
161.793,-3.3273577690,1.4271923304,17.3663654327,0.0629925653,0.0477688313,0.0083445907,-97.0206985474,76.2416534424,65.7251892090,0.0406433940,0.0832782984,0.0130859017,15.4053306580,83.4210815430,123.8109588623,0.0232001543,0.0198490322,0.0264157057,43.1466255188,40.9935646057,105.2431411743,0.0700367689,-0.0118763447,-0.0083178878,
161.803,-3.3258454800,1.4262615442,17.3669681549,0.0610232055,0.0477425084,0.0049245954,-96.2855682373,76.3049850464,66.4058761597,0.0418822169,0.0820796192,0.0143187642,15.3584241867,83.4217987061,123.7773742676,0.0202718973,0.0258037150,0.0283560157,43.1488761902,40.9917716980,105.2538681030,0.0636655092,-0.0172831416,-0.0073355436,
161.813,-3.3251338005,1.4251099825,17.3668136597,0.0658859238,0.0364996754,0.0034581423,-95.5324554443,76.3703613281,67.1061706543,0.0411751866,0.0764158815,0.0198920369,15.2986888885,83.4234085083,123.7346343994,0.0246696472,0.0254397094,0.0259088278,43.1512527466,40.9853935242,105.2669143677,0.0694409013,-0.0119847655,-0.0044377446,
161.823,-3.3277304173,1.4260495901,17.3685665131,0.0571132563,0.0438691042,0.0127391815,-94.7678604126,76.4393615723,67.8187103271,0.0517121553,0.0765114725,0.0112779140,15.2396364212,83.4268112183,123.6925048828,0.0173522234,0.0265475512,0.0249580145,43.1564254761,40.9821434021,105.2821044922,0.0610972643,-0.0101068020,-0.0112541318,
161.833,-3.3292412758,1.4262950420,17.3684864044,0.0590706617,0.0414540097,0.0093222857,-93.9703979492,76.5065841675,68.5591506958,0.0524748564,0.0648833662,0.0108599067,15.1508855820,83.4311676025,123.6195602417,0.0217554569,0.0199049711,0.0225411057,43.1571464539,40.9751892090,105.2922897339,0.0668650270,-0.0126095414,0.0013896227,
161.843,-3.3265821934,1.4250335693,17.3709430695,0.0605134964,0.0472670943,0.0078545213,-93.1579742432,76.5806045532,69.3088912964,0.0537520647,0.0692083687,0.0035676956,15.0817670822,83.4374389648,123.5656814575,0.0256742239,0.0190915167,0.0138182640,43.1566810608,40.9726905823,105.3022079468,0.0658555031,-0.0189723372,-0.0108424425,
161.853,-3.3280889988,1.4244700670,17.3720951080,0.0624567941,0.0433871038,0.0176210999,-92.3067169189,76.6528015137,70.0881652832,0.0594148040,0.0676625222,0.0054296255,15.0412893295,83.4418945313,123.5390853882,0.0256831050,0.0270029604,0.0167999268,43.1611671448,40.9710121155,105.3167037964,0.0697396994,-0.0092629194,-0.0166754127,
161.863,-3.3282723427,1.4249703884,17.3738155365,0.0605123937,0.0438785627,0.0039498210,-91.4205474854,76.7229614258,70.8971328735,0.0567671061,0.0670775026,0.0071864128,14.9863443375,83.4444351196,123.4963455200,0.0315475464,0.0222386718,0.0260895491,43.1653976440,40.9676818848,105.3313827515,0.0677425861,-0.0073766112,-0.0122707486,
161.873,-3.3294296265,1.4249758720,17.3737182617,0.0600242093,0.0404807515,0.0127403140,-90.5053024292,76.7971038818,71.7360839844,0.0560868979,0.0829728246,0.0049545765,14.9484605789,83.4458084106,123.4743652344,0.0227612257,0.0232954621,0.0246275663,43.1654434204,40.9653053284,105.3429412842,0.0711292624,-0.0127667785,-0.0044776201,
161.883,-3.3299443722,1.4251834154,17.3742332458,0.0614926741,0.0448842496,0.0098111033,-89.5612258911,76.8674774170,72.6073989868,0.0544135571,0.0749439001,0.0099722743,14.9132614136,83.4505462646,123.4556503296,0.0291182995,0.0233850479,0.0188276768,43.1653442383,40.9606704712,105.3543167114,0.0686267614,-0.0157317519,0.0003659129,
161.893,-3.3304502964,1.4246473312,17.3747844696,0.0600184761,0.0404985398,0.0161590576,-88.6045455933,76.9360656738,73.5014266968,0.0581028461,0.0825077593,0.0013068318,14.8701181412,83.4552688599,123.4259262085,0.0266863108,0.0234901905,0.0223013759,43.1656036377,40.9589233398,105.3659210205,0.0632326603,-0.0177011490,-0.0030648112,
161.903,-3.3275954723,1.4264696836,17.3759765625,0.0537026152,0.0502143949,0.0059030652,-87.6513442993,77.0013961792,74.4032058716,0.0593364835,0.0812745541,0.0019711256,14.8393754959,83.4598846436,123.4090957642,0.0262072086,0.0265001655,0.0213853717,43.1696014404,40.9576072693,105.3798980713,0.0602856278,-0.0133551955,-0.0084105730,
161.913,-3.3313384056,1.4263057709,17.3758163452,0.0649302229,0.0400256850,0.0127426982,-86.6715393066,77.0621566772,75.3371429443,0.0654338598,0.0810300410,0.0108658671,14.7662963867,83.4606628418,123.3524856567,0.0271853209,0.0207869411,0.0252666473,43.1702804565,40.9538879395,105.3942489624,0.0748850107,-0.0158323050,-0.0040410161,
161.923,-3.3313188553,1.4265861511,17.3762569427,0.0629819930,0.0405136272,-0.0009288788,-85.6879425049,77.1142196655,76.2684936523,0.0700314045,0.0671935380,0.0056147575,14.7260971069,83.4643630981,123.3287963867,0.0257278085,0.0247872770,0.0213983655,43.1734161377,40.9525451660,105.4091262817,0.0699844956,-0.0124549866,-0.0098832846,
161.933,-3.3308758736,1.4258588552,17.3780536652,0.0605278946,0.0439238921,0.0039526820,-84.6728591919,77.1571655273,77.2171783447,0.0662920475,0.0592959076,0.0022150278,14.6815280914,83.4648056030,123.3005905151,0.0262169838,0.0214591026,0.0228517056,43.1757316589,40.9512367249,105.4245605469,0.0733852386,-0.0202999115,-0.0147560835,
161.943,-3.3294215202,1.4244605303,17.3792076111,0.0648980290,0.0453634374,0.0044392347,-83.6258468628,77.1988220215,78.1875381470,0.0688948035,0.0689172447,0.0040928125,14.6474504471,83.4672698975,123.2820510864,0.0242687464,0.0195822716,0.0233587623,43.1755485535,40.9488601685,105.4365997314,0.0714008212,-0.0115276575,0.0003591776,
161.953,-3.3303184509,1.4275127649,17.3796234131,0.0556739382,0.0414727330,0.0054180026,-82.5616531372,77.2400817871,79.1717300415,0.0592885017,0.0735824555,0.0000783801,14.6225376129,83.4690704346,123.2728195190,0.0169481039,0.0259872675,0.0219153762,43.1762046814,40.9462928772,105.4466552734,0.0655075908,-0.0115541220,0.0022968650,
161.963,-3.3314096928,1.4276641607,17.3807373047,0.0595828295,0.0385620557,0.0073719621,-81.4663085938,77.2796401978,80.1871261597,0.0657883883,0.0752541274,0.0023255348,14.5855979919,83.4703903198,123.2494354248,0.0237866640,0.0250874460,0.0277727842,43.1804046631,40.9465866089,105.4603271484,0.0625817180,-0.0154984593,-0.0093815923,
161.973,-3.3324415684,1.4277254343,17.3824863434,0.0600721836,0.0429745615,0.0088382363,-80.3790969849,77.3155593872,81.1988601685,0.0644614100,0.0715468228,-0.0012302995,14.5430994034,83.4760131836,123.2227630615,0.0277040601,0.0217772722,0.0224763155,43.1899032593,40.9457015991,105.4783706665,0.0654997826,-0.0077841878,-0.0127211213,
161.983,-3.3343970776,1.4309476614,17.3834114075,0.0596401244,0.0376374386,0.0103063583,-79.3125610352,77.3487625122,82.1991577148,0.0665416121,0.0766131282,-0.0144451261,14.4918642044,83.4826507568,123.1845016479,0.0174633265,0.0214166641,0.0249984264,43.1971549988,40.9424209595,105.4964065552,0.0644799471,-0.0142272711,-0.0092650056,
161.993,-3.3340826035,1.4298229218,17.3845558167,0.0640150309,0.0434913747,0.0063994527,-78.2639083862,77.3733291626,83.1926956177,0.0729830861,0.0754182637,-0.0041507483,14.3956642151,83.4913864136,123.1021728516,0.0208985806,0.0192005634,0.0187500119,43.2014961243,40.9384002686,105.5106735229,0.0595441461,-0.0118590593,-0.0077945590,
162.003,-3.3320441246,1.4272921085,17.3863792419,0.0649474338,0.0429676436,0.0107908845,-77.2365875244,77.3929519653,84.1684570313,0.0794055462,0.0781596601,-0.0069479942,14.3356103897,83.4977188110,123.0573120117,0.0297001600,0.0291091800,0.0271216035,43.2064170837,40.9307327271,105.5262832642,0.0692086816,-0.0158727169,-0.0063496232,
162.013,-3.3309972286,1.4275544882,17.3881530762,0.0595809221,0.0458790921,0.0151844025,-76.2592697144,77.4053344727,85.0977325439,0.0848237872,0.0756300241,-0.0129804015,14.2581939697,83.5040512085,122.9937515259,0.0297126770,0.0239160359,0.0276792645,43.2115516663,40.9241294861,105.5422744751,0.0627739429,-0.0193916559,-0.0058696270,
162.023,-3.3327846527,1.4264948368,17.3879947662,0.0678632110,0.0405391604,0.0073727965,-75.3170394897,77.4115219116,85.9954452515,0.0872887373,0.0756163299,-0.0179102421,14.1853647232,83.5125656128,122.9355697632,0.0272880793,0.0201870799,0.0146003962,43.2157592773,40.9193725586,105.5572433472,0.0695471168,-0.0126333237,-0.0127071738,
162.033,-3.3340296745,1.4264459610,17.3878784180,0.0600498579,0.0381194353,0.0078625679,-74.3875198364,77.4155654907,86.8802566528,0.0951166153,0.0795005560,-0.0149719715,14.1406641006,83.5140838623,122.9049453735,0.0214316845,0.0222332776,0.0272982121,43.2178611755,40.9141960144,105.5693359375,0.0709437132,-0.0107409954,-0.0015007854,
162.043,-3.3371987343,1.4270910025,17.3889427185,0.0600611120,0.0376863368,0.0093310475,-73.4690399170,77.4220733643,87.7550277710,0.0912351012,0.0837913305,-0.0153825879,14.1052217484,83.5198287964,122.8809585571,0.0277906656,0.0272085667,0.0141907930,43.2203292847,40.9118728638,105.5825119019,0.0738427639,-0.0142008662,-0.0146813989,
162.053,-3.3379130363,1.4262717962,17.3912792206,0.0634647906,0.0396519303,0.0137261152,-72.5511169434,77.4279098511,88.6251983643,0.0849096179,0.0831578672,-0.0133336782,14.0693674088,83.5232772827,122.8569412231,0.0356099606,0.0141088963,0.0161833763,43.2238998413,40.9126472473,105.5948410034,0.0704349875,-0.0152057409,-0.0146427155,
162.063,-3.3381514549,1.4267835617,17.3930339813,0.0585909039,0.0435623117,0.0117734075,-71.6309127808,77.4300384521,89.4961853027,0.0780817866,0.0727614611,-0.0025024414,14.0523414612,83.5271835327,122.8527221680,0.0278051496,0.0214830935,0.0152668357,43.2270431519,40.9154319763,105.6054916382,0.0675420761,-0.0152140856,-0.0150794387,
162.073,-3.3377799988,1.4253363609,17.3936595917,0.0585656539,0.0416027680,0.0054248571,-70.7236785889,77.4316253662,90.3548583984,0.0780878067,0.0789405853,-0.0077234507,14.0313062668,83.5295181274,122.8416442871,0.0282980204,0.0225091875,0.0245679021,43.2319374084,40.9151458740,105.6180648804,0.0650969148,-0.0123336315,-0.0033188462,
162.083,-3.3366270065,1.4231828451,17.3948650360,0.0653640181,0.0464655459,0.0034691095,-69.8206863403,77.4328002930,91.2075576782,0.0800454021,0.0777553022,-0.0050994754,14.0040588379,83.5317001343,122.8258514404,0.0239077806,0.0250132382,0.0245946050,43.2357711792,40.9147567749,105.6322250366,0.0650917292,-0.0138384700,-0.0071937442,
162.093,-3.3387696743,1.4243057966,17.3953533173,0.0580593906,0.0435731523,0.0029841065,-68.9204330444,77.4294586182,92.0517654419,0.0893100500,0.0761065930,-0.0058920383,13.9631338120,83.5372772217,122.7984619141,0.0244070292,0.0221851468,0.0158742666,43.2385520935,40.9108695984,105.6441955566,0.0689467788,-0.0138956308,0.0020764470,
162.103,-3.3387899399,1.4237737656,17.3952579498,0.0639094859,0.0445500799,0.0083546042,-68.0367584229,77.4163894653,92.8727340698,0.0926783681,0.0721420795,-0.0071579218,13.9254465103,83.5416488647,122.7723159790,0.0263687372,0.0213001668,0.0203260183,43.2394981384,40.9070129395,105.6544113159,0.0654778481,-0.0129582882,0.0035177469,
162.113,-3.3386261463,1.4231569767,17.3976325989,0.0604807511,0.0406409949,0.0103074312,-67.1554489136,77.3918228149,93.6844863892,0.0950262547,0.0668436587,-0.0016407967,13.8781547546,83.5456619263,122.7391738892,0.0317476988,0.0209195018,0.0223206282,43.2398147583,40.9030570984,105.6654052734,0.0673788190,-0.0120157599,0.0000695586,
162.123,-3.3374452591,1.4242355824,17.3987636566,0.0585464463,0.0464797691,0.0093300939,-66.2696762085,77.3642959595,94.5045242310,0.0910150409,0.0761817545,-0.0015239120,13.8437147141,83.5486373901,122.7200927734,0.0239410400,0.0190452337,0.0145409703,43.2427139282,40.9051170349,105.6775588989,0.0639880300,-0.0178868771,-0.0101409554,
162.133,-3.3374309540,1.4216774702,17.3999156952,0.0692439973,0.0445264615,0.0112819672,-65.3693084717,77.3335952759,95.3436813354,0.0923625231,0.0898847431,0.0014585853,13.8467264175,83.5496749878,122.7377853394,0.0278493166,0.0239266455,0.0209083557,43.2463111877,40.9047088623,105.6887741089,0.0669123530,-0.0110886693,-0.0071821809,
162.143,-3.3378727436,1.4210215807,17.4010200500,0.0643497407,0.0430693291,0.0020049214,-64.4613647461,77.2941284180,96.1956787109,0.0853753090,0.0831456184,0.0033816099,13.8253488541,83.5516815186,122.7306671143,0.0239470005,0.0181168616,0.0228845477,43.2517395020,40.9067993164,105.7029495239,0.0674281716,-0.0121011734,-0.0154164433,
162.153,-3.3368129730,1.4203726053,17.4027538300,0.0648266971,0.0459805727,0.0117691159,-63.5276756287,77.2512130737,97.0807495117,0.0778860450,0.0851443112,0.0056824684,13.8270254135,83.5524444580,122.7440261841,0.0259016156,0.0269053578,0.0272902846,43.2559814453,40.9061126709,105.7153472900,0.0693722963,-0.0121472478,-0.0114776492,
162.163,-3.3380753994,1.4226638079,17.4032287598,0.0541244932,0.0401431322,0.0078651309,-62.5957832336,77.2039031982,97.9688262939,0.0786800981,0.0808015168,0.0011243224,13.7982301712,83.5556335449,122.7268981934,0.0224899054,0.0196503401,0.0239139199,43.2576141357,40.9031600952,105.7267837524,0.0673801899,-0.0112094879,-0.0017217398,
162.173,-3.3382606506,1.4234237671,17.4049167633,0.0595088452,0.0396580622,0.0010296702,-61.6511421204,77.1504211426,98.8713912964,0.0809143186,0.0837874413,-0.0030351281,13.7733602524,83.5592880249,122.7155685425,0.0210322142,0.0216662586,0.0205439329,43.2626075745,40.9026603699,105.7405700684,0.0649322271,-0.0112614036,-0.0055871010,
162.183,-3.3375074863,1.4245533943,17.4066944122,0.0565988682,0.0469691306,0.0176309943,-60.7064056396,77.0886383057,99.7664794922,0.0855567455,0.0726675689,-0.0057958364,13.7132606506,83.5663528442,122.6695098877,0.0254405737,0.0222992599,0.0245384574,43.2686767578,40.8989181519,105.7540054321,0.0639062524,-0.0093959570,-0.0040985346,
162.193,-3.3360366821,1.4238936901,17.4085140228,0.0604936071,0.0474318080,0.0098167658,-59.7527313232,77.0254516602,100.6588821411,0.0877511501,0.0766163170,-0.0095745921,13.6581392288,83.5738525391,122.6253280640,0.0235021114,0.0248773396,0.0231717229,43.2723960876,40.8933029175,105.7673950195,0.0628556609,-0.0114287138,0.0007712841,
162.203,-3.3342750072,1.4236463308,17.4103603363,0.0565830395,0.0464245677,-0.0004391670,-58.8016891479,76.9570159912,101.5442733765,0.0962713361,0.0791095793,-0.0104599595,13.5838422775,83.5788040161,122.5638046265,0.0210703611,0.0225991905,0.0271250606,43.2744483948,40.8896713257,105.7797317505,0.0637842417,-0.0158714056,-0.0016818643,
162.213,-3.3347220421,1.4215871096,17.4115676880,0.0628947765,0.0430144332,0.0034669042,-57.8681335449,76.8850097656,102.4141311646,0.0989166498,0.0801536590,-0.0064371228,13.5221109390,83.5830154419,122.5136184692,0.0230317116,0.0232234299,0.0281428099,43.2812995911,40.8872909546,105.7936248779,0.0647293925,-0.0169324875,-0.0114052892,
162.223,-3.3337526321,1.4200080633,17.4134254456,0.0614023730,0.0478804000,0.0049296618,-56.9404182434,76.8143005371,103.2812957764,0.0996124148,0.0889323056,-0.0121499300,13.4444847107,83.5901718140,122.4471054077,0.0181628466,0.0170537531,0.0228538513,43.2853698730,40.8810615540,105.8065948486,0.0690417290,-0.0126258135,-0.0045843720,
162.233,-3.3337061405,1.4181091785,17.4152774811,0.0603926778,0.0425085425,0.0054172873,-56.0253868103,76.7475662231,104.1384506226,0.0998343825,0.0902865827,-0.0119213462,13.3796844482,83.5957412720,122.3938293457,0.0235447884,0.0230602026,0.0194991231,43.2918434143,40.8749160767,105.8221130371,0.0635895729,-0.0073649883,-0.0036000609,
162.243,-3.3339538574,1.4189590216,17.4145736694,0.0569895431,0.0415362753,0.0146955252,-55.1242218018,76.6834259033,104.9892120361,0.0986005664,0.0959629864,-0.0169904828,13.3019866943,83.6027297974,122.3275756836,0.0269763470,0.0232371688,0.0137194991,43.2971458435,40.8679809570,105.8357772827,0.0688691139,-0.0143063068,-0.0036101937,
162.253,-3.3332223892,1.4195891619,17.4151058197,0.0574888140,0.0429883637,-0.0019069910,-54.2577781677,76.6207504272,105.8106002808,0.1046956778,0.0913813710,-0.0233908296,13.2141609192,83.6087951660,122.2494659424,0.0201522112,0.0219650567,0.0269637704,43.3043174744,40.8613433838,105.8501663208,0.0673166513,-0.0119857788,-0.0021354556,
162.263,-3.3339734077,1.4188492298,17.4162483215,0.0628470033,0.0439780243,0.0112777352,-53.4139404297,76.5559082031,106.6116409302,0.1049214602,0.0858456194,-0.0131326318,13.1229848862,83.6125411987,122.1684875488,0.0250422955,0.0245963931,0.0299144983,43.3136215210,40.8547363281,105.8684692383,0.0628349185,-0.0067557096,-0.0055238008,
162.273,-3.3342773914,1.4182028770,17.4180126190,0.0603943169,0.0391005278,0.0083471537,-52.5914916992,76.4900970459,107.3884353638,0.1124662757,0.0856870413,-0.0159938335,13.0299396515,83.6181640625,122.0844879150,0.0284711719,0.0218673050,0.0255716443,43.3207359314,40.8475646973,105.8825683594,0.0690879226,-0.0093215704,-0.0040540695,
162.283,-3.3360581398,1.4184724092,17.4197216034,0.0594224557,0.0381549783,0.0112795830,-51.7839088440,76.4279022217,108.1457901001,0.1117238402,0.0839951634,-0.0177876949,12.9692115784,83.6216354370,122.0341262817,0.0289661884,0.0215091705,0.0231612325,43.3246421814,40.8440818787,105.8937606812,0.0724598765,-0.0147575140,-0.0133249164,
