Time(sec),Gyr1_X(deg/sec),Gyr1_Y(deg/sec),Gyr1_Z(deg/sec),Acc1_X(m/s^2),Acc1_Y(m/s^2),Acc1_Z(m/s^2),Gyr2_X(deg/sec),Gyr2_Y(deg/sec),Gyr2_Z(deg/sec),Acc2_X(m/s^2),Acc2_Y(m/s^2),Acc2_Z(m/s^2),Gyr_X(deg/sec),Gyr_Y(deg/sec),Gyr_Z(deg/sec),Acc_X(m/s^2),Acc_Y(m/s^2),Acc_Z(m/s^2),Gyr_X(deg/sec),Gyr_Y(deg/sec),Gyr_Z(deg/sec),Acc_X(m/s^2),Acc_Y(m/s^2),Acc_Z(m/s^2),
312.923,-3.2898271084,1.3765048981,34.8126602173,0.0591784827,0.0402803943,0.0102381706,-101.0101318359,-8.9056186676,64.4732131958,-0.0234596133,-0.0411832333,0.0095388293,-21.0936355591,85.6359634399,-157.1215667725,0.0185850859,0.0240360498,0.0259075761,44.5562515259,39.0223388672,-150.3592529297,0.0607756972,-0.0109988451,-0.0068123341,
312.933,-3.2863028049,1.3760848045,34.8127021790,0.0572180301,0.0504729263,0.0121876001,-101.0143432617,-8.9129714966,64.4975662231,-0.0221215487,-0.0421931744,0.0061883032,-21.0421695709,85.6342544556,-157.0581207275,0.0200476646,0.0230037272,0.0268312693,44.5557785034,39.0257606506,-150.3519287109,0.0637517571,-0.0143859982,-0.0097198486,
312.943,-3.2840631008,1.3758143187,34.8152046204,0.0547719039,0.0479925089,0.0033962727,-101.0221023560,-8.9219264984,64.5229187012,-0.0159282982,-0.0398011208,0.0121743977,-20.9907722473,85.6339416504,-156.9937133789,0.0190706849,0.0312401950,0.0268010497,44.5586471558,39.0283126831,-150.3419952393,0.0593919158,-0.0124408603,-0.0067427158,
312.953,-3.2848830223,1.3766777515,34.8168487549,0.0616229065,0.0372645818,0.0107216239,-101.0325088501,-8.9295263290,64.5468521118,-0.0150827765,-0.0393674374,0.0084406883,-20.9749908447,85.6313858032,-156.9665069580,0.0210204124,0.0234223008,0.0296838880,44.5589408875,39.0274581909,-150.3343963623,0.0637748241,-0.0236807466,-0.0043051243,
312.963,-3.2843968868,1.3784358501,34.8173255920,0.0582356155,0.0440920070,0.0107219815,-101.0445480347,-8.9373121262,64.5701446533,-0.0117990673,-0.0291738510,0.0061989278,-20.9799442291,85.6303558350,-156.9599304199,0.0219956040,0.0219702423,0.0252751708,44.5576248169,39.0254898071,-150.3262023926,0.0637481213,-0.0109878778,-0.0014035106,
312.973,-3.2831406593,1.3769253492,34.8173637390,0.0611389428,0.0489529669,0.0146263838,-101.0568618774,-8.9449472427,64.5929946899,-0.0148603916,-0.0292347670,0.0049385279,-21.0636901855,85.6334533691,-157.0341491699,0.0200465918,0.0147352815,0.0131580830,44.5586776733,39.0226593018,-150.3170318604,0.0681042671,-0.0188323259,-0.0053219199,
312.983,-3.2821071148,1.3773915768,34.8160476685,0.0601705164,0.0440521501,0.0082774162,-101.0633697510,-8.9498567581,64.6141738892,-0.0188512504,-0.0307344198,0.0069994330,-21.0770854950,85.6319656372,-157.0421905518,0.0224860311,0.0259926319,0.0233932137,44.5608978271,39.0189590454,-150.3124084473,0.0690307021,-0.0169292092,-0.0092359781,
312.993,-3.2802603245,1.3752760887,34.8178405762,0.0655046999,0.0445083082,0.0072988272,-101.0637512207,-8.9561548233,64.6353759766,-0.0150536001,-0.0380765796,0.0079790801,-21.1161289215,85.6312942505,-157.0774536133,0.0278562307,0.0201877654,0.0194954872,44.5606079102,39.0171737671,-150.3081665039,0.0675415993,-0.0105925202,-0.0038818121,
313.003,-3.2800045013,1.3744750023,34.8202133179,0.0654907227,0.0474335626,0.0116918087,-101.0626525879,-8.9624948502,64.6562957764,-0.0219988525,-0.0371130705,0.0089333355,-21.0926094055,85.6282501221,-157.0492248535,0.0249224901,0.0211514235,0.0326227546,44.5614585876,39.0177268982,-150.3007049561,0.0655960441,-0.0115729570,-0.0107049346,
313.013,-3.2799406052,1.3740973473,34.8213424683,0.0615778826,0.0425496399,0.0112040639,-101.0615158081,-8.9672765732,64.6784286499,-0.0196398795,-0.0395637751,0.0137949288,-21.0552864075,85.6287002563,-157.0066833496,0.0239465237,0.0264723599,0.0243083835,44.5627136230,39.0220375061,-150.2930755615,0.0627247095,-0.0159464478,-0.0131007433,
313.023,-3.2786252499,1.3747574091,34.8230972290,0.0601245575,0.0469212458,0.0087612867,-101.0651168823,-8.9742498398,64.7015304565,-0.0251311958,-0.0356878042,0.0089690089,-21.0100631714,85.6285171509,-156.9550170898,0.0195517540,0.0239737630,0.0272129178,44.5613670349,39.0229263306,-150.2876281738,0.0705493093,-0.0066493154,-0.0072479248,
313.033,-3.2792191505,1.3764176369,34.8235893250,0.0562472716,0.0425370149,0.0048569441,-101.0696640015,-8.9837560654,64.7208328247,-0.0296896100,-0.0371932983,0.0119708776,-20.9250411987,85.6261901855,-156.8612213135,0.0249197483,0.0238777101,0.0329946876,44.5585441589,39.0248908997,-150.2824249268,0.0705759525,-0.0149075389,-0.0043286085,
313.043,-3.2807264328,1.3799036741,34.8246650696,0.0499604419,0.0371921025,0.0033945441,-101.0724945068,-8.9933624268,64.7422409058,-0.0269255340,-0.0440641642,0.0183614194,-20.8568553925,85.6248474121,-156.7817382813,0.0234531164,0.0213563144,0.0309868455,44.5603904724,39.0282821655,-150.2737274170,0.0667156577,-0.0095283389,-0.0096567869,
313.053,-3.2820322514,1.3790516853,34.8264122009,0.0631291717,0.0420976803,0.0048605204,-101.0787734985,-9.0051994324,64.7630386353,-0.0251764357,-0.0338627100,0.0116254389,-20.7756500244,85.6237716675,-156.6875152588,0.0190571547,0.0276049674,0.0275138021,44.5601730347,39.0290641785,-150.2655029297,0.0701442361,-0.0109848976,-0.0081870556,
313.063,-3.2827079296,1.3798424006,34.8282012939,0.0553304665,0.0421094261,0.0073026419,-101.0830154419,-9.0186853409,64.7843017578,-0.0190612674,-0.0324481726,0.0151083320,-20.7280063629,85.6240005493,-156.6285400391,0.0175926089,0.0241246819,0.0250506401,44.5583763123,39.0303039551,-150.2597198486,0.0647899508,-0.0080284476,-0.0008708239,
313.073,-3.2822108269,1.3780866861,34.8300247192,0.0621357709,0.0440539345,0.0082781911,-101.0945281982,-9.0302553177,64.8058853149,-0.0192606747,-0.0310525298,0.0001603067,-20.7186889648,85.6238632202,-156.6077575684,0.0263814926,0.0226479173,0.0250461698,44.5598793030,39.0326385498,-150.2523803711,0.0653098822,-0.0182787180,-0.0071851611,
313.083,-3.2818219662,1.3794336319,34.8323974609,0.0558116138,0.0435588509,0.0126729012,-101.1040496826,-9.0413942337,64.8253173828,-0.0131050348,-0.0320905447,0.0105693042,-20.7159214020,85.6225662231,-156.5947265625,0.0263797641,0.0211877525,0.0264874697,44.5613288879,39.0334281921,-150.2436676025,0.0638557673,-0.0134038925,-0.0037478805,
313.093,-3.2814524174,1.3791710138,34.8329582214,0.0587367192,0.0415992923,0.0063247085,-101.1161575317,-9.0500421524,64.8446044922,-0.0137423873,-0.0282477140,0.0039336085,-20.7018070221,85.6224288940,-156.5708770752,0.0210084915,0.0211702883,0.0220838785,44.5592994690,39.0330276489,-150.2383422852,0.0653151274,-0.0138756633,-0.0037699938,
313.103,-3.2822062969,1.3781061172,34.8341445923,0.0616478324,0.0440538563,0.0058368444,-101.1227264404,-9.0561351776,64.8634719849,-0.0197067559,-0.0370750427,0.0089243054,-20.6920528412,85.6237716675,-156.5496368408,0.0219868422,0.0245664120,0.0206392407,44.5577812195,39.0328025818,-150.2324676514,0.0701949000,-0.0138627291,-0.0008565784,
313.113,-3.2820112705,1.3778821230,34.8334999084,0.0587142333,0.0430739000,0.0170670748,-101.1243896484,-9.0618867874,64.8795700073,-0.0207824707,-0.0356313586,0.0143206865,-20.6860847473,85.6223373413,-156.5334472656,0.0254029036,0.0235927999,0.0240250230,44.5551033020,39.0327911377,-150.2247772217,0.0701947212,-0.0226260424,-0.0072297454,
313.123,-3.2806911469,1.3774203062,34.8353157043,0.0596827343,0.0469571650,0.0063232183,-101.1244430542,-9.0690259933,64.8956451416,-0.0209055245,-0.0317442417,0.0074813962,-20.6528511047,85.6238174438,-156.4919738770,0.0219869018,0.0298873484,0.0220832825,44.5565643311,39.0347671509,-150.2170867920,0.0682684779,-0.0118826628,-0.0062237382,
313.133,-3.2816638947,1.3757554293,34.8358421326,0.0660013407,0.0411147736,0.0116947293,-101.1268768311,-9.0754909515,64.9126892090,-0.0219934881,-0.0361645222,0.0119141340,-20.6180629730,85.6254272461,-156.4458770752,0.0205242038,0.0288563073,0.0230681300,44.5575065613,39.0354652405,-150.2096710205,0.0633950830,-0.0133512020,-0.0057211518,
313.143,-3.2833187580,1.3752816916,34.8375358582,0.0640399531,0.0387022085,0.0073016286,-101.1304779053,-9.0837383270,64.9321212769,-0.0196942389,-0.0264333487,0.0197832584,-20.6031475067,85.6279830933,-156.4195556641,0.0224807262,0.0249156952,0.0201711059,44.5571594238,39.0318641663,-150.2026367188,0.0711587667,-0.0084928870,-0.0018464327,
313.153,-3.2814066410,1.3745645285,34.8381004333,0.0625625998,0.0469697006,0.0087637901,-101.1395874023,-9.0841941833,64.9514007568,-0.0250731707,-0.0284177065,0.0238429606,-20.6089191437,85.6285629272,-156.4107818604,0.0229697824,0.0244315863,0.0245772004,44.5564308167,39.0314636230,-150.1929626465,0.0623642802,-0.0114185810,-0.0072276592,
313.163,-3.2822408676,1.3747689724,34.8373527527,0.0611013249,0.0396600105,0.0053474903,-101.1583023071,-9.0843906403,64.9719619751,-0.0182406306,-0.0294572711,0.0139057487,-20.6611537933,85.6321945190,-156.4501190186,0.0195566416,0.0220361352,0.0212419629,44.5597839355,39.0285034180,-150.1784362793,0.0672069788,-0.0114737749,-0.0096603632,
313.173,-3.2825453281,1.3749109507,34.8385620117,0.0576858297,0.0455246828,0.0136480331,-101.1799087524,-9.0799093246,64.9941635132,-0.0206048191,-0.0280523300,0.0157384276,-20.7083148956,85.6356887817,-156.4825897217,0.0268855095,0.0215879977,0.0237611532,44.5568542480,39.0226974487,-150.1690673828,0.0690813661,-0.0144198537,-0.0019207597,
313.183,-3.2827467918,1.3745453358,34.8384590149,0.0610974133,0.0396688282,0.0058360100,-101.1980972290,-9.0683526993,65.0158462524,-0.0262649953,-0.0275936127,0.0033569038,-20.7317886353,85.6355133057,-156.4938659668,0.0220024586,0.0225962996,0.0252335668,44.5524368286,39.0226478577,-150.1630554199,0.0627329946,-0.0173072815,-0.0048930645,
313.193,-3.2835741043,1.3714621067,34.8415451050,0.0649498701,0.0435895659,0.0097416639,-101.2073593140,-9.0565500259,65.0328979492,-0.0255732834,-0.0300341845,0.0059611797,-20.7067279816,85.6315689087,-156.4561462402,0.0239503384,0.0181929469,0.0349246860,44.5464019775,39.0224571228,-150.1572570801,0.0681015253,-0.0123676062,-0.0020223856,
313.203,-3.2839632034,1.3718492985,34.8432769775,0.0590972528,0.0387135185,0.0136481524,-101.2068176270,-9.0434265137,65.0486907959,-0.0219291449,-0.0319501162,0.0093768835,-20.6934432983,85.6316070557,-156.4301452637,0.0288332105,0.0220811963,0.0227136612,44.5424957275,39.0241279602,-150.1498565674,0.0686124563,-0.0118286610,-0.0044877529,
313.213,-3.2848203182,1.3720387220,34.8437309265,0.0615419596,0.0372635946,0.0092549324,-101.1985473633,-9.0302457809,65.0608978271,-0.0260964632,-0.0382348299,0.0097326189,-20.6073207855,85.6295013428,-156.3328247070,0.0234593153,0.0249126852,0.0289844275,44.5362968445,39.0295562744,-150.1448669434,0.0638032556,-0.0156332254,-0.0074340105,
313.223,-3.2867980003,1.3736473322,34.8454284668,0.0566872209,0.0397394225,0.0053513050,-101.1829910278,-9.0162658691,65.0724716187,-0.0229257941,-0.0361920595,0.0163126439,-20.4653873444,85.6274414063,-156.1779785156,0.0210151672,0.0271825194,0.0215594769,44.5317459106,39.0358200073,-150.1381378174,0.0697475076,-0.0091933012,-0.0079163909,
313.233,-3.2873339653,1.3764445782,34.8470687866,0.0567360260,0.0426783711,0.0029116273,-101.1708297729,-9.0067281723,65.0854949951,-0.0198316872,-0.0331962109,0.0141589195,-20.3256511688,85.6271743774,-156.0235900879,0.0190616846,0.0294432044,0.0258867741,44.5254669189,39.0438117981,-150.1332092285,0.0620433688,-0.0139538050,-0.0054720640,
313.243,-3.2880218029,1.3766463995,34.8481483459,0.0616223589,0.0378075354,0.0092597008,-101.1675186157,-8.9991950989,65.0991058350,-0.0172604322,-0.0292587280,0.0209427476,-20.2151908875,85.6307601929,-155.8970489502,0.0205312967,0.0239106119,0.0195350647,44.5229949951,39.0527420044,-150.1267547607,0.0641175508,-0.0182555914,-0.0122615099,
313.253,-3.2887752056,1.3769371510,34.8499374390,0.0547914915,0.0397737809,0.0024253130,-101.1734085083,-8.9921360016,65.1144256592,-0.0181153119,-0.0346305370,0.0142101496,-20.1042098999,85.6330871582,-155.7712402344,0.0224875212,0.0271701217,0.0209877491,44.5192375183,39.0562553406,-150.1222381592,0.0607472062,-0.0167273283,0.0009139776,
313.263,-3.2863900661,1.3795746565,34.8516616821,0.0553257912,0.0485212281,0.0082827806,-101.1856384277,-8.9861621857,65.1311264038,-0.0209420323,-0.0444211960,0.0056314021,-20.0892658234,85.6380310059,-155.7411193848,0.0151698589,0.0222393274,0.0220355392,44.5148544312,39.0483779907,-150.1184387207,0.0757771134,-0.0030738711,-0.0065137744,
313.273,-3.2881650925,1.3793499470,34.8528175354,0.0611812472,0.0446459055,0.0151206851,-101.1952362061,-8.9794654846,65.1462631226,-0.0174086094,-0.0478531122,0.0048203766,-20.0966701508,85.6364974976,-155.7340087891,0.0254217386,0.0237225592,0.0264095068,44.5114784241,39.0478134155,-150.1112060547,0.0674687624,-0.0225767493,-0.0045970082,
313.283,-3.2891032696,1.3798528910,34.8551139832,0.0631431490,0.0431973934,0.0141451359,-101.1935272217,-8.9742774963,65.1612472534,-0.0226902664,-0.0356266499,0.0213960558,-20.1207218170,85.6356048584,-155.7470092773,0.0195611715,0.0213176906,0.0190819502,44.5100517273,39.0460205078,-150.1060180664,0.0684210062,-0.0216001272,-0.0046246648,
313.293,-3.2888803482,1.3795859814,34.8562240601,0.0631384924,0.0431935228,0.0058439970,-101.1903457642,-8.9727649689,65.1730957031,-0.0197345018,-0.0429362059,0.0057179779,-20.0918502808,85.6311187744,-155.7092590332,0.0224848986,0.0261884630,0.0321825147,44.5116386414,39.0455970764,-150.0977325439,0.0654855967,-0.0118531585,-0.0158435106,
313.303,-3.2876305580,1.3794060946,34.8567771912,0.0606939457,0.0446365997,0.0092607737,-101.1803131104,-8.9769592285,65.1824722290,-0.0149239898,-0.0390076637,0.0099405348,-20.0600051880,85.6317901611,-155.6679229736,0.0239506364,0.0285849273,0.0209470987,44.5067291260,39.0477981567,-150.0949096680,0.0611208677,-0.0205778480,-0.0026893616,
313.313,-3.2868218422,1.3785634041,34.8578872681,0.0631206483,0.0387631506,0.0087713003,-101.1708450317,-8.9833402634,65.1890945435,-0.0233347714,-0.0331336856,0.0073356032,-20.0213699341,85.6294174194,-155.6203155518,0.0234591961,0.0226888359,0.0223571658,44.5063858032,39.0479354858,-150.0882873535,0.0713766813,-0.0142257214,-0.0056209564,
313.323,-3.2858281136,1.3796855211,34.8595771790,0.0606988221,0.0436286256,0.0102356672,-101.1662826538,-8.9932451248,65.1957855225,-0.0195992887,-0.0331449509,0.0028586835,-19.9389514923,85.6259689331,-155.5296783447,0.0175952315,0.0240662992,0.0261704922,44.5064048767,39.0512504578,-150.0842590332,0.0616559386,-0.0151770115,-0.0075480938,
313.333,-3.2883973122,1.3787162304,34.8613319397,0.0611701906,0.0378140323,-0.0014808774,-101.1640472412,-9.0069780350,65.2008590698,-0.0159297585,-0.0331742764,0.0091612190,-19.9251842499,85.6263656616,-155.5097961426,0.0224785805,0.0186750591,0.0198225379,44.5087547302,39.0517120361,-150.0788574219,0.0684981346,-0.0132429600,-0.0070338249,
313.343,-3.2855873108,1.3796494007,34.8624153137,0.0611864738,0.0436244346,0.0087705255,-101.1626129150,-9.0232868195,65.2036132813,-0.0215819776,-0.0346779823,0.0091281384,-19.9094371796,85.6274032593,-155.4892425537,0.0229682326,0.0215787590,0.0222716928,44.5110931396,39.0540161133,-150.0727386475,0.0607168674,-0.0142244101,-0.0089465976,
313.353,-3.2837107182,1.3809802532,34.8665924072,0.0582800098,0.0465214029,0.0092574954,-101.1576538086,-9.0404567719,65.2062988281,-0.0179716945,-0.0386138558,0.0100118071,-19.8943424225,85.6268615723,-155.4688110352,0.0205261111,0.0240038335,0.0251851678,44.5151824951,39.0529327393,-150.0664367676,0.0621670485,-0.0118309259,0.0023142099,
313.363,-3.2845692635,1.3805166483,34.8683853149,0.0597367585,0.0436066799,0.0077934265,-101.1504592896,-9.0581216812,65.2073745728,-0.0236472487,-0.0415672064,0.0123222172,-19.9075889587,85.6253814697,-155.4797821045,0.0224772692,0.0254940987,0.0310280919,44.5189933777,39.0527801514,-150.0598754883,0.0611883998,-0.0138221383,-0.0044871569,
313.373,-3.2853593826,1.3821970224,34.8712844849,0.0587895177,0.0416672751,0.0043766499,-101.1461791992,-9.0777158737,65.2095718384,-0.0239849687,-0.0318402052,0.0107743740,-19.9531154633,85.6251144409,-155.5222320557,0.0219886303,0.0250661671,0.0222572088,44.5241966248,39.0495491028,-150.0527801514,0.0630977154,-0.0090144277,-0.0025091171,
313.383,-3.2845518589,1.3825311661,34.8730468750,0.0592836291,0.0450711697,0.0136536360,-101.1498031616,-9.0979795456,65.2121887207,-0.0262873173,-0.0280007124,0.0074069798,-20.0132656097,85.6251983643,-155.5781555176,0.0185707808,0.0261206031,0.0247277617,44.5292320251,39.0486450195,-150.0436401367,0.0660151243,-0.0144413710,-0.0137000084,
313.393,-3.2830431461,1.3832921982,34.8735351563,0.0617383160,0.0455331542,0.0107227564,-101.1624069214,-9.1208381653,65.2121963501,-0.0271695256,-0.0324991941,0.0080962032,-20.0596199036,85.6243972778,-155.6196289063,0.0298001766,0.0247204006,0.0232726932,44.5308685303,39.0437049866,-150.0364685059,0.0688778758,-0.0076591372,-0.0015152693,
313.403,-3.2818944454,1.3858000040,34.8740425110,0.0534812883,0.0420951135,0.0116987228,-101.1768798828,-9.1430788040,65.2114028931,-0.0280410647,-0.0296783447,0.0102822334,-20.1179103851,85.6234970093,-155.6712799072,0.0214982033,0.0282193422,0.0257271528,44.5341644287,39.0425453186,-150.0279846191,0.0644676089,-0.0140476227,-0.0127241611,
313.413,-3.2809665203,1.3883662224,34.8750686646,0.0574323162,0.0435437299,0.0033988953,-101.1902160645,-9.1647958755,65.2087097168,-0.0225558877,-0.0278288126,0.0158671141,-20.1556949615,85.6275329590,-155.7011413574,0.0239449739,0.0267805159,0.0165304542,44.5318069458,39.0415000916,-150.0235290527,0.0693362355,-0.0145210624,-0.0059176683,
313.423,-3.2801251411,1.3895572424,34.8774185181,0.0584296621,0.0430407599,0.0102338791,-101.2015991211,-9.1867780685,65.2042160034,-0.0219580829,-0.0342744589,0.0140945762,-20.1590747833,85.6271286011,-155.6978759766,0.0219913125,0.0219044089,0.0228734612,44.5316238403,39.0395469666,-150.0158081055,0.0707746148,-0.0155111551,-0.0034945607,
313.433,-3.2806456089,1.3885728121,34.8762092590,0.0589007623,0.0450029820,0.0107226372,-101.2078399658,-9.2060127258,65.1985397339,-0.0257074535,-0.0363010168,0.0049122125,-20.1667671204,85.6305313110,-155.7000885010,0.0249255300,0.0248242915,0.0165833831,44.5326728821,39.0402412415,-150.0100860596,0.0678544044,-0.0160040855,-0.0083611012,
313.443,-3.2805757523,1.3884758949,34.8754806519,0.0623170435,0.0406072326,0.0097458363,-101.2039413452,-9.2238731384,65.1895523071,-0.0211323202,-0.0402433872,0.0102079660,-20.1564464569,85.6297683716,-155.6856231689,0.0205299854,0.0223732889,0.0248691440,44.5321693420,39.0427780151,-150.0056915283,0.0654473901,-0.0179327726,-0.0093232393,
313.453,-3.2818295956,1.3879889250,34.8760032654,0.0618202649,0.0401408076,0.0107229948,-101.1926116943,-9.2407617569,65.1777648926,-0.0228881240,-0.0343925357,0.0144017935,-20.1582088470,85.6309890747,-155.6824951172,0.0210198760,0.0213929713,0.0185384750,44.5311431885,39.0425910950,-150.0001220703,0.0678862333,-0.0130413175,-0.0044506192,
313.463,-3.2835958004,1.3858839273,34.8778152466,0.0632483810,0.0426130258,0.0053535700,-101.1793670654,-9.2554645538,65.1659469604,-0.0280241966,-0.0382949114,0.0117283165,-20.1462478638,85.6318359375,-155.6650695801,0.0185796022,0.0228367746,0.0161068439,44.5342712402,39.0447845459,-149.9931640625,0.0610800385,-0.0081720948,-0.0078228712,
313.473,-3.2833867073,1.3834272623,34.8802261353,0.0666234866,0.0430977270,0.0024220347,-101.1674346924,-9.2688045502,65.1530609131,-0.0248360336,-0.0368270278,0.0110310763,-20.1307582855,85.6339416504,-155.6419372559,0.0176058412,0.0296413600,0.0200361013,44.5345993042,39.0459899902,-149.9886474609,0.0562135577,-0.0140252113,0.0009796023,
313.483,-3.2834305763,1.3827760220,34.8807411194,0.0622175895,0.0401688218,0.0058400631,-101.1607208252,-9.2848882675,65.1384201050,-0.0231599510,-0.0353841782,0.0045610666,-20.0984935760,85.6333618164,-155.6013793945,0.0219995975,0.0271607637,0.0244085193,44.5407180786,39.0415420532,-149.9791259766,0.0717782974,-0.0053296089,-0.0097392201,
313.493,-3.2836389542,1.3819168806,34.8818778992,0.0631791651,0.0416373163,0.0087695718,-101.1553726196,-9.2995405197,65.1203079224,-0.0263420045,-0.0344304442,0.0088574588,-20.1320343018,85.6342544556,-155.6221923828,0.0254187584,0.0276874006,0.0205320120,44.5515174866,39.0431900024,-149.9658355713,0.0581287146,-0.0078628063,-0.0149953961,
313.503,-3.2853164673,1.3829230070,34.8829269409,0.0607553124,0.0387368277,0.0038888454,-101.1526260376,-9.3131771088,65.1017227173,-0.0280417204,-0.0349472761,0.0034323931,-20.1726856232,85.6337203979,-155.6493682861,0.0229766369,0.0223720968,0.0224958658,44.5563888550,39.0381813049,-149.9542388916,0.0683147311,-0.0103898048,-0.0105933547,
313.513,-3.2855658531,1.3862229586,34.8827743530,0.0525121056,0.0416707732,0.0038905144,-101.1460494995,-9.3287563324,65.0810317993,-0.0209858418,-0.0295974612,0.0081955343,-20.1996135712,85.6330871582,-155.6642303467,0.0210226774,0.0253407061,0.0327513814,44.5565528870,39.0337791443,-149.9448547363,0.0658136010,-0.0133549571,-0.0008605123,
313.523,-3.2848105431,1.3865176439,34.8838653564,0.0632594377,0.0450755730,0.0043780804,-101.1419525146,-9.3394670486,65.0601501465,-0.0289827883,-0.0344964862,0.0003080964,-20.2362365723,85.6342086792,-155.6903839111,0.0239538550,0.0204980075,0.0210702419,44.5548858643,39.0303955078,-149.9372406006,0.0672326088,-0.0172712207,-0.0043208599,
313.533,-3.2841737270,1.3881146908,34.8861732483,0.0588927716,0.0445761681,0.0024249554,-101.1368331909,-9.3565940857,65.0398635864,-0.0234183669,-0.0350151062,-0.0046710521,-20.2447299957,85.6358718872,-155.6872711182,0.0239560604,0.0200112462,0.0206116438,44.5513801575,39.0302772522,-149.9306182861,0.0647895932,-0.0172382593,-0.0116794109,
313.543,-3.2823867798,1.3889194727,34.8866233826,0.0637896284,0.0464981459,0.0121893287,-101.1273269653,-9.3718156815,65.0190963745,-0.0275867283,-0.0237956643,0.0019960105,-20.2304821014,85.6357803345,-155.6656799316,0.0224910975,0.0185285807,0.0215796828,44.5484237671,39.0308609009,-149.9254455566,0.0779811144,-0.0167169571,-0.0126796365,
313.553,-3.2825331688,1.3911275864,34.8865051270,0.0545508116,0.0396647081,0.0165845752,-101.1129226685,-9.3891649246,64.9990921021,-0.0269089341,-0.0335618854,0.0207860619,-20.1283130646,85.6324615479,-155.5560607910,0.0288343430,0.0247632563,0.0307558179,44.5450553894,39.0343284607,-149.9212036133,0.0702155828,-0.0132396817,-0.0102427602,
313.563,-3.2829189301,1.3923250437,34.8881874084,0.0604310781,0.0430893637,0.0102378726,-101.1040420532,-9.4033670425,64.9835739136,-0.0305714309,-0.0340603590,0.0098859072,-20.0363216400,85.6301345825,-155.4583587646,0.0205304623,0.0270986855,0.0272580981,44.5377502441,39.0403213501,-149.9189910889,0.0600429177,-0.0160525441,-0.0044059753,
313.573,-3.2840976715,1.3904958963,34.8905906677,0.0623522922,0.0382271260,0.0038906336,-101.0985107422,-9.4142818451,64.9668807983,-0.0253883004,-0.0326076746,0.0151573569,-19.9937934875,85.6289215088,-155.4081573486,0.0166226029,0.0246089697,0.0281956792,44.5368385315,39.0461540222,-149.9136352539,0.0576806068,-0.0106276870,-0.0107165575,
313.583,-3.2846057415,1.3920785189,34.8935279846,0.0570088103,0.0426304676,0.0048686266,-101.0964965820,-9.4230957031,64.9494094849,-0.0260283351,-0.0379968882,0.0097475648,-19.9963321686,85.6274414063,-155.4024200439,0.0112495422,0.0275508463,0.0320784450,44.5358619690,39.0472717285,-149.9074096680,0.0572074652,-0.0159806609,-0.0048578382,
313.593,-3.2845726013,1.3912918568,34.8934860229,0.0604130477,0.0426299199,0.0053564906,-101.0937042236,-9.4280090332,64.9306945801,-0.0222066939,-0.0428842306,0.0155571252,-20.0494384766,85.6272201538,-155.4450225830,0.0156437755,0.0207852721,0.0208691359,44.5377540588,39.0455360413,-149.8979797363,0.0596253872,-0.0145475268,-0.0087596178,
313.603,-3.2825219631,1.3904854059,34.8934478760,0.0628403872,0.0474770293,0.0112136602,-101.0947341919,-9.4252948761,64.9115371704,-0.0260661840,-0.0379972458,-0.0024904460,-20.1503486633,85.6295928955,-155.5390319824,0.0190649033,0.0233432651,0.0219328403,44.5420989990,39.0420188904,-149.8892822266,0.0595777035,-0.0131517649,-0.0063045025,
313.613,-3.2815425396,1.3921725750,34.8951759338,0.0584752932,0.0479482077,0.0029124618,-101.0940628052,-9.4265232086,64.8932647705,-0.0231576562,-0.0326275826,0.0053103268,-20.2340946198,85.6275329590,-155.6158905029,0.0254098177,0.0205340981,0.0243816376,44.5485267639,39.0358352661,-149.8799133301,0.0658414960,-0.0137498975,-0.0170341134,
313.623,-3.2839441299,1.3916938305,34.8949890137,0.0657911599,0.0362713039,0.0063325167,-101.0934143066,-9.4247703552,64.8765487671,-0.0294751227,-0.0243194103,0.0077413321,-20.3160762787,85.6275787354,-155.6927642822,0.0219919086,0.0186871290,0.0224678516,44.5480766296,39.0338058472,-149.8738555908,0.0692319870,-0.0254798532,-0.0038705468,
313.633,-3.2835981846,1.3918102980,34.8961143494,0.0618869402,0.0435894877,0.0082849264,-101.0924758911,-9.4280662537,64.8632431030,-0.0266022086,-0.0257905722,0.0194426775,-20.3523197174,85.6268615723,-155.7252349854,0.0273620486,0.0187383592,0.0200322866,44.5478019714,39.0334472656,-149.8708648682,0.0692270994,-0.0210856199,-0.0009467602,
313.643,-3.2840676308,1.3906205893,34.8973350525,0.0579599366,0.0406680107,0.0107270479,-101.0956039429,-9.4288301468,64.8537750244,-0.0344278514,-0.0321505070,0.0170532316,-20.3287353516,85.6237258911,-155.6998748779,0.0307758451,0.0182376802,0.0282726884,44.5452041626,39.0383453369,-149.8705444336,0.0692934990,-0.0195577145,-0.0067917705,
313.653,-3.2805242538,1.3907817602,34.8998413086,0.0555213392,0.0503719114,0.0073047876,-101.1009902954,-9.4335508347,64.8484649658,-0.0242552161,-0.0307170153,0.0137240887,-20.2449703217,85.6220703125,-155.6157226563,0.0239377022,0.0181385577,0.0257654190,44.5467910767,39.0453910828,-149.8690338135,0.0664593577,-0.0117064714,-0.0155116916,
313.663,-3.2798070908,1.3922833204,34.9009246826,0.0570123829,0.0405937582,0.0077936053,-101.1028976440,-9.4381256104,64.8445281982,-0.0316581726,-0.0390367508,0.0191247016,-20.1220741272,85.6213531494,-155.4932708740,0.0214953423,0.0267726183,0.0227646828,44.5461387634,39.0531311035,-149.8678131104,0.0626579523,-0.0150582790,-0.0105735064,
313.673,-3.2792940140,1.3931565285,34.9020729065,0.0570276156,0.0420496315,0.0063284636,-101.1003417969,-9.4408397675,64.8419876099,-0.0321932137,-0.0439189672,0.0220100433,-20.0035266876,85.6197052002,-155.3753204346,0.0214931369,0.0310223997,0.0290307999,44.5467147827,39.0592651367,-149.8645782471,0.0642060041,-0.0106220841,-0.0017314553,
313.683,-3.2788627148,1.3952404261,34.9019088745,0.0590170994,0.0439951941,0.0077937245,-101.0941314697,-9.4396543503,64.8381118774,-0.0380321741,-0.0458479524,0.0140928328,-19.9226360321,85.6180877686,-155.2887878418,0.0175847411,0.0294608772,0.0323873758,44.5531349182,39.0611610413,-149.8572998047,0.0617902279,-0.0004154444,-0.0080022812,
313.693,-3.2783834934,1.3949129581,34.9030723572,0.0614527948,0.0439868569,0.0126760006,-101.0844345093,-9.4374113083,64.8352203369,-0.0370169878,-0.0428799391,0.0144186020,-19.8810462952,85.6192474365,-155.2402801514,0.0214925408,0.0289121866,0.0309200287,44.5552902222,39.0636444092,-149.8489074707,0.0623122454,-0.0126243234,-0.0045456290,
313.703,-3.2797973156,1.3974115849,34.9034309387,0.0595432669,0.0376637727,-0.0005050898,-101.0732803345,-9.4361524582,64.8330459595,-0.0326007903,-0.0447927713,0.0244848281,-19.8959712982,85.6202850342,-155.2431030273,0.0234470367,0.0240430534,0.0241068602,44.5566253662,39.0606842041,-149.8394622803,0.0637369156,-0.0136364698,-0.0045551062,
313.713,-3.2787761688,1.3981771469,34.9057846069,0.0595566258,0.0459467396,-0.0005057454,-101.0690917969,-9.4346599579,64.8358917236,-0.0325751007,-0.0428214669,0.0112309158,-19.9244976044,85.6182250977,-155.2588958740,0.0195380449,0.0236034393,0.0348306894,44.5593872070,39.0560531616,-149.8263244629,0.0617210269,-0.0107693672,-0.0104257464,
313.723,-3.2751364708,1.3977321386,34.9070663452,0.0575957373,0.0507661626,0.0136504769,-101.0683441162,-9.4330644608,64.8429946899,-0.0291296542,-0.0320725441,0.0097547323,-19.9784622192,85.6188049316,-155.3000183105,0.0234450698,0.0241589248,0.0241222382,44.5596809387,39.0525817871,-149.8167419434,0.0685098767,-0.0190996528,-0.0143555403,
313.733,-3.2739393711,1.3968276978,34.9082946777,0.0590448007,0.0443976782,0.0087661147,-101.0710830688,-9.4296903610,64.8503112793,-0.0271184444,-0.0271890163,0.0093141943,-20.0449371338,85.6182708740,-155.3535919189,0.0312568545,0.0198539793,0.0275629759,44.5570983887,39.0488319397,-149.8106994629,0.0660176277,-0.0161739588,-0.0036672354,
313.743,-3.2747249603,1.3967744112,34.9094200134,0.0624618381,0.0439230874,0.0077903271,-101.0735855103,-9.4245567322,64.8590164185,-0.0280066133,-0.0266947746,0.0132657290,-20.0826034546,85.6183166504,-155.3783569336,0.0234444141,0.0194145739,0.0251396298,44.5592346191,39.0464210510,-149.8017578125,0.0669615269,-0.0103538036,-0.0114782453,
313.753,-3.2738435268,1.3957684040,34.9112014771,0.0639091283,0.0453725979,0.0112069249,-101.0743179321,-9.4183025360,64.8695983887,-0.0264340937,-0.0418164730,0.0069340467,-20.0649433136,85.6179580688,-155.3516540527,0.0258853436,0.0218344033,0.0241512656,44.5534515381,39.0444259644,-149.7976226807,0.0752353072,-0.0171492100,-0.0037363172,
313.763,-3.2751021385,1.3943467140,34.9129371643,0.0653491616,0.0400234647,0.0107193589,-101.0711212158,-9.4116144180,64.8808517456,-0.0336431563,-0.0295801163,0.0127429217,-20.0402183533,85.6165237427,-155.3172912598,0.0258834362,0.0203457475,0.0265580416,44.5474014282,39.0465431213,-149.7929077148,0.0698929429,-0.0195157528,-0.0096366405,
313.773,-3.2767972946,1.3949849606,34.9146385193,0.0624306127,0.0449357890,0.0112097263,-101.0649337769,-9.4086694717,64.8926925659,-0.0301744640,-0.0358990431,0.0116634220,-19.9854545593,85.6177749634,-155.2529602051,0.0249085426,0.0246622264,0.0192262530,44.5431900024,39.0486145020,-149.7878417969,0.0665030479,-0.0150645971,-0.0038012266,
313.783,-3.2751259804,1.3953766823,34.9139289856,0.0604843237,0.0419769771,0.0063249469,-101.0572052002,-9.4002847672,64.9055862427,-0.0368660092,-0.0431742072,0.0144670010,-19.9362449646,85.6169738770,-155.1936035156,0.0214895010,0.0211848617,0.0294442177,44.5383224487,39.0535926819,-149.7820129395,0.0660822392,-0.0169323683,-0.0135741234,
313.793,-3.2721269131,1.3943351507,34.9145011902,0.0614427105,0.0443661623,0.0058339834,-101.0505905151,-9.3916454315,64.9198226929,-0.0357407033,-0.0343391895,0.0104536414,-19.8794250488,85.6198806763,-155.1254730225,0.0190519691,0.0254887938,0.0231158137,44.5311660767,39.0568237305,-149.7784729004,0.0636845827,-0.0212327838,0.0020081401,
313.803,-3.2700746059,1.3916785717,34.9151039124,0.0672557354,0.0453070402,0.0097364783,-101.0465087891,-9.3815059662,64.9331588745,-0.0267770588,-0.0289264917,0.0128318071,-19.8243637085,85.6170654297,-155.0572814941,0.0253958702,0.0234791934,0.0313489437,44.5299491882,39.0600585938,-149.7697601318,0.0622636080,-0.0114304423,-0.0116498470,
313.813,-3.2720677853,1.3921597004,34.9162178040,0.0584750697,0.0375292525,0.0087623596,-101.0444793701,-9.3681573868,64.9444122314,-0.0314299762,-0.0244877338,0.0093863457,-19.7552967072,85.6150512695,-154.9739227295,0.0268580317,0.0258429050,0.0268875360,44.5226669312,39.0615921021,-149.7659149170,0.0637492537,-0.0172076225,0.0044062138,
313.823,-3.2706460953,1.3927351236,34.9185829163,0.0604382381,0.0472700968,0.0058313608,-101.0462265015,-9.3532285690,64.9556121826,-0.0277549326,-0.0273818374,0.0128424317,-19.6601924896,85.6153640747,-154.8640289307,0.0244170427,0.0291350484,0.0239186287,44.5203094482,39.0622367859,-149.7596893311,0.0735235810,-0.0127853155,-0.0083063841,
313.833,-3.2696964741,1.3922380209,34.9215698242,0.0623826869,0.0433473140,0.0116895437,-101.0532073975,-9.3400859833,64.9676666260,-0.0206926763,-0.0283446312,0.0075960457,-19.5905380249,85.6140289307,-154.7828674316,0.0200207233,0.0158674419,0.0243555903,44.5144805908,39.0675849915,-149.7559051514,0.0638304353,-0.0156174898,-0.0068549514,
313.843,-3.2688689232,1.3913230896,34.9221191406,0.0633432865,0.0452860482,0.0112003088,-101.0587997437,-9.3270273209,64.9786148071,-0.0224208832,-0.0351629257,0.0062330663,-19.5016975403,85.6144714355,-154.6864471436,0.0268572569,0.0255162418,0.0208979249,44.5099487305,39.0728416443,-149.7523498535,0.0580422878,-0.0140683055,-0.0102748275,
313.853,-3.2677760124,1.3914849758,34.9244537354,0.0618812665,0.0418490358,0.0058277249,-101.0639801025,-9.3143510818,64.9890060425,-0.0212259889,-0.0366097689,0.0048627257,-19.4576683044,85.6146469116,-154.6346435547,0.0170918703,0.0205737650,0.0252789855,44.5082969666,39.0791244507,-149.7471008301,0.0576391220,-0.0091211200,-0.0087764859,
313.863,-3.2670471668,1.3899651766,34.9257011414,0.0589250587,0.0428129397,0.0048503876,-101.0616989136,-9.2985668182,64.9982528687,-0.0258369446,-0.0409528017,0.0219221860,-19.4245834351,85.6132659912,-154.5962066650,0.0219728351,0.0215147734,0.0228006840,44.5125923157,39.0813217163,-149.7394104004,0.0698759556,-0.0110988021,-0.0116480589,
313.873,-3.2692558765,1.3898915052,34.9268379211,0.0603886172,0.0389451683,0.0077816844,-101.0627288818,-9.2826480865,65.0097122192,-0.0275159180,-0.0379827619,0.0024174005,-19.4090862274,85.6121444702,-154.5758972168,0.0205065012,0.0234535336,0.0203354359,44.5138854980,39.0840263367,-149.7335357666,0.0596586466,-0.0154849291,-0.0121028423,
313.883,-3.2696399689,1.3917391300,34.9296951294,0.0604208559,0.0409049354,0.0068066120,-101.0645599365,-9.2664766312,65.0195312500,-0.0306553245,-0.0301315784,0.0000155717,-19.4076366425,85.6110763550,-154.5678253174,0.0209933519,0.0244344771,0.0256881118,44.5161705017,39.0859107971,-149.7271575928,0.0596842170,-0.0174456239,-0.0071834326,
313.893,-3.2693345547,1.3942712545,34.9307289124,0.0575353503,0.0413878337,0.0029011965,-101.0612182617,-9.2487945557,65.0250625610,-0.0352335274,-0.0422788858,0.0097341239,-19.3629493713,85.6089401245,-154.5181884766,0.0205022097,0.0341532230,0.0324706435,44.5199279785,39.0879478455,-149.7183685303,0.0567821264,-0.0116068125,-0.0120144486,
313.903,-3.2670004368,1.3937259912,34.9319496155,0.0599672422,0.0462300032,0.0097340345,-101.0544815063,-9.2318801880,65.0280761719,-0.0344538689,-0.0402569771,0.0120706707,-19.3590717316,85.6075134277,-154.5035247803,0.0234299898,0.0258552432,0.0290284157,44.5179023743,39.0849761963,-149.7123413086,0.0626012087,-0.0125868320,-0.0032685995,
313.913,-3.2670624256,1.3933291435,34.9319038391,0.0589837544,0.0423248447,0.0033870935,-101.0522842407,-9.2177877426,65.0305938721,-0.0322579741,-0.0338634253,0.0052052438,-19.3778972626,85.6044769287,-154.5113677979,0.0244024992,0.0224787295,0.0255713463,44.5179214478,39.0846061707,-149.7046813965,0.0635727644,-0.0121013522,-0.0091298223,
313.923,-3.2646377087,1.3915526867,34.9337806702,0.0599293187,0.0422826447,0.0043595433,-101.0487976074,-9.2067813873,65.0299758911,-0.0276738107,-0.0347984433,0.0124765188,-19.3825187683,85.6043014526,-154.5062408447,0.0209842920,0.0205326974,0.0245940089,44.5145874023,39.0849075317,-149.6994934082,0.0723658800,-0.0198795199,-0.0096485615,
313.933,-3.2648997307,1.3932554722,34.9348068237,0.0609355941,0.0413106084,0.0175449252,-101.0449066162,-9.1989984512,65.0313644409,-0.0260748863,-0.0332992077,0.0221800655,-19.3357505798,85.6014938354,-154.4492187500,0.0239102244,0.0185338259,0.0245281458,44.5097160339,39.0869483948,-149.6958160400,0.0655575991,-0.0183517933,-0.0087013245,
313.943,-3.2635760307,1.3929226398,34.9371452332,0.0633711964,0.0427524000,-0.0005234480,-101.0479660034,-9.1959266663,65.0383682251,-0.0279750824,-0.0318362713,0.0046557188,-19.3045520782,85.6018447876,-154.4095001221,0.0258638263,0.0175144672,0.0171951652,44.5051193237,39.0867576599,-149.6938476563,0.0719026923,-0.0139144659,-0.0009345412,
313.953,-3.2655401230,1.3945465088,34.9375381470,0.0629112422,0.0398568846,0.0082684755,-101.0515365601,-9.1938228607,65.0452804565,-0.0264739990,-0.0342835188,0.0091114938,-19.2526950836,85.5986022949,-154.3499145508,0.0253711939,0.0208821595,0.0342105627,44.5057754517,39.0892677307,-149.6878662109,0.0699835420,-0.0109715462,-0.0145797729,
313.963,-3.2646255493,1.3943011761,34.9386749268,0.0609538406,0.0413058028,0.0068026781,-101.0542907715,-9.1926794052,65.0522994995,-0.0279191136,-0.0474730730,0.0120883584,-19.1785240173,85.5965042114,-154.2699890137,0.0234152675,0.0251911581,0.0287715197,44.5073890686,39.0938148499,-149.6811676025,0.0676037669,-0.0138819814,-0.0091587305,
313.973,-3.2625768185,1.3945372105,34.9404563904,0.0594931133,0.0451763645,0.0097305775,-101.0552368164,-9.1964807510,65.0581436157,-0.0255432129,-0.0386975408,0.0150322318,-19.1657142639,85.5972213745,-154.2480468750,0.0180451274,0.0217518508,0.0190133452,44.5083999634,39.0968017578,-149.6761932373,0.0656911135,-0.0182630420,-0.0096129775,
313.983,-3.2601811886,1.3948229551,34.9422302246,0.0614512265,0.0485525951,0.0092399716,-101.0534133911,-9.1977882385,65.0623168945,-0.0284954309,-0.0421130657,0.0169535875,-19.1409454346,85.5986938477,-154.2149047852,0.0243947506,0.0231766701,0.0219530463,44.5073318481,39.0975837708,-149.6715393066,0.0613071918,-0.0162936449,0.0006362796,
313.993,-3.2617065907,1.3957698345,34.9427566528,0.0565849319,0.0393017940,0.0043587685,-101.0515365601,-9.1969356537,65.0679473877,-0.0362932384,-0.0342919827,0.0125278383,-19.1368465424,85.5981979370,-154.2030487061,0.0234175324,0.0261038244,0.0238960385,44.5089111328,39.0956001282,-149.6641540527,0.0622568727,-0.0119296312,-0.0008287430,
314.003,-3.2623038292,1.3943717480,34.9452247620,0.0590019450,0.0422419235,0.0126596689,-101.0479431152,-9.1988525391,65.0742950439,-0.0280254781,-0.0347738266,0.0124662071,-19.1471920013,85.5992279053,-154.2073516846,0.0200009346,0.0256236792,0.0180570483,44.5124015808,39.0953483582,-149.6559143066,0.0612769127,-0.0085473657,-0.0056803823,
314.013,-3.2609243393,1.3954296112,34.9462623596,0.0629266500,0.0407530256,0.0097290277,-101.0480880737,-9.2021684647,65.0808410645,-0.0305240154,-0.0455253124,0.0036774129,-19.2010612488,85.5976181030,-154.2562408447,0.0219519138,0.0198431909,0.0278239846,44.5161895752,39.0951118469,-149.6471405029,0.0651799440,-0.0173748136,-0.0144352913,
314.023,-3.2625389099,1.3954627514,34.9460868835,0.0643920749,0.0388280265,0.0165666938,-101.0453872681,-9.2029981613,65.0893325806,-0.0339562893,-0.0425891876,0.0090027601,-19.2398662567,85.5964660645,-154.2900543213,0.0204855204,0.0199003816,0.0219644308,44.5187110901,39.0917091370,-149.6412048340,0.0724580288,-0.0071716309,-0.0071145296,
314.033,-3.2622458935,1.3929748535,34.9473419189,0.0623955429,0.0412643813,0.0072879791,-101.0449447632,-9.2091951370,65.0997009277,-0.0306450725,-0.0299096107,0.0153398961,-19.2683620453,85.5982513428,-154.3147277832,0.0287886858,0.0169988871,0.0195623040,44.5170555115,39.0939369202,-149.6352691650,0.0636991858,-0.0139741898,-0.0075999498,
314.043,-3.2638595104,1.3950327635,34.9501914978,0.0595017597,0.0388510339,0.0014311671,-101.0461120605,-9.2177972794,65.1121063232,-0.0337229669,-0.0328664780,0.0124249607,-19.2247371674,85.5981521606,-154.2670593262,0.0248823166,0.0232896507,0.0234475136,44.5157775879,39.0986633301,-149.6295623779,0.0627866387,-0.0163670182,-0.0090411305,
314.053,-3.2664191723,1.3942861557,34.9512939453,0.0629066974,0.0354776792,0.0121756792,-101.0487823486,-9.2302007675,65.1251373291,-0.0329601169,-0.0333975554,0.0139282644,-19.1858615875,85.5979309082,-154.2224273682,0.0234171748,0.0286108851,0.0258678794,44.5186691284,39.1013221741,-149.6226959229,0.0662406087,-0.0085617900,-0.0075269938,
314.063,-3.2675347328,1.3948098421,34.9542198181,0.0629158393,0.0447744429,0.0068057775,-101.0557556152,-9.2407579422,65.1409988403,-0.0326536596,-0.0373559594,0.0125758648,-19.1569080353,85.5975341797,-154.1876831055,0.0263463259,0.0300398767,0.0273133516,44.5168418884,39.1062431335,-149.6169891357,0.0541002154,-0.0124125481,-0.0016469359,
314.073,-3.2681057453,1.3930488825,34.9559631348,0.0663030818,0.0403898992,0.0048524737,-101.0665817261,-9.2507629395,65.1573944092,-0.0367322862,-0.0359544754,0.0034763664,-19.1306686401,85.6000747681,-154.1531524658,0.0151192546,0.0290147662,0.0234358311,44.5151062012,39.1075592041,-149.6115875244,0.0550945997,-0.0172681808,-0.0011638403,
314.083,-3.2704732418,1.3923823833,34.9571380615,0.0584789552,0.0360366292,0.0170615315,-101.0768356323,-9.2608203888,65.1741638184,-0.0290930271,-0.0389454365,0.0143860132,-19.1590595245,85.6018066406,-154.1725311279,0.0229340792,0.0246480703,0.0288469791,44.5189437866,39.1078033447,-149.6013641357,0.0580276251,-0.0114442706,-0.0104038715,
314.093,-3.2704722881,1.3940662146,34.9576110840,0.0585083365,0.0423842296,0.0112028718,-101.0865173340,-9.2647237778,65.1882934570,-0.0306251049,-0.0389884710,0.0057590306,-19.2457389832,85.6055526733,-154.2498626709,0.0200093985,0.0222998261,0.0177147388,44.5221290588,39.1048088074,-149.5918426514,0.0643347502,-0.0105213523,-0.0084431171,
314.103,-3.2698843479,1.3909207582,34.9588966370,0.0623597018,0.0423740596,0.0019236803,-101.0888671875,-9.2671422958,65.2013931274,-0.0301784873,-0.0370497704,0.0077504814,-19.3540019989,85.6083145142,-154.3474426270,0.0209896564,0.0160788596,0.0251316428,44.5213851929,39.1011924744,-149.5847015381,0.0662388206,-0.0100539923,-0.0040851235,
314.113,-3.2674059868,1.3903239965,34.9600753784,0.0623492897,0.0467254333,0.0111984015,-101.0851058960,-9.2692584991,65.2121353149,-0.0355860293,-0.0336252451,0.0091506690,-19.4189682007,85.6096496582,-154.4019165039,0.0214797258,0.0215274096,0.0227414966,44.5179672241,39.0975914001,-149.5780944824,0.0700963140,-0.0154197216,-0.0031683445,
314.123,-3.2685592175,1.3892000914,34.9606056213,0.0642828047,0.0403978899,0.0165700316,-101.0784378052,-9.2721290588,65.2183532715,-0.0312409401,-0.0360522270,0.0100124776,-19.4211196899,85.6080398560,-154.3938140869,0.0302666426,0.0239804685,0.0261353850,44.5187797546,39.0973167419,-149.5706787109,0.0696042776,-0.0154297948,-0.0143938661,
314.133,-3.2663807869,1.3875352144,34.9618110657,0.0637654737,0.0457310751,0.0063132644,-101.0672836304,-9.2781257629,65.2235183716,-0.0323207974,-0.0326141715,0.0195866823,-19.3972530365,85.6091156006,-154.3614959717,0.0283149481,0.0205256045,0.0246753693,44.5142517090,39.0989494324,-149.5648803711,0.0754858255,-0.0192795992,0.0002250671,
314.143,-3.2662019730,1.3869332075,34.9635543823,0.0622901246,0.0408451669,0.0058245063,-101.0655670166,-9.2838125229,65.2288055420,-0.0299773514,-0.0252999067,0.0000230670,-19.3289852142,85.6071548462,-154.2836761475,0.0234295130,0.0228874385,0.0231520534,44.5110359192,39.1031684875,-149.5585174561,0.0657773614,-0.0118918419,-0.0051441193,
314.153,-3.2670862675,1.3865370750,34.9646835327,0.0613066517,0.0393957384,0.0019190907,-101.0680694580,-9.2883729935,65.2322540283,-0.0285910666,-0.0248326659,0.0059226453,-19.2360553741,85.6056823730,-154.1807861328,0.0214744210,0.0252167583,0.0235694051,44.5059051514,39.1094894409,-149.5543670654,0.0643981099,-0.0220472813,-0.0090486407,
314.163,-3.2672402859,1.3848282099,34.9658317566,0.0661596507,0.0418398567,0.0087540150,-101.0730133057,-9.2936706543,65.2348632813,-0.0291706026,-0.0390235782,0.0006318837,-19.1946105957,85.6075134277,-154.1290130615,0.0161057711,0.0202683806,0.0201655030,44.5070724487,39.1138496399,-149.5484924316,0.0600626469,-0.0088415146,-0.0119340420,
314.173,-3.2674891949,1.3846793175,34.9682121277,0.0588328317,0.0413559228,0.0102198124,-101.0737686157,-9.2992258072,65.2356567383,-0.0243834853,-0.0429479480,0.0074779838,-19.1697235107,85.6059036255,-154.0974731445,0.0136622190,0.0173152089,0.0259873867,44.5053520203,39.1139564514,-149.5438079834,0.0664117336,-0.0151715875,0.0017231703,
314.183,-3.2697024345,1.3844729662,34.9687347412,0.0607823581,0.0389530808,0.0092447996,-101.0734710693,-9.3013954163,65.2332611084,-0.0273505151,-0.0453940630,-0.0022943020,-19.1777667999,85.6066665649,-154.0982666016,0.0170812011,0.0241576731,0.0216079354,44.5089149475,39.1137199402,-149.5348968506,0.0634788275,-0.0083720088,-0.0031283498,
314.193,-3.2701213360,1.3843052387,34.9693260193,0.0563848950,0.0409135036,0.0102220774,-101.0626144409,-9.3035287857,65.2285614014,-0.0283638239,-0.0502470732,0.0072869211,-19.1799564362,85.6082229614,-154.0921325684,0.0185481310,0.0309882164,0.0196793079,44.5091705322,39.1113395691,-149.5278930664,0.0634466410,-0.0127872229,-0.0026554465,
314.203,-3.2703285217,1.3853143454,34.9698104858,0.0607970357,0.0438467711,0.0087573528,-101.0512771606,-9.3068075180,65.2245178223,-0.0308617055,-0.0482656956,0.0007457137,-19.2184906006,85.6073760986,-154.1258697510,0.0209884048,0.0266483128,0.0270094872,44.5078201294,39.1089973450,-149.5216217041,0.0619500279,-0.0166986585,0.0007303357,
314.213,-3.2698326111,1.3875437975,34.9726028442,0.0632773414,0.0418849550,0.0043639541,-101.0388488770,-9.3117656708,65.2241439819,-0.0368064642,-0.0394493341,0.0176226795,-19.2705001831,85.6084899902,-154.1700592041,0.0180602074,0.0301284492,0.0207024813,44.5098114014,39.1070289612,-149.5113067627,0.0609467626,-0.0123383999,-0.0148902535,
314.223,-3.2693154812,1.3864216805,34.9737091064,0.0661874563,0.0399228521,0.0072922111,-101.0363540649,-9.3186693192,65.2263870239,-0.0330191255,-0.0355540514,0.0058581680,-19.3355865479,85.6073760986,-154.2252807617,0.0219649673,0.0228952169,0.0216923952,44.5080223083,39.1054573059,-149.5048065186,0.0628786683,-0.0167278647,-0.0071078539,
314.233,-3.2703399658,1.3859050274,34.9748764038,0.0598307773,0.0409172811,0.0087579489,-101.0419464111,-9.3285131454,65.2362899780,-0.0370949209,-0.0375528336,0.0074121654,-19.3553104401,85.6063995361,-154.2347717285,0.0244050622,0.0263445675,0.0275449753,44.5087966919,39.1048889160,-149.4960479736,0.0633592606,-0.0177162290,-0.0114990473,
314.243,-3.2680978775,1.3859876394,34.9766578674,0.0603205040,0.0457610302,0.0180330873,-101.0498123169,-9.3393983841,65.2476425171,-0.0343526900,-0.0385857821,0.0177933127,-19.3830204010,85.6075515747,-154.2546386719,0.0234300494,0.0258868933,0.0246437788,44.5041770935,39.1028480530,-149.4919738770,0.0662612915,-0.0118280649,0.0021123886,
314.253,-3.2666132450,1.3854844570,34.9767684937,0.0529875048,0.0476883017,0.0043594837,-101.0565719604,-9.3503398895,65.2593917847,-0.0272169113,-0.0381497145,0.0154596418,-19.3827991486,85.6082229614,-154.2478790283,0.0205012560,0.0283234417,0.0236807466,44.5039520264,39.1014175415,-149.4856109619,0.0662419200,-0.0142781734,-0.0037595034,
314.263,-3.2665188313,1.3846164942,34.9785728455,0.0612731427,0.0447569899,0.0111950636,-101.0596847534,-9.3604364395,65.2700653076,-0.0352032781,-0.0401417017,0.0164839774,-19.3659343719,85.6111679077,-154.2252349854,0.0283176899,0.0302395821,0.0207848549,44.5083770752,39.1018905640,-149.4767608643,0.0647834539,-0.0128525496,-0.0168980360,
314.273,-3.2666137218,1.3855999708,34.9790649414,0.0608020201,0.0442703441,0.0063122511,-101.0627288818,-9.3754615784,65.2783355713,-0.0256963968,-0.0416581631,0.0106673539,-19.3838577271,85.6107711792,-154.2358703613,0.0244109035,0.0248926878,0.0246978998,44.5110435486,39.0996131897,-149.4696960449,0.0647526383,-0.0109427571,-0.0076133013,
314.283,-3.2662553787,1.3847808838,34.9796867371,0.0588346049,0.0457289591,0.0151014328,-101.0637664795,-9.3853874207,65.2843856812,-0.0327032506,-0.0372951031,0.0038440228,-19.3538036346,85.6105041504,-154.1982116699,0.0253871083,0.0287613571,0.0295618773,44.5104904175,39.0971412659,-149.4639434814,0.0647191405,-0.0138861537,0.0001747608,
314.293,-3.2651467323,1.3835566044,34.9808769226,0.0646726191,0.0461979583,0.0141222477,-101.0605468750,-9.3969955444,65.2909164429,-0.0338796973,-0.0309687853,0.0164779574,-19.3443298340,85.6099624634,-154.1804046631,0.0239215493,0.0253349543,0.0271044374,44.5115127563,39.0958099365,-149.4564819336,0.0715370178,-0.0129297376,-0.0056851506,
314.303,-3.2658989429,1.3844492435,34.9825859070,0.0593170971,0.0418165028,0.0092413425,-101.0631942749,-9.4091520309,65.2965850830,-0.0331124663,-0.0261291265,0.0087042898,-19.3326339722,85.6097335815,-154.1597442627,0.0288040638,0.0267846882,0.0246576071,44.5149612427,39.0977706909,-149.4460906982,0.0632628202,-0.0124596357,-0.0158910751,
314.313,-3.2669558525,1.3827443123,34.9831886292,0.0617287531,0.0408583917,0.0087534189,-101.0657043457,-9.4195919037,65.3043899536,-0.0323156416,-0.0339789391,0.0092288107,-19.3616752625,85.6122360229,-154.1801757813,0.0200183392,0.0209499300,0.0164080858,44.5155105591,39.0967636108,-149.4378204346,0.0661788583,-0.0134492517,-0.0075929761,
314.323,-3.2689025402,1.3806797266,34.9849586487,0.0651106983,0.0399157964,0.0019185543,-101.0654296875,-9.4283857346,65.3105010986,-0.0319787860,-0.0388857722,0.0106846243,-19.4028682709,85.6118850708,-154.2127685547,0.0224592686,0.0190525353,0.0256989002,44.5145874023,39.0953636169,-149.4307708740,0.0700661540,-0.0158925653,-0.0095658898,
314.333,-3.2685699463,1.3825500011,34.9848403931,0.0553777069,0.0394216776,0.0043598413,-101.0608673096,-9.4343519211,65.3162384033,-0.0345228910,-0.0300980806,0.0232991129,-19.4268131256,85.6133575439,-154.2282409668,0.0244143605,0.0254232883,0.0276863575,44.5138511658,39.0968704224,-149.4246826172,0.0647155046,-0.0148972273,-0.0095610619,
314.343,-3.2697775364,1.3830044270,34.9865684509,0.0583153218,0.0404192619,-0.0024740100,-101.0581741333,-9.4423675537,65.3230209351,-0.0322194993,-0.0379244685,0.0066480041,-19.4361495972,85.6124191284,-154.2267303467,0.0224599838,0.0229992568,0.0306057334,44.5149307251,39.0976104736,-149.4178161621,0.0657020807,-0.0173434019,-0.0163809657,
314.353,-3.2687857151,1.3839899302,34.9883651733,0.0568676777,0.0457730517,0.0097314715,-101.0557861328,-9.4506511688,65.3294982910,-0.0357801020,-0.0394046903,0.0051380992,-19.4641933441,85.6131286621,-154.2437744141,0.0190429688,0.0220555067,0.0242816806,44.5151977539,39.0977172852,-149.4097290039,0.0671683550,-0.0124623179,-0.0056351423,
314.363,-3.2683246136,1.3819408417,34.9901351929,0.0651327074,0.0418588221,0.0038716793,-101.0499038696,-9.4583568573,65.3346786499,-0.0344479084,-0.0374538302,0.0152883977,-19.4180660248,85.6105422974,-154.1876220703,0.0229457617,0.0268923044,0.0300794840,44.5147514343,39.0979042053,-149.4026794434,0.0627763271,-0.0085503459,-0.0085678697,
314.373,-3.2703692913,1.3833016157,34.9911956787,0.0597853549,0.0394530036,0.0116863847,-101.0482940674,-9.4669237137,65.3409500122,-0.0311774313,-0.0335663557,0.0054907501,-19.4020519257,85.6107711792,-154.1589508057,0.0229460597,0.0249171555,0.0232393146,44.5135765076,39.0977897644,-149.3950805664,0.0705873370,-0.0129344463,-0.0066267252,
314.383,-3.2699060440,1.3833808899,34.9923362732,0.0597867370,0.0418863334,0.0058267117,-101.0478363037,-9.4772930145,65.3483047485,-0.0264731348,-0.0311526060,0.0113367140,-19.3772716522,85.6125488281,-154.1215515137,0.0175773501,0.0268278122,0.0237447619,44.5084457397,39.0970802307,-149.3884887695,0.0608120561,-0.0143551230,0.0011316538,
314.393,-3.2702393532,1.3812195063,34.9934463501,0.0675615221,0.0370093808,0.0043612719,-101.0500335693,-9.4840888977,65.3537216187,-0.0265901089,-0.0355736017,0.0108818263,-19.4223289490,85.6152267456,-154.1542663574,0.0175809264,0.0180827975,0.0189247131,44.5113067627,39.0938987732,-149.3784637451,0.0627220869,-0.0100128055,-0.0076552629,
314.403,-3.2700221539,1.3818776608,34.9927711487,0.0573191009,0.0433532372,0.0033847690,-101.0544357300,-9.4895601273,65.3591918945,-0.0281491578,-0.0424394608,0.0060703903,-19.4686107635,85.6139755249,-154.1883697510,0.0239269137,0.0240093470,0.0301576257,44.5113639832,39.0902137756,-149.3695373535,0.0607190728,-0.0193190575,-0.0042656660,
314.413,-3.2702250481,1.3827700615,34.9932479858,0.0612409264,0.0438450351,0.0097329617,-101.0570373535,-9.4915304184,65.3645629883,-0.0306244791,-0.0346410871,0.0095311850,-19.5495910645,85.6166152954,-154.2595825195,0.0185593367,0.0270301700,0.0238884687,44.5163726807,39.0853118896,-149.3589019775,0.0645588636,-0.0101279616,-0.0110924840,
314.423,-3.2686374187,1.3827804327,34.9944114685,0.0578231364,0.0394228473,0.0038720369,-101.0598678589,-9.4945697784,65.3695983887,-0.0272588134,-0.0331943035,0.0042064190,-19.6292610168,85.6211776733,-154.3305969238,0.0185654163,0.0251547694,0.0196045041,44.5150756836,39.0793151855,-149.3521728516,0.0615479946,-0.0111382008,0.0039848089,
314.433,-3.2689521313,1.3819030523,34.9949073792,0.0651320443,0.0413814746,0.0053368807,-101.0567703247,-9.4926795959,65.3731689453,-0.0321090817,-0.0361083746,0.0065963715,-19.7076549530,85.6207275391,-154.4015045166,0.0229593515,0.0194011033,0.0230485201,44.5163650513,39.0746154785,-149.3445587158,0.0678319335,-0.0194877982,-0.0097116232,
314.443,-3.2705206871,1.3829637766,34.9966773987,0.0544083677,0.0389673635,0.0082685947,-101.0508499146,-9.4914903641,65.3746566772,-0.0359948575,-0.0326675177,0.0050322115,-19.7550010681,85.6193847656,-154.4414672852,0.0273520947,0.0223998427,0.0274446011,44.5143890381,39.0703392029,-149.3374633789,0.0746099353,-0.0155953169,-0.0063461661,
314.453,-3.2720093727,1.3826624155,34.9972114563,0.0612390451,0.0414347090,0.0126643777,-101.0424270630,-9.4921092987,65.3750991821,-0.0360055268,-0.0399655700,0.0078189969,-19.7568035126,85.6175994873,-154.4337158203,0.0229551792,0.0277835131,0.0254638195,44.5158386230,39.0708656311,-149.3278656006,0.0682694316,-0.0141403675,-0.0160936713,
314.463,-3.2729129791,1.3840669394,34.9976692200,0.0593104213,0.0414504185,0.0058301091,-101.0384674072,-9.4929447174,65.3745651245,-0.0355316103,-0.0257948637,0.0023807883,-19.7407169342,85.6161193848,-154.4068450928,0.0288125873,0.0248405039,0.0293415785,44.5115280151,39.0713729858,-149.3214416504,0.0702294707,-0.0150713921,-0.0053884387,
314.473,-3.2716240883,1.3823639154,34.9988708496,0.0636752471,0.0448459759,0.0004565716,-101.0339202881,-9.4941987991,65.3736801147,-0.0399477482,-0.0331076384,0.0164633244,-19.6890907288,85.6145172119,-154.3439483643,0.0288104415,0.0252713859,0.0297777057,44.5100975037,39.0740203857,-149.3134918213,0.0668473244,-0.0057598352,-0.0112406015,
314.483,-3.2721779346,1.3840510845,35.0011711121,0.0563804656,0.0404610522,0.0004584193,-101.0328369141,-9.4969234467,65.3711929321,-0.0356001258,-0.0345765948,0.0115606487,-19.6488971710,85.6159896851,-154.2922668457,0.0219764709,0.0198386908,0.0209959745,44.5039062500,39.0781173706,-149.3092041016,0.0669028759,-0.0188519359,-0.0098024011,
314.493,-3.2701284885,1.3823497295,35.0012092590,0.0617218725,0.0453082100,0.0121735334,-101.0341873169,-9.5002040863,65.3684082031,-0.0332151949,-0.0394731164,0.0037691295,-19.5997047424,85.6170196533,-154.2311553955,0.0151419044,0.0256288648,0.0248931050,44.5039825439,39.0825843811,-149.3016052246,0.0601274371,-0.0173534751,-0.0112315416,
314.503,-3.2689199448,1.3823773861,35.0035743713,0.0622106344,0.0487051234,0.0019190907,-101.0358505249,-9.5008554459,65.3635787964,-0.0390858054,-0.0438749790,0.0028202683,-19.5855636597,85.6187210083,-154.2054443359,0.0166090131,0.0216940343,0.0185676813,44.5057411194,39.0874099731,-149.2917785645,0.0514037609,-0.0075676441,-0.0141066909,
314.513,-3.2676939964,1.3821696043,35.0041465759,0.0587890372,0.0423361175,0.0136365891,-101.0332870483,-9.5044803619,65.3555145264,-0.0303591192,-0.0453414321,0.0071692616,-19.6198196411,85.6184005737,-154.2274932861,0.0210031271,0.0217407644,0.0268784761,44.5042953491,39.0834579468,-149.2836151123,0.0620923638,-0.0085607171,-0.0019444823,
314.523,-3.2681827545,1.3813480139,35.0058708191,0.0651223585,0.0428329296,0.0038712025,-101.0286788940,-9.5112724304,65.3457489014,-0.0255932212,-0.0375334024,0.0105061680,-19.6896896362,85.6201019287,-154.2850646973,0.0224702358,0.0232870579,0.0191253424,44.5069503784,39.0803184509,-149.2733459473,0.0654677749,-0.0120285749,-0.0112212896,
314.533,-3.2672388554,1.3819631338,35.0064201355,0.0578088760,0.0457461588,0.0063120127,-101.0249557495,-9.5143270493,65.3348312378,-0.0339466035,-0.0321581364,0.0031165332,-19.7580013275,85.6205978394,-154.3422393799,0.0229591727,0.0199553967,0.0250239968,44.5071411133,39.0805053711,-149.2629241943,0.0635172129,-0.0188648701,-0.0063353181,
314.543,-3.2688047886,1.3819288015,35.0062904358,0.0622028112,0.0369843766,0.0092428327,-101.0259323120,-9.5229253769,65.3234710693,-0.0277469456,-0.0321861506,0.0011758357,-19.7973117828,85.6205520630,-154.3722991943,0.0214942694,0.0200070739,0.0230877995,44.5061798096,39.0788536072,-149.2559967041,0.0678893924,-0.0164268613,-0.0029391050,
314.553,-3.2699854374,1.3816659451,35.0086860657,0.0592685342,0.0423760451,0.0111972690,-101.0232925415,-9.5329666138,65.3152160645,-0.0264549255,-0.0366002321,0.0201683342,-19.7962989807,85.6194763184,-154.3653106689,0.0263756514,0.0263591111,0.0225832462,44.5012359619,39.0770874023,-149.2520904541,0.0703068972,-0.0173692703,-0.0025116205,
314.563,-3.2684123516,1.3813316822,35.0092048645,0.0651220828,0.0501611456,-0.0010113716,-101.0214538574,-9.5417251587,65.3052215576,-0.0324650407,-0.0356426835,0.0049960166,-19.7893447876,85.6220245361,-154.3530120850,0.0219845176,0.0253591835,0.0167604089,44.4993858337,39.0801010132,-149.2480926514,0.0679062605,-0.0231875181,-0.0156891942,
314.573,-3.2682352066,1.3819640875,35.0085067749,0.0597620159,0.0452752337,0.0097308159,-101.0188903809,-9.5534400940,65.2964096069,-0.0360846519,-0.0405501127,0.0098287016,-19.7610893250,85.6204605103,-154.3195190430,0.0244238377,0.0263076723,0.0289300680,44.4965744019,39.0835075378,-149.2442932129,0.0694172978,-0.0133685470,-0.0078772306,
314.583,-3.2697100639,1.3807172775,35.0097541809,0.0582754202,0.0413947068,0.0141262412,-101.0114364624,-9.5679531097,65.2882461548,-0.0363344252,-0.0439850688,0.0072534680,-19.6969299316,85.6227874756,-154.2501831055,0.0258917809,0.0271875858,0.0201476216,44.4945259094,39.0882034302,-149.2380218506,0.0645980835,-0.0162421465,-0.0024877787,
314.593,-3.2714035511,1.3823390007,35.0120582581,0.0568388700,0.0384944864,0.0077809691,-101.0037002563,-9.5837907791,65.2789230347,-0.0414898098,-0.0425399542,0.0168796182,-19.6558589935,85.6243057251,-154.2020721436,0.0229641199,0.0271256268,0.0230820179,44.4922828674,39.0894775391,-149.2331848145,0.0734043717,-0.0191404223,-0.0132421255,
314.603,-3.2728283405,1.3819278479,35.0126419067,0.0592731088,0.0438904017,0.0068057775,-100.9937515259,-9.5988245010,65.2686920166,-0.0388188362,-0.0381556749,0.0162148774,-19.6644439697,85.6240386963,-154.2021942139,0.0171043873,0.0232322514,0.0269874334,44.4887275696,39.0881271362,-149.2295837402,0.0685033202,-0.0147218704,0.0018506050,
314.613,-3.2713527679,1.3801195621,35.0132942200,0.0597298369,0.0433764569,0.0024085641,-100.9877166748,-9.6139383316,65.2579956055,-0.0371257961,-0.0342727900,0.0112216622,-19.6532230377,85.6253814697,-154.1802062988,0.0190593004,0.0266276002,0.0255398750,44.4919128418,39.0897865295,-149.2193756104,0.0607132316,-0.0127867460,-0.0117780566,
314.623,-3.2693638802,1.3828454018,35.0143547058,0.0568477064,0.0472479984,0.0024084449,-100.9832611084,-9.6284379959,65.2464294434,-0.0354221463,-0.0342998505,0.0116267651,-19.6884708405,85.6245803833,-154.2038269043,0.0200347900,0.0208187997,0.0240781903,44.4951820374,39.0892410278,-149.2112731934,0.0621707439,-0.0186819434,-0.0151692033,
314.633,-3.2718541622,1.3810626268,35.0155181885,0.0641408190,0.0380140804,0.0053389668,-100.9844970703,-9.6420755386,65.2347412109,-0.0273560584,-0.0348310471,0.0018739551,-19.7330474854,85.6238632202,-154.2393035889,0.0175924301,0.0262521207,0.0250636935,44.4980354309,39.0864105225,-149.2031402588,0.0631089211,-0.0172665119,-0.0073519945,
314.643,-3.2713980675,1.3813654184,35.0166549683,0.0612164140,0.0482600406,0.0077809095,-100.9862365723,-9.6546840668,65.2236328125,-0.0329441130,-0.0343849063,0.0048264861,-19.8065242767,85.6223373413,-154.3065185547,0.0224732161,0.0214734375,0.0260510445,44.5023078918,39.0835952759,-149.1940612793,0.0679535866,-0.0158646703,-0.0146576762,
314.653,-3.2718250751,1.3839524984,35.0189933777,0.0554021820,0.0472908467,0.0009458661,-100.9914245605,-9.6693038940,65.2111358643,-0.0292893946,-0.0320024490,-0.0014417768,-19.8432598114,85.6251602173,-154.3372344971,0.0200355649,0.0293178260,0.0163465738,44.5055236816,39.0796127319,-149.1866302490,0.0703410506,-0.0120202303,-0.0107520819,
314.663,-3.2704229355,1.3842003345,35.0189361572,0.0588244721,0.0453132913,0.0019214153,-100.9913940430,-9.6808700562,65.1954803467,-0.0368126035,-0.0232465267,0.0083167255,-19.8458099365,85.6261444092,-154.3386688232,0.0224782825,0.0263859928,0.0202692151,44.5058517456,39.0789222717,-149.1810607910,0.0717965364,-0.0178881288,-0.0063598156,
314.673,-3.2689342499,1.3850184679,35.0200538635,0.0593270287,0.0433342196,0.0053382516,-100.9886245728,-9.6900539398,65.1754379272,-0.0364823341,-0.0281468630,0.0102181435,-19.8042659760,85.6244888306,-154.2969055176,0.0288237333,0.0282942951,0.0295015574,44.5099983215,39.0818252563,-149.1741485596,0.0645116568,-0.0144878030,-0.0170399547,
314.683,-3.2677459717,1.3854664564,35.0205917358,0.0583582856,0.0423369370,0.0053373575,-100.9863891602,-9.6998062134,65.1534652710,-0.0386032462,-0.0242611170,0.0033385754,-19.7826576233,85.6250686646,-154.2717590332,0.0234534144,0.0243568420,0.0197344422,44.5114326477,39.0865402222,-149.1685180664,0.0699466467,-0.0169066787,-0.0155242085,
314.693,-3.2671031952,1.3865915537,35.0210418701,0.0622841679,0.0447671264,0.0019191504,-100.9809799194,-9.7077341080,65.1244430542,-0.0353216529,-0.0330557227,0.0066612065,-19.7098731995,85.6206359863,-154.1932525635,0.0258889198,0.0242865980,0.0352573991,44.5105438232,39.0877647400,-149.1646575928,0.0709397793,-0.0095643997,-0.0042927861,
314.703,-3.2660548687,1.3876593113,35.0215454102,0.0583965480,0.0418191478,0.0072895288,-100.9750366211,-9.7144289017,65.0929870605,-0.0403196514,-0.0418444872,0.0055801868,-19.6014213562,85.6172866821,-154.0798645020,0.0253961682,0.0280704200,0.0375953317,44.5111045837,39.0921669006,-149.1581268311,0.0607454777,-0.0110008121,-0.0081592202,
314.713,-3.2662889957,1.3878997564,35.0232849121,0.0593773015,0.0393818133,0.0068014860,-100.9673080444,-9.7179975510,65.0549774170,-0.0350099504,-0.0310873985,0.0054477304,-19.5661582947,85.6148300171,-154.0362854004,0.0161155462,0.0236440003,0.0316800475,44.5120201111,39.0956459045,-149.1512908936,0.0622574687,-0.0114709735,-0.0169121027,
314.723,-3.2653162479,1.3887717724,35.0250282288,0.0593925193,0.0457125045,0.0092425346,-100.9540939331,-9.7155284882,65.0118789673,-0.0413151383,-0.0373849869,0.0145037174,-19.5150680542,85.6178665161,-153.9751129150,0.0180727243,0.0279550552,0.0180314779,44.5095939636,39.0988883972,-149.1443939209,0.0657193661,-0.0133756995,-0.0095853806,
314.733,-3.2658572197,1.3890918493,35.0261497498,0.0589098260,0.0383977070,0.0048487186,-100.9387283325,-9.7131090164,64.9640960693,-0.0354141295,-0.0378156304,0.0015492439,-19.4731864929,85.6168823242,-153.9230957031,0.0195362568,0.0254641771,0.0228806138,44.5089569092,39.0986251831,-149.1371459961,0.0725517273,-0.0153247714,-0.0135003328,
314.743,-3.2666947842,1.3896666765,35.0266418457,0.0623378232,0.0437833667,0.0092438459,-100.9228897095,-9.7111558914,64.9140548706,-0.0373336673,-0.0387352705,-0.0006699711,-19.4900913239,85.6172409058,-153.9313812256,0.0200250149,0.0176717341,0.0238707066,44.5086669922,39.0990486145,-149.1292877197,0.0632801056,-0.0109240413,-0.0091044307,
314.753,-3.2682843208,1.3881044388,35.0265998840,0.0632871240,0.0433228165,0.0097337365,-100.9066619873,-9.7078685760,64.8586578369,-0.0353239775,-0.0328136683,-0.0014304370,-19.4564571381,85.6142959595,-153.8863525391,0.0268570185,0.0235041380,0.0301548243,44.5065956116,39.0987892151,-149.1229553223,0.0671828985,-0.0128593445,-0.0057090521,
314.763,-3.2669544220,1.3869675398,35.0290336609,0.0622907244,0.0447645187,0.0097308755,-100.8932418823,-9.7036056519,64.8012466431,-0.0357389152,-0.0327575207,-0.0016551912,-19.4230251312,85.6136703491,-153.8422088623,0.0200202465,0.0259053111,0.0232936144,44.5039749146,39.0977973938,-149.1178588867,0.0657045841,-0.0094234943,-0.0076939464,
314.773,-3.2689981461,1.3856471777,35.0319442749,0.0651973784,0.0350345336,0.0097331405,-100.8806686401,-9.7018604279,64.7416305542,-0.0371737480,-0.0317353010,0.0030163378,-19.3771438599,85.6142959595,-153.7880401611,0.0239273310,0.0277946889,0.0218185782,44.5008926392,39.0979118347,-149.1139373779,0.0681475401,-0.0123227835,-0.0008872747,
314.783,-3.2688524723,1.3826293945,35.0338439941,0.0622150339,0.0428445637,0.0068019629,-100.8672027588,-9.7003593445,64.6811676025,-0.0332416892,-0.0253393650,0.0047423989,-19.3654308319,85.6117019653,-153.7677307129,0.0180644989,0.0175400972,0.0212832093,44.5006065369,39.0986175537,-149.1090393066,0.0686453581,-0.0157322884,-0.0067430735,
314.793,-3.2691235542,1.3825427294,35.0355606079,0.0627017990,0.0413844474,0.0077787638,-100.8600769043,-9.6975784302,64.6241989136,-0.0371000767,-0.0297029614,-0.0036771297,-19.3300514221,85.6117935181,-153.7271118164,0.0170880556,0.0257939994,0.0251750350,44.4993095398,39.0997276306,-149.1050872803,0.0706135035,-0.0152230263,-0.0072356462,
314.803,-3.2667717934,1.3824951649,35.0360794067,0.0622126907,0.0442731641,0.0048467517,-100.8489761353,-9.6980724335,64.5666503906,-0.0361320078,-0.0350395441,0.0073654056,-19.3212242126,85.6130447388,-153.7145843506,0.0244139433,0.0199155807,0.0159153938,44.5012207031,39.1018753052,-149.0988922119,0.0652715564,-0.0142482519,-0.0062231421,
314.813,-3.2656877041,1.3823630810,35.0366134644,0.0607455447,0.0418128781,0.0155878067,-100.8369903564,-9.6995534897,64.5113677979,-0.0366457701,-0.0433059931,0.0037443638,-19.2693328857,85.6129531860,-153.6598358154,0.0214841366,0.0227786303,0.0207705498,44.5009460449,39.1048851013,-149.0969085693,0.0648240447,-0.0161756873,-0.0032734275,
314.823,-3.2679331303,1.3816021681,35.0383300781,0.0631736740,0.0364809148,0.0146132112,-100.8236312866,-9.7020854950,64.4564743042,-0.0528025925,-0.0437583923,0.0044936538,-19.2442798615,85.6146469116,-153.6318664551,0.0249043703,0.0222478211,0.0222519636,44.5019912720,39.1066246033,-149.0925903320,0.0658241510,-0.0122659206,-0.0061785579,
314.833,-3.2677667141,1.3814843893,35.0395088196,0.0582888052,0.0408725552,0.0043586493,-100.8070907593,-9.7042264938,64.4055786133,-0.0489332080,-0.0456641316,0.0071421266,-19.2133884430,85.6137084961,-153.5987243652,0.0161140561,0.0227009952,0.0300351977,44.5030632019,39.1094551086,-149.0875549316,0.0663508177,-0.0112780333,-0.0095651150,
314.843,-3.2706995010,1.3821696043,35.0387077332,0.0617187247,0.0365290940,0.0097336769,-100.7915725708,-9.7082843781,64.3564300537,-0.0460733175,-0.0383018851,0.0146903694,-19.2177257538,85.6108093262,-153.5957794189,0.0190398693,0.0212575793,0.0329217315,44.5035629272,39.1117477417,-149.0813903809,0.0654052496,-0.0117533803,-0.0100297928,
314.853,-3.2718465328,1.3812261820,35.0392265320,0.0631671101,0.0385022238,0.0038745403,-100.7816238403,-9.7140426636,64.3093490601,-0.0505669117,-0.0319389105,0.0101245642,-19.2066459656,85.6129531860,-153.5775909424,0.0209958553,0.0285551548,0.0183032751,44.5025329590,39.1115303040,-149.0755004883,0.0654023290,-0.0127217770,-0.0061361790,
314.863,-3.2708868980,1.3807765245,35.0403556824,0.0636475459,0.0458097346,0.0024086237,-100.7741012573,-9.7214689255,64.2606353760,-0.0365345180,-0.0334008336,0.0090164840,-19.2286415100,85.6154556274,-153.5880889893,0.0224640369,0.0256407559,0.0232347846,44.5069503784,39.1102752686,-149.0643768311,0.0658735633,-0.0074028969,-0.0178217292,
314.873,-3.2718613148,1.3794435263,35.0409774780,0.0602063164,0.0433853343,0.0024087429,-100.7669525146,-9.7234659195,64.2096252441,-0.0438930988,-0.0353370905,0.0035237521,-19.2400093079,85.6174240112,-153.5879211426,0.0278377533,0.0236916542,0.0188764930,44.5095252991,39.1086921692,-149.0545654297,0.0658521056,-0.0162292719,-0.0129277110,
314.883,-3.2701988220,1.3789715767,35.0403175354,0.0611746460,0.0462860726,0.0009421706,-100.7558441162,-9.7265233994,64.1564941406,-0.0395511389,-0.0328686237,0.0082168579,-19.2367286682,85.6212692261,-153.5733032227,0.0210069418,0.0314787924,0.0213767886,44.5097808838,39.1049575806,-149.0450897217,0.0643367171,-0.0108893514,-0.0022121072,
314.893,-3.2691335678,1.3799319267,35.0426559448,0.0592382811,0.0438260809,0.0102190971,-100.7442169189,-9.7327232361,64.1003494263,-0.0347749889,-0.0328494906,-0.0007718801,-19.2270011902,85.6210021973,-153.5546264648,0.0214948654,0.0260960758,0.0257637501,44.5122451782,39.1042633057,-149.0356140137,0.0633507371,-0.0084770918,-0.0095182657,
314.903,-3.2675099373,1.3797506094,35.0438117981,0.0606999584,0.0437978096,0.0058228970,-100.7276458740,-9.7387838364,64.0445938110,-0.0363440812,-0.0391616225,0.0052921474,-19.2330513000,85.6222915649,-153.5527496338,0.0205200315,0.0212143660,0.0199266076,44.5118904114,39.1056823730,-149.0313873291,0.0619051456,-0.0143220425,-0.0109755397,
314.913,-3.2676544189,1.3807120323,35.0449523926,0.0568104833,0.0418471768,0.0092414021,-100.7075271606,-9.7446784973,63.9886245728,-0.0354688764,-0.0337432623,0.0078783780,-19.2296237946,85.6220703125,-153.5437774658,0.0263791084,0.0173049867,0.0204094052,44.5100288391,39.1053466797,-149.0273895264,0.0731310844,-0.0152832270,-0.0075775981,
314.923,-3.2669277191,1.3842701912,35.0459289551,0.0583374128,0.0428109951,0.0063124299,-100.6895065308,-9.7525405884,63.9335670471,-0.0409752429,-0.0351736546,0.0026867837,-19.1890888214,85.6202316284,-153.4979705811,0.0273532271,0.0250743628,0.0262222290,44.5077972412,39.1090240479,-149.0229644775,0.0653683543,-0.0186513066,-0.0070815682,
314.933,-3.2665538788,1.3839954138,35.0463523865,0.0676099584,0.0393865220,0.0126591921,-100.6704711914,-9.7630529404,63.8784179688,-0.0421326458,-0.0395377874,0.0033353418,-19.1611385345,85.6208114624,-153.4670410156,0.0258891582,0.0196633935,0.0218247175,44.5088081360,39.1133956909,-149.0179443359,0.0639627576,-0.0117913485,-0.0099673867,
314.943,-3.2647058964,1.3851665258,35.0486679077,0.0603061765,0.0466785207,0.0004515648,-100.6511306763,-9.7756614685,63.8199920654,-0.0472323000,-0.0448842645,0.0059313029,-19.1027469635,85.6175079346,-153.4033813477,0.0224667788,0.0196056068,0.0354165435,44.5064582825,39.1173133850,-149.0150299072,0.0645040274,-0.0166212320,-0.0026347637,
314.953,-3.2641437054,1.3842711449,35.0492897034,0.0612671152,0.0486218706,0.0150986314,-100.6329879761,-9.7874479294,63.7607536316,-0.0469467640,-0.0385133624,0.0065946430,-19.0902862549,85.6175079346,-153.3855590820,0.0244199038,0.0239838660,0.0227153897,44.5111312866,39.1191749573,-149.0060272217,0.0669706464,-0.0063980818,-0.0113648772,
314.963,-3.2652385235,1.3842611313,35.0516510010,0.0602903776,0.0427815728,0.0043581128,-100.6153793335,-9.7999267578,63.7015113831,-0.0510676205,-0.0384939909,0.0136142969,-19.0657653809,85.6149597168,-153.3557281494,0.0253930688,0.0244535208,0.0270602107,44.5102157593,39.1203041077,-149.0003814697,0.0640562177,-0.0107751489,-0.0059937239,
314.973,-3.2678601742,1.3830591440,35.0522232056,0.0597811230,0.0355030559,0.0033826828,-100.6031036377,-9.8147468567,63.6407470703,-0.0396037400,-0.0350806117,0.0026564747,-19.0940418243,85.6190261841,-153.3755340576,0.0229570866,0.0269103050,0.0198109150,44.5089721680,39.1218147278,-148.9921569824,0.0577290654,-0.0185639858,-0.0094116330,
314.983,-3.2650640011,1.3825638294,35.0552558899,0.0602607615,0.0476613827,0.0126577616,-100.5941848755,-9.8283185959,63.5777473450,-0.0417902768,-0.0292326212,0.0078692138,-19.1148223877,85.6172866821,-153.3897399902,0.0219781995,0.0245049298,0.0334669352,44.5131950378,39.1220855713,-148.9808502197,0.0577327609,-0.0049307346,-0.0132757425,
314.993,-3.2645421028,1.3816120625,35.0570068359,0.0636621267,0.0398398153,0.0097267032,-100.5877227783,-9.8367958069,63.5105171204,-0.0468188822,-0.0321667790,0.0023842454,-19.1586551666,85.6182250977,-153.4267578125,0.0224677324,0.0191864669,0.0237344503,44.5118560791,39.1211471558,-148.9737243652,0.0616262555,-0.0161554813,-0.0069479942,
315.003,-3.2636404037,1.3834509850,35.0587005615,0.0583231188,0.0432420336,0.0146096349,-100.5828704834,-9.8481884003,63.4402465820,-0.0455499589,-0.0287668705,-0.0025869012,-19.1748676300,85.6210021973,-153.4356079102,0.0210065842,0.0201686919,0.0223219395,44.5108184814,39.1178894043,-148.9681091309,0.0635352731,-0.0137292743,-0.0084481835,
315.013,-3.2629191875,1.3844747543,35.0591964722,0.0583409816,0.0407880321,0.0009371042,-100.5774078369,-9.8601446152,63.3662109375,-0.0384313166,-0.0356206894,-0.0085453242,-19.2023353577,85.6234130859,-153.4576568604,0.0195449591,0.0245864689,0.0209054947,44.5064201355,39.1129760742,-148.9635925293,0.0707929730,-0.0137246847,0.0041667819,
315.023,-3.2634077072,1.3841212988,35.0584564209,0.0632176250,0.0407965556,0.0097272396,-100.5685729980,-9.8698511124,63.2884063721,-0.0425044596,-0.0331798196,-0.0003992915,-19.2315979004,85.6263656616,-153.4833068848,0.0224785805,0.0265610218,0.0199905634,44.5036430359,39.1103630066,-148.9590911865,0.0688044429,-0.0176242590,-0.0061340928,
315.033,-3.2632532120,1.3839280605,35.0590057373,0.0607728511,0.0407938696,0.0102142692,-100.5553207397,-9.8794326782,63.2035484314,-0.0426692367,-0.0360959172,0.0018126965,-19.2668991089,85.6289672852,-153.5154418945,0.0224820375,0.0202450454,0.0166298151,44.5010414124,39.1095352173,-148.9552612305,0.0629338622,-0.0176055431,-0.0022590160,
315.043,-3.2624766827,1.3862134218,35.0594482422,0.0583713129,0.0451748185,0.0058206320,-100.5391311646,-9.8857707977,63.1164970398,-0.0515672863,-0.0331339836,0.0049533695,-19.2749671936,85.6299057007,-153.5206298828,0.0224832892,0.0295278132,0.0200659633,44.5026626587,39.1094551086,-148.9489288330,0.0683039427,-0.0146920085,-0.0041973591,
315.053,-3.2632164955,1.3868457079,35.0611877441,0.0578940660,0.0398165956,0.0033801794,-100.5227813721,-9.8921394348,63.0251083374,-0.0541181564,-0.0350543857,-0.0065573752,-19.2703323364,85.6295013428,-153.5100097656,0.0259007215,0.0217115581,0.0273815393,44.5040016174,39.1107406616,-148.9430236816,0.0673447251,-0.0137184858,-0.0105223656,
315.063,-3.2625086308,1.3865175247,35.0623283386,0.0608180314,0.0407808349,-0.0049213767,-100.4996948242,-9.9019727707,62.9276618958,-0.0494044423,-0.0384291410,0.0091604590,-19.2241916656,85.6302719116,-153.4617462158,0.0200423598,0.0284828544,0.0254204273,44.5053672791,39.1131935120,-148.9381561279,0.0703076124,-0.0107831359,-0.0080486536,
315.073,-3.2628283501,1.3858426809,35.0635032654,0.0603179708,0.0412747040,0.0067973137,-100.4736328125,-9.9114427567,62.8257026672,-0.0495672524,-0.0354458094,-0.0025161654,-19.1652126312,85.6293258667,-153.3987731934,0.0224825144,0.0240169466,0.0258659720,44.5019531250,39.1166572571,-148.9351501465,0.0630303621,-0.0165827274,-0.0031709075,
315.083,-3.2647976875,1.3842489719,35.0640907288,0.0612667277,0.0398442037,0.0067987442,-100.4454956055,-9.9258651733,62.7185287476,-0.0517683327,-0.0446782708,-0.0044644624,-19.1298027039,85.6307983398,-153.3549499512,0.0200430751,0.0239620805,0.0205040574,44.5003089905,39.1182937622,-148.9310760498,0.0718415380,-0.0146011710,-0.0041502714,
315.093,-3.2650132179,1.3843539953,35.0658645630,0.0598037168,0.0437542088,0.0053336620,-100.4113464355,-9.9409551620,62.6054267883,-0.0471449494,-0.0377804041,-0.0006563663,-19.0635929108,85.6341171265,-153.2805023193,0.0171177983,0.0272762775,0.0185710788,44.5002593994,39.1216850281,-148.9251861572,0.0684695244,-0.0096916556,-0.0129131675,
315.103,-3.2651834488,1.3842930794,35.0669975281,0.0602909364,0.0418040492,0.0063110590,-100.3796234131,-9.9591226578,62.4901275635,-0.0440392792,-0.0367598534,0.0002626032,-19.0256919861,85.6336288452,-153.2342834473,0.0190702677,0.0223468244,0.0273350477,44.4999237061,39.1260948181,-148.9199981689,0.0665761232,-0.0135607123,-0.0065346956,
315.113,-3.2645299435,1.3828932047,35.0675239563,0.0671024472,0.0447223857,0.0087506771,-100.3533020020,-9.9803905487,62.3749771118,-0.0463579893,-0.0343003869,-0.0011705607,-19.0249919891,85.6338958740,-153.2256622314,0.0215120316,0.0199025869,0.0273404717,44.4981346130,39.1288375854,-148.9137115479,0.0622186661,-0.0135222077,-0.0123887658,
315.123,-3.2627716064,1.3817384243,35.0693931580,0.0578049570,0.0442035012,0.0058190227,-100.3319625854,-10.0044708252,62.2649841309,-0.0433539450,-0.0382124186,0.0033379793,-19.0184249878,85.6365966797,-153.2119140625,0.0205390453,0.0257390440,0.0166368484,44.4914131165,39.1267852783,-148.9112091064,0.0660971403,-0.0164029002,-0.0031921268,
315.133,-3.2636365891,1.3811469078,35.0705223083,0.0641422868,0.0437303074,0.0024012327,-100.3108062744,-10.0291547775,62.1575393677,-0.0471961498,-0.0479863882,-0.0043579191,-19.0640010834,85.6401367188,-153.2544097900,0.0195671916,0.0248027146,0.0215955973,44.4902191162,39.1257820129,-148.9074554443,0.0612007380,-0.0124927759,-0.0061401129,
315.143,-3.2623517513,1.3804583549,35.0716590881,0.0621771514,0.0427313745,-0.0019940734,-100.2865447998,-10.0576009750,62.0521507263,-0.0496381521,-0.0504387617,0.0079118013,-19.1296825409,85.6411285400,-153.3182525635,0.0176153779,0.0229297876,0.0299412012,44.4890136719,39.1223602295,-148.9041900635,0.0684785843,-0.0178787112,-0.0056908727,
315.153,-3.2637526989,1.3827555180,35.0727462769,0.0563578606,0.0417791642,0.0072849393,-100.2597885132,-10.0869903564,61.9464645386,-0.0579556823,-0.0465390086,0.0128147006,-19.2232627869,85.6401824951,-153.4115142822,0.0166375637,0.0176846087,0.0285070539,44.4929275513,39.1197929382,-148.8950347900,0.0586782694,-0.0145183206,-0.0071382523,
315.163,-3.2631995678,1.3820508718,35.0739288330,0.0602518097,0.0422578231,0.0019134283,-100.2324447632,-10.1192388535,61.8422088623,-0.0599746406,-0.0470408201,0.0089165866,-19.3124160767,85.6443634033,-153.4988403320,0.0210376382,0.0265673101,0.0242163539,44.4973144531,39.1135559082,-148.8876190186,0.0654296875,-0.0121674538,-0.0105637312,
315.173,-3.2634088993,1.3829495907,35.0750465393,0.0592909344,0.0437262915,0.0126561522,-100.2072601318,-10.1522932053,61.7353591919,-0.0620073974,-0.0368099213,0.0031010509,-19.4230308533,85.6447677612,-153.6032104492,0.0205498934,0.0267084539,0.0232973695,44.5021514893,39.1079978943,-148.8781127930,0.0677958727,-0.0107921362,-0.0149558187,
315.183,-3.2653877735,1.3832418919,35.0767173767,0.0632022768,0.0398545079,-0.0005254745,-100.1845092773,-10.1918544769,61.6257743835,-0.0538979471,-0.0349079967,-0.0031641573,-19.4995059967,85.6477355957,-153.6754150391,0.0259249210,0.0272792280,0.0219148993,44.5042381287,39.1041145325,-148.8693542480,0.0667667389,-0.0147485137,-0.0052009225,
315.193,-3.2656002045,1.3837656975,35.0778770447,0.0583286099,0.0437644422,0.0087523460,-100.1605758667,-10.2314767838,61.5124359131,-0.0560433865,-0.0334908962,-0.0011496842,-19.5676879883,85.6479568481,-153.7361907959,0.0273900628,0.0229720771,0.0273200274,44.5048484802,39.1009063721,-148.8595733643,0.0691646338,-0.0133143067,-0.0130329132,
315.203,-3.2680258751,1.3829035759,35.0808219910,0.0636846572,0.0379473493,0.0121722817,-100.1376953125,-10.2705450058,61.3963279724,-0.0576909184,-0.0301235914,0.0023487359,-19.6046199799,85.6511535645,-153.7634124756,0.0269060135,0.0264201164,0.0190862417,44.5054893494,39.0986518860,-148.8512878418,0.0666927099,-0.0123612881,-0.0032787323,
315.213,-3.2692043781,1.3824788332,35.0795745850,0.0568413138,0.0384561643,0.0077787638,-100.1162261963,-10.3120241165,61.2776184082,-0.0554735363,-0.0267680883,-0.0019433200,-19.6610794067,85.6534118652,-153.8130187988,0.0249558687,0.0176914334,0.0284250975,44.5093955994,39.0968017578,-148.8406372070,0.0735036135,-0.0133898854,-0.0149748325,
315.223,-3.2663788795,1.3807157278,35.0819625854,0.0665761679,0.0457312055,0.0082635880,-100.0998458862,-10.3526210785,61.1560974121,-0.0507995188,-0.0317265391,-0.0168912113,-19.6787986755,85.6548995972,-153.8252563477,0.0239812732,0.0221006870,0.0260148644,44.5101051331,39.0960693359,-148.8332214355,0.0686108470,-0.0094962120,-0.0115559101,
315.233,-3.2673759460,1.3814773560,35.0843086243,0.0597535223,0.0452602766,0.0048468113,-100.0774841309,-10.3965988159,61.0319099426,-0.0442303121,-0.0332603455,0.0027261078,-19.7447338104,85.6579132080,-153.8879547119,0.0254501104,0.0172862411,0.0207213163,44.5069160461,39.0963554382,-148.8300170898,0.0686147213,-0.0158107877,-0.0067010522,
315.243,-3.2667548656,1.3823903799,35.0860328674,0.0592811741,0.0423197523,0.0102177262,-100.0522155762,-10.4391679764,60.9056892395,-0.0542383790,-0.0381996632,-0.0026075095,-19.8001708984,85.6606292725,-153.9409179688,0.0220357180,0.0236897767,0.0246970057,44.5056877136,39.0989685059,-148.8249511719,0.0603493452,-0.0148021579,-0.0066922307,
315.253,-3.2661561966,1.3832548857,35.0871429443,0.0592962578,0.0423093028,0.0092409253,-100.0245361328,-10.4795770645,60.7769241333,-0.0534670651,-0.0450788736,0.0008084625,-19.8394374847,85.6627044678,-153.9783477783,0.0156908035,0.0247055292,0.0227938890,44.5047950745,39.1006317139,-148.8200531006,0.0642781258,-0.0152690411,-0.0061993599,
315.263,-3.2654421329,1.3850253820,35.0901069641,0.0563974604,0.0447382219,0.0063114166,-99.9936981201,-10.5195798874,60.6443519592,-0.0580598116,-0.0368114114,0.0041712523,-19.8652019501,85.6656799316,-154.0042266846,0.0200892687,0.0266747177,0.0287128091,44.5071144104,39.1026344299,-148.8122253418,0.0657701492,-0.0191822052,-0.0110443830,
315.273,-3.2683858871,1.3854790926,35.0905799866,0.0607999153,0.0384418331,0.0146152973,-99.9617767334,-10.5600051880,60.5094680786,-0.0616831481,-0.0417264700,-0.0081095994,-19.9254779816,85.6704330444,-154.0627288818,0.0215603709,0.0286787152,0.0224671364,44.5035209656,39.0996017456,-148.8101501465,0.0657290816,-0.0201475024,0.0020806193,
315.283,-3.2665457726,1.3868290186,35.0923347473,0.0574054942,0.0467105359,-0.0005230904,-99.9282531738,-10.6007547379,60.3734474182,-0.0589643121,-0.0383378267,-0.0003981143,-20.0318584442,85.6745452881,-154.1664276123,0.0244954824,0.0229325294,0.0176988840,44.5055923462,39.0972862244,-148.8038330078,0.0676507950,-0.0123728514,-0.0047534108,
315.293,-3.2682070732,1.3848440647,35.0935401917,0.0627419502,0.0408801399,0.0063138604,-99.8955307007,-10.6414213181,60.2348403931,-0.0586853623,-0.0354405046,-0.0004853904,-20.1185054779,85.6766815186,-154.2518157959,0.0288928151,0.0274261534,0.0250971317,44.5068969727,39.0958862305,-148.7973937988,0.0642138124,-0.0187439322,-0.0023105145,
315.303,-3.2675395012,1.3829137087,35.0953521729,0.0627082735,0.0403802805,0.0072891712,-99.8619613647,-10.6809520721,60.0950279236,-0.0608282387,-0.0354676247,0.0082027465,-20.2172126770,85.6765441895,-154.3496856689,0.0235215425,0.0197408795,0.0270951986,44.5084419250,39.0922584534,-148.7921447754,0.0641646981,-0.0139039755,-0.0033008456,
315.313,-3.2691121101,1.3814935684,35.0977363586,0.0631717741,0.0389428623,0.0068014264,-99.8305206299,-10.7212371826,59.9548645020,-0.0585894287,-0.0315977335,0.0027659684,-20.3041877747,85.6815795898,-154.4340972900,0.0245047212,0.0247063935,0.0189135671,44.5117683411,39.0893516541,-148.7853698730,0.0597308278,-0.0115171671,-0.0096397400,
315.323,-3.2658157349,1.3804963827,35.1007537842,0.0616895333,0.0452331193,0.0033800602,-99.8019866943,-10.7549428940,59.8118476868,-0.0611205101,-0.0330872536,0.0008001626,-20.4185161591,85.6844329834,-154.5482330322,0.0201139450,0.0253243744,0.0209656954,44.5156326294,39.0834999084,-148.7790069580,0.0655109286,-0.0135527253,-0.0091604590,
315.333,-3.2670047283,1.3808780909,35.1005935669,0.0626727566,0.0384178944,0.0033813119,-99.7740554810,-10.7856111526,59.6663970947,-0.0665291846,-0.0326161385,0.0056820661,-20.5330123901,85.6858901978,-154.6607818604,0.0186510086,0.0283917487,0.0254381299,44.5204925537,39.0758514404,-148.7706909180,0.0712666512,-0.0126821995,-0.0067334175,
315.343,-3.2659680843,1.3806970119,35.1017723083,0.0607164726,0.0481654555,0.0063101053,-99.7449340820,-10.8149919510,59.5203628540,-0.0650797486,-0.0287200212,-0.0011741370,-20.6511745453,85.6878433228,-154.7768249512,0.0245129466,0.0197422206,0.0230835676,44.5208358765,39.0716667175,-148.7654113770,0.0663272142,-0.0171122551,-0.0067625046,
315.353,-3.2657320499,1.3790425062,35.1042022705,0.0621524490,0.0408371650,0.0150977373,-99.7167510986,-10.8474140167,59.3750915527,-0.0656355321,-0.0385088921,-0.0060628355,-20.7466201782,85.6896972656,-154.8708038330,0.0220739841,0.0188767016,0.0236461759,44.5261993408,39.0688514709,-148.7585601807,0.0692186356,-0.0137678385,-0.0091751814,
315.363,-3.2663187981,1.3794841766,35.1041374207,0.0563007779,0.0403590985,0.0111930966,-99.6848373413,-10.8836603165,59.2280235291,-0.0662567914,-0.0370694399,-0.0071106851,-20.8174324036,85.6918869019,-154.9421081543,0.0240299702,0.0228606761,0.0246896148,44.5283164978,39.0683708191,-148.7547302246,0.0648176670,-0.0142802596,-0.0052525997,
315.373,-3.2672672272,1.3797461987,35.1070671082,0.0636295676,0.0433053039,0.0014275312,-99.6449508667,-10.9198780060,59.0808944702,-0.0702954829,-0.0370725989,0.0083083063,-20.8164634705,85.6931533813,-154.9407196045,0.0196371078,0.0277337134,0.0256885886,44.5315818787,39.0692901611,-148.7491912842,0.0662949681,-0.0157696009,-0.0071675777,
315.383,-3.2665758133,1.3794707060,35.1088256836,0.0611833557,0.0447581038,0.0067985058,-99.6090316772,-10.9574499130,58.9334182739,-0.0655682385,-0.0361157656,-0.0089212507,-20.8724937439,85.6947937012,-154.9992065430,0.0191509724,0.0253548026,0.0262269378,44.5365524292,39.0728721619,-148.7432861328,0.0604841113,-0.0162783265,-0.0129516721,
315.393,-3.2669456005,1.3794623613,35.1093406677,0.0602066480,0.0389051698,0.0126581788,-99.5609893799,-10.9887018204,58.7793273926,-0.0753810406,-0.0409642458,0.0073397905,-20.8867816925,85.6978836060,-155.0124969482,0.0176901817,0.0302371979,0.0277474523,44.5422668457,39.0710372925,-148.7347717285,0.0633889437,-0.0104882717,-0.0090053082,
315.403,-3.2671315670,1.3788267374,35.1111793518,0.0582424328,0.0437912419,0.0092400312,-99.5071258545,-11.0160608292,58.6194801331,-0.0748732090,-0.0379717946,-0.0043276995,-20.9429340363,85.7023086548,-155.0645294189,0.0181842446,0.0346764922,0.0219848752,44.5499763489,39.0661430359,-148.7257232666,0.0638108850,-0.0076708198,-0.0123883486,
315.413,-3.2653117180,1.3783283234,35.1117477417,0.0616517067,0.0466892384,0.0048434734,-99.4472351074,-11.0410175323,58.4573516846,-0.0709062219,-0.0378854275,-0.0087715238,-21.0464916229,85.7058563232,-155.1619110107,0.0162357688,0.0264859796,0.0269731283,44.5561447144,39.0588188171,-148.7143707275,0.0700592995,-0.0038806796,-0.0089692473,
315.423,-3.2659838200,1.3792388439,35.1134796143,0.0592261851,0.0442595184,0.0082626343,-99.3885116577,-11.0662794113,58.2905464172,-0.0776866078,-0.0255970955,0.0034051836,-21.1827316284,85.7098312378,-155.2899932861,0.0211237669,0.0256582797,0.0222182870,44.5620613098,39.0534057617,-148.7028045654,0.0660797358,-0.0069092512,-0.0133499503,
315.433,-3.2659041882,1.3780359030,35.1153221130,0.0601817593,0.0447464362,0.0077736974,-99.3437728882,-11.0916194916,58.1267242432,-0.0766557753,-0.0323923826,-0.0066422224,-21.3349514008,85.7157211304,-155.4349975586,0.0182017684,0.0175144374,0.0170132518,44.5585479736,39.0527153015,-148.6969757080,0.0626523495,-0.0220173597,-0.0085060000,
315.443,-3.2655982971,1.3793965578,35.1164550781,0.0553226843,0.0413231067,0.0063091516,-99.3084487915,-11.1181306839,57.9671630859,-0.0707621872,-0.0226167440,-0.0053007007,-21.4356117249,85.7189254761,-155.5298461914,0.0240653157,0.0185984373,0.0210191607,44.5564422607,39.0525817871,-148.6917572021,0.0592325330,-0.0161387324,-0.0021792650,
315.453,-3.2659659386,1.3799692392,35.1181945801,0.0582623668,0.0388880894,0.0082628131,-99.2764511108,-11.1441173553,57.8076858521,-0.0668126643,-0.0299390554,-0.0009728074,-21.4956054688,85.7209854126,-155.5867309570,0.0201617479,0.0245210230,0.0244983435,44.5535621643,39.0499839783,-148.6895751953,0.0670099258,-0.0229666829,-0.0012503862,
315.463,-3.2656347752,1.3813574314,35.1204910278,0.0597514287,0.0413236953,0.0063095689,-99.2462768555,-11.1611166000,57.6478233337,-0.0749162734,-0.0260063410,-0.0029571503,-21.5688285828,85.7213973999,-155.6586608887,0.0186974406,0.0231453776,0.0299139023,44.5540313721,39.0496215820,-148.6845245361,0.0630986691,-0.0161381960,-0.0110145211,
315.473,-3.2647755146,1.3828657866,35.1221427917,0.0612425953,0.0432618186,0.0033800006,-99.2085494995,-11.1756525040,57.4811973572,-0.0712589025,-0.0298576355,-0.0055560768,-21.6252079010,85.7231826782,-155.7125701904,0.0196763277,0.0227180123,0.0260607004,44.5513114929,39.0477447510,-148.6824798584,0.0703974962,-0.0161263943,-0.0032426119,
315.483,-3.2658331394,1.3817127943,35.1232795715,0.0641521662,0.0408388674,0.0072869062,-99.1627120972,-11.1868124008,57.3083724976,-0.0748679638,-0.0331876874,-0.0034074336,-21.6327857971,85.7236404419,-155.7178344727,0.0255362988,0.0251653194,0.0270506144,44.5526161194,39.0495948792,-148.6770019531,0.0621218085,-0.0190544128,-0.0100514889,
315.493,-3.2653555870,1.3831826448,35.1250000000,0.0573418699,0.0418070741,0.0107049942,-99.1132202148,-11.1986513138,57.1325569153,-0.0736058056,-0.0330930948,-0.0057152063,-21.6617259979,85.7253799438,-155.7431945801,0.0250502825,0.0256797373,0.0261139870,44.5527534485,39.0494728088,-148.6729736328,0.0650498271,-0.0151504278,-0.0007739067,
315.503,-3.2648227215,1.3828541040,35.1260910034,0.0636837929,0.0398446731,0.0146105289,-99.0593261719,-11.2099714279,56.9575195313,-0.0737996101,-0.0378681421,0.0011797696,-21.6924877167,85.7243728638,-155.7709045410,0.0196778774,0.0198646486,0.0363694429,44.5533866882,39.0495414734,-148.6678771973,0.0640741587,-0.0151560307,-0.0071150661,
315.513,-3.2639601231,1.3853323460,35.1295852661,0.0583559424,0.0452006795,0.0072866678,-99.0039520264,-11.2189064026,56.7841491699,-0.0724877119,-0.0323783159,0.0085390806,-21.7305259705,85.7283554077,-155.8096923828,0.0177299380,0.0291661322,0.0252171159,44.5548171997,39.0513191223,-148.6630249023,0.0572623610,-0.0195506215,-0.0100169778,
315.523,-3.2642087936,1.3859049082,35.1306877136,0.0603190586,0.0393456258,0.0092398524,-98.9515762329,-11.2252473831,56.6141128540,-0.0838267505,-0.0317716599,0.0066733360,-21.7971878052,85.7280349731,-155.8750305176,0.0250537395,0.0219269097,0.0257358551,44.5592308044,39.0521011353,-148.6556091309,0.0592260361,-0.0166575909,-0.0153400898,
315.533,-3.2637107372,1.3871355057,35.1323966980,0.0583874062,0.0417783223,0.0170530081,-98.9035491943,-11.2287673950,56.4432373047,-0.0848635733,-0.0331206918,0.0034173578,-21.8565635681,85.7313919067,-155.9345550537,0.0201752782,0.0317468643,0.0267922878,44.5633926392,39.0489540100,-148.6461791992,0.0689490438,-0.0079330206,-0.0119072199,
315.543,-3.2643702030,1.3882091045,35.1336097717,0.0544998869,0.0442311950,0.0170531273,-98.8638305664,-11.2304220200,56.2739601135,-0.0887981355,-0.0261857510,-0.0045794696,-21.9130287170,85.7332687378,-155.9886169434,0.0235956907,0.0293643773,0.0268502831,44.5675163269,39.0467071533,-148.6367645264,0.0728248358,-0.0084783435,-0.0123736858,
315.553,-3.2641472816,1.3884929419,35.1365928650,0.0574345291,0.0408093296,0.0102179050,-98.8254623413,-11.2307748795,56.1027030945,-0.0829448104,-0.0270624161,0.0001419783,-21.9697628021,85.7337722778,-156.0422973633,0.0216432214,0.0235731006,0.0293276906,44.5648345947,39.0459022522,-148.6314849854,0.0684193969,-0.0152946711,-0.0050812960,
315.563,-3.2656917572,1.3879172802,35.1371726990,0.0598658919,0.0413245298,0.0072890520,-98.7881164551,-11.2324256897,55.9305839539,-0.0761371553,-0.0279469490,-0.0087914467,-22.0060787201,85.7363891602,-156.0730895996,0.0221349001,0.0236014426,0.0225527287,44.5637092590,39.0459976196,-148.6270904541,0.0654909611,-0.0187010765,-0.0065561533,
315.573,-3.2668352127,1.3885517120,35.1388626099,0.0623183623,0.0447624139,0.0077793598,-98.7482223511,-11.2343168259,55.7541160583,-0.0810523331,-0.0327321291,-0.0055613518,-22.0451107025,85.7393798828,-156.1071319580,0.0216504931,0.0207035542,0.0182192922,44.5612869263,39.0477294922,-148.6225585938,0.0625847578,-0.0181760192,0.0027111173,
315.583,-3.2626657486,1.3865107298,35.1407546997,0.0627710372,0.0505491942,-0.0015036464,-98.7021560669,-11.2366151810,55.5773696899,-0.0810916722,-0.0370146036,-0.0107371956,-22.0557308197,85.7407989502,-156.1135559082,0.0221406221,0.0241243243,0.0260638595,44.5608024597,39.0495147705,-148.6177673340,0.0718863010,-0.0166926384,-0.0070441365,
315.593,-3.2629361153,1.3863568306,35.1412925720,0.0603269413,0.0437179767,0.0014265776,-98.6504898071,-11.2385253906,55.3979568481,-0.0747767091,-0.0334699154,-0.0028236508,-22.1043853760,85.7420425415,-156.1584625244,0.0206773877,0.0202718079,0.0241523385,44.5626869202,39.0517196655,-148.6122436523,0.0616623163,-0.0098580122,-0.0074982047,
315.603,-3.2618107796,1.3875607252,35.1435737610,0.0623010732,0.0441866256,-0.0000388622,-98.5965728760,-11.2415494919,55.2209548950,-0.0748284757,-0.0401778221,-0.0095973909,-22.1617488861,85.7467880249,-156.2169494629,0.0226366520,0.0256841183,0.0154674053,44.5659790039,39.0502014160,-148.6072082520,0.0689659119,-0.0108779669,-0.0118724108,
315.613,-3.2616050243,1.3892744780,35.1453170776,0.0564716011,0.0451595560,0.0102154613,-98.5428466797,-11.2434225082,55.0433502197,-0.0812081993,-0.0376058817,-0.0080665946,-22.2403087616,85.7471542358,-156.2966308594,0.0216605663,0.0252924263,0.0233227015,44.5700187683,39.0477714539,-148.6018371582,0.0664916039,-0.0104476213,-0.0069711208,
315.623,-3.2631607056,1.3862875700,35.1459197998,0.0661851093,0.0412804820,0.0077744126,-98.4925155640,-11.2475595474,54.8686561584,-0.0871384144,-0.0316330194,-0.0040381551,-22.3384532928,85.7469177246,-156.3994445801,0.0265430808,0.0215083957,0.0272799134,44.5693244934,39.0455093384,-148.5981903076,0.0679257512,-0.0143644810,-0.0040647984,
315.633,-3.2633340359,1.3865649700,35.1482620239,0.0617954172,0.0437249020,0.0146105886,-98.4510955811,-11.2519855499,54.6936607361,-0.0857493281,-0.0325202346,-0.0101128668,-22.4088687897,85.7519912720,-156.4711761475,0.0148308873,0.0308433175,0.0278762579,44.5743522644,39.0462722778,-148.5896759033,0.0654947162,-0.0124542117,-0.0176839828,
315.643,-3.2623901367,1.3880240917,35.1481475830,0.0613325983,0.0500560813,0.0111922622,-98.4124755859,-11.2600383759,54.5183410645,-0.0902816951,-0.0309857726,-0.0024702847,-22.4800205231,85.7537918091,-156.5422973633,0.0221574306,0.0255476534,0.0289216042,44.5762786865,39.0450172424,-148.5841064453,0.0679190755,-0.0124823451,-0.0069321990,
315.653,-3.2621467113,1.3870251179,35.1481513977,0.0593620390,0.0432159267,0.0155860186,-98.3754730225,-11.2697391510,54.3407096863,-0.0845883787,-0.0367854238,-0.0065198541,-22.5312290192,85.7543487549,-156.5929870605,0.0197167397,0.0265845060,0.0338386893,44.5813636780,39.0436668396,-148.5752716064,0.0713188052,-0.0154716372,-0.0161725283,
315.663,-3.2642524242,1.3883067369,35.1511344910,0.0535250306,0.0393463299,-0.0039423704,-98.3391342163,-11.2801074982,54.1622314453,-0.0911135077,-0.0381950736,-0.0188592672,-22.6018180847,85.7645034790,-156.6581420898,0.0177767277,0.0310015082,0.0242660046,44.5853195190,39.0430412292,-148.5655975342,0.0703337193,-0.0116084218,-0.0136978626,
315.673,-3.2653121948,1.3865507841,35.1536026001,0.0598420464,0.0408296734,0.0004523993,-98.2981491089,-11.2942457199,53.9794578552,-0.0845195353,-0.0313054919,-0.0151661932,-22.6538619995,85.7668685913,-156.7060394287,0.0187563300,0.0295861363,0.0287231207,44.5843505859,39.0397186279,-148.5582580566,0.0610113144,-0.0126012564,-0.0010377765,
315.683,-3.2672278881,1.3875237703,35.1541862488,0.0544879287,0.0442809910,0.0087555647,-98.2535934448,-11.3054084778,53.7979812622,-0.0847105980,-0.0346515775,-0.0129970014,-22.7482013702,85.7669982910,-156.7970428467,0.0353580713,0.0165184736,0.0292619467,44.5830688477,39.0380516052,-148.5514984131,0.0580590963,-0.0111368895,0.0004011989,
315.693,-3.2654323578,1.3884863853,35.1559562683,0.0588992573,0.0486442186,0.0038714409,-98.2153778076,-11.3194417953,53.6149177551,-0.0795796514,-0.0316756964,-0.0146281123,-22.8931980133,85.7700576782,-156.9427795410,0.0202252865,0.0171662867,0.0205946565,44.5885658264,39.0342979431,-148.5426635742,0.0711917281,-0.0097540021,-0.0132468343,
315.703,-3.2643826008,1.3850703239,35.1565513611,0.0695818365,0.0461846106,0.0019158721,-98.1693191528,-11.3316535950,53.4306449890,-0.0793003738,-0.0330698490,-0.0095550716,-23.0325756073,85.7721405029,-157.0823669434,0.0246224999,0.0197656453,0.0275366306,44.5914764404,39.0321998596,-148.5369415283,0.0662804842,-0.0171226263,-0.0093299150,
315.713,-3.2691926956,1.3880105019,35.1576156616,0.0520550162,0.0340612978,0.0107104778,-98.1200332642,-11.3425416946,53.2482833862,-0.0843695104,-0.0364055037,-0.0103956163,-23.1731567383,85.7726516724,-157.2267608643,0.0197403431,0.0184712410,0.0222454071,44.5896530151,39.0275726318,-148.5347290039,0.0632880330,-0.0151875019,0.0003824234,
315.723,-3.2700569630,1.3884174824,35.1587486267,0.0588980578,0.0414005704,0.0136415958,-98.0720977783,-11.3548192978,53.0653762817,-0.0845796168,-0.0270546079,-0.0077957362,-23.3416519165,85.7757492065,-157.4009246826,0.0280451179,0.0210998058,0.0228694081,44.5881538391,39.0254936218,-148.5313415527,0.0671661496,-0.0215367675,-0.0035547614,
315.733,-3.2697353363,1.3883208036,35.1605072021,0.0608494915,0.0433480889,0.0151062012,-98.0202026367,-11.3666410446,52.8812599182,-0.0960123539,-0.0396661162,-0.0140519142,-23.4840545654,85.7812271118,-157.5490722656,0.0260990262,0.0222149789,0.0205872059,44.5875587463,39.0251083374,-148.5273590088,0.0676491857,-0.0234871507,-0.0089344382,
315.743,-3.2708697319,1.3883910179,35.1621398926,0.0662218109,0.0384850353,0.0024114847,-97.9627685547,-11.3831005096,52.6962928772,-0.0933642983,-0.0307966471,-0.0111272037,-23.5985832214,85.7842483521,-157.6672058105,0.0256146193,0.0306353867,0.0265554190,44.5878677368,39.0245018005,-148.5217895508,0.0720354915,-0.0186119676,-0.0069828629,
315.753,-3.2716481686,1.3887215853,35.1626396179,0.0608564839,0.0419165529,0.0038776398,-97.9074707031,-11.4013214111,52.5115585327,-0.0946526229,-0.0351229906,-0.0106084645,-23.7137718201,85.7848510742,-157.7846374512,0.0256153941,0.0234480500,0.0319973826,44.5917854309,39.0264396667,-148.5126800537,0.0632727146,-0.0161934495,-0.0088841319,
315.763,-3.2718739510,1.3907492161,35.1637229919,0.0569856167,0.0438735634,-0.0024688244,-97.8555374146,-11.4180479050,52.3250999451,-0.0983567536,-0.0321287513,-0.0149147958,-23.8031082153,85.7850799561,-157.8770599365,0.0202445984,0.0289270580,0.0364428163,44.5934371948,39.0261268616,-148.5062103271,0.0652216673,-0.0142586231,-0.0074051023,
315.773,-3.2729442120,1.3923438787,35.1654930115,0.0545720309,0.0429156125,0.0043683052,-97.8040390015,-11.4347009659,52.1346893311,-0.0976650715,-0.0320660472,-0.0128657818,-23.9208450317,85.7911224365,-157.9940185547,0.0173226595,0.0265886188,0.0248798132,44.5948066711,39.0249176025,-148.4995880127,0.0593458414,-0.0113515854,-0.0054491162,
315.783,-3.2722954750,1.3933982849,35.1659469604,0.0628912151,0.0468105264,0.0116931200,-97.7526626587,-11.4504928589,51.9418029785,-0.0925641358,-0.0305365920,-0.0083730817,-24.0871124268,85.7985763550,-158.1586151123,0.0227032900,0.0233232379,0.0216634274,44.5961341858,39.0233879089,-148.4919891357,0.0593250990,-0.0172353983,-0.0039828420,
315.793,-3.2716298103,1.3951724768,35.1675758362,0.0629221648,0.0424043611,0.0160867572,-97.6993865967,-11.4678707123,51.7464256287,-0.0982324779,-0.0334035754,-0.0127025843,-24.1945285797,85.8042755127,-158.2641143799,0.0227105618,0.0292734504,0.0262050629,44.5928421021,39.0227203369,-148.4849548340,0.0617574453,-0.0142791867,-0.0045084953,
315.803,-3.2707483768,1.3977241516,35.1680831909,0.0532010645,0.0433655046,0.0072987080,-97.6396102905,-11.4898738861,51.5491867065,-0.0922611654,-0.0387139916,-0.0068907738,-24.3730487823,85.8096389771,-158.4403533936,0.0266236663,0.0221302509,0.0244272351,44.5939483643,39.0187644958,-148.4765930176,0.0739108324,-0.0128555894,-0.0138058662,
315.813,-3.2702648640,1.3976310492,35.1692276001,0.0605236590,0.0418922491,0.0097394586,-97.5758895874,-11.5134363174,51.3538932800,-0.0960821211,-0.0391396880,-0.0138411522,-24.5556354523,85.8190917969,-158.6216430664,0.0246825814,0.0188658834,0.0124682784,44.5964202881,39.0165328979,-148.4672698975,0.0699743032,-0.0158263445,-0.0064756274,
315.823,-3.2709369659,1.3982121944,35.1697616577,0.0576041117,0.0423922166,-0.0034431815,-97.5071487427,-11.5424022675,51.1595802307,-0.0951126218,-0.0410388708,-0.0086726546,-24.7304611206,85.8233566284,-158.7984771729,0.0271294117,0.0185612738,0.0321537852,44.6012001038,39.0134582520,-148.4574279785,0.0713974237,-0.0061305761,-0.0123135448,
315.833,-3.2714545727,1.3976405859,35.1703681946,0.0600355417,0.0448426530,0.0126699209,-97.4422836304,-11.5767707825,50.9685516357,-0.0937471688,-0.0371075273,-0.0112535655,-24.9030666351,85.8280944824,-158.9729919434,0.0242057443,0.0206869245,0.0250014663,44.6009216309,39.0131912231,-148.4506683350,0.0606516600,-0.0158955455,-0.0108533502,
315.843,-3.2719905376,1.3966567516,35.1709175110,0.0634363443,0.0448520184,0.0072992444,-97.3759078979,-11.6097631454,50.7815399170,-0.1026120186,-0.0365878344,-0.0031168163,-25.0615425110,85.8335952759,-159.1342315674,0.0154236555,0.0266976655,0.0300554037,44.5994987488,39.0109443665,-148.4454040527,0.0620860457,-0.0139459968,-0.0001422763,
315.853,-3.2738487720,1.3976693153,35.1726188660,0.0590594783,0.0400015526,0.0141376257,-97.3179092407,-11.6475019455,50.5987701416,-0.0988626480,-0.0336632133,-0.0148597211,-25.2973556519,85.8424911499,-159.3729553223,0.0198294520,0.0239860117,0.0146986246,44.6015281677,39.0087394714,-148.4362335205,0.0620561242,-0.0125177503,-0.0084409714,
315.863,-3.2758824825,1.3991131783,35.1749343872,0.0595729575,0.0458963141,0.0068160295,-97.2646713257,-11.6854610443,50.4154739380,-0.1019528806,-0.0346573591,-0.0152912438,-25.5477600098,85.8465881348,-159.6251678467,0.0198346376,0.0203498006,0.0344301462,44.6079101563,39.0057296753,-148.4252166748,0.0590856075,-0.0145557523,-0.0113334656,
315.873,-3.2767214775,1.3985078335,35.1754608154,0.0620038025,0.0395632870,0.0043747425,-97.2142868042,-11.7215852737,50.2318229675,-0.1035468280,-0.0366292596,-0.0244623050,-25.8073425293,85.8536148071,-159.8853912354,0.0232614875,0.0274424851,0.0298023820,44.6123008728,38.9992446899,-148.4147338867,0.0570445061,-0.0141599178,-0.0045064092,
315.883,-3.2760860920,1.3971790075,35.1767501831,0.0561212450,0.0424819402,0.0048620105,-97.1639328003,-11.7554521561,50.0447769165,-0.0977779031,-0.0302932262,-0.0287494808,-26.0780544281,85.8588180542,-160.1565704346,0.0198500752,0.0243078768,0.0285683274,44.6153106689,38.9919204712,-148.4039154053,0.0667108297,-0.0157102942,-0.0113708377,
315.893,-3.2756898403,1.3961158991,35.1766853333,0.0634269118,0.0439399071,0.0029082298,-97.1027908325,-11.7884435654,49.8523750305,-0.1002947092,-0.0288152695,-0.0136879161,-26.3886756897,85.8627471924,-160.4682006836,0.0188784599,0.0241563618,0.0268551707,44.6200942993,38.9829673767,-148.3913574219,0.0729370117,-0.0168020725,-0.0128601193,
315.903,-3.2746655941,1.3957443237,35.1778793335,0.0590258949,0.0439220704,-0.0000225902,-97.0377655029,-11.8192977905,49.6536140442,-0.1037515402,-0.0258583426,-0.0265230089,-26.6389579773,85.8680496216,-160.7201843262,0.0286507607,0.0253883898,0.0207306743,44.6193962097,38.9731826782,-148.3826904297,0.0674331784,-0.0134527683,-0.0061070323,
315.913,-3.2759313583,1.3949192762,35.1777687073,0.0604763441,0.0317371078,0.0033961535,-96.9688491821,-11.8489189148,49.4496841431,-0.1013278365,-0.0189846158,-0.0179386511,-26.8899879456,85.8731689453,-160.9723663330,0.0174267292,0.0236890316,0.0209587216,44.6185760498,38.9659767151,-148.3754119873,0.0668471456,-0.0198481083,0.0016407967,
315.923,-3.2807359695,1.3955217600,35.1782341003,0.0560923219,0.0274262652,0.0190263987,-96.9078292847,-11.8754940033,49.2475662231,-0.0998286307,-0.0165120363,-0.0141024664,-27.1443367004,85.8785400391,-161.2301330566,0.0154803395,0.0219954252,0.0216701031,44.6207618713,38.9585380554,-148.3693542480,0.0760235190,-0.0184615850,-0.0091377497,
315.933,-3.2767691612,1.3917132616,35.1788558960,0.0731157139,0.0542127192,0.0024192333,-96.8554840088,-11.9029293060,49.0476646423,-0.1017620265,-0.0160146952,-0.0174436122,-27.3780269623,85.8859558105,-161.4710845947,0.0213490129,0.0261148214,0.0189942718,44.6224784851,38.9546585083,-148.3648071289,0.0696231127,-0.0268089771,-0.0091525912,
315.943,-3.2780838013,1.3910232782,35.1805801392,0.0628497750,0.0376340747,0.0126740932,-96.8116531372,-11.9264755249,48.8541908264,-0.0977695882,-0.0287054181,-0.0211265981,-27.6152210236,85.8936233521,-161.7172393799,0.0169640779,0.0209595859,0.0187618136,44.6212425232,38.9519615173,-148.3644561768,0.0637272596,-0.0253528357,-0.0023490191,
315.953,-3.2805767059,1.3937635422,35.1809692383,0.0570382103,0.0357243083,0.0141422153,-96.7781600952,-11.9461135864,48.6644668579,-0.1034760475,-0.0238256454,-0.0153550804,-27.8573055267,85.8972549438,-161.9719696045,0.0277107954,0.0197454393,0.0238459706,44.6250572205,38.9514999390,-148.3620758057,0.0607912540,-0.0185574293,-0.0106168389,
315.963,-3.2803459167,1.3944717646,35.1820983887,0.0575388446,0.0410913639,0.0043773055,-96.7489395142,-11.9609355927,48.4752845764,-0.1076353788,-0.0169840455,-0.0207401291,-28.0506858826,85.9009780884,-162.1788330078,0.0194146633,0.0243338645,0.0240178108,44.6273803711,38.9471092224,-148.3594970703,0.0631730556,-0.0117777586,-0.0013516545,
315.973,-3.2793133259,1.3960275650,35.1831398010,0.0634253696,0.0459561571,0.0121885538,-96.7237472534,-11.9675312042,48.2848091125,-0.1170253456,-0.0193985701,-0.0211706907,-28.2285861969,85.9062805176,-162.3679504395,0.0208861232,0.0288912952,0.0276219249,44.6346015930,38.9441261292,-148.3529052734,0.0626442432,-0.0148001909,-0.0149781108,
315.983,-3.2779843807,1.3968383074,35.1836853027,0.0570918545,0.0449564233,0.0053524375,-96.6951522827,-11.9685249329,48.0902519226,-0.1141126156,-0.0193454623,-0.0187260360,-28.4334068298,85.9104003906,-162.5808105469,0.0169849992,0.0281170011,0.0263429284,44.6367492676,38.9377861023,-148.3482818604,0.0615816712,-0.0134049058,-0.0052414536,
315.993,-3.2782614231,1.3945472240,35.1849098206,0.0658409446,0.0478909947,0.0033984184,-96.6639328003,-11.9573612213,47.8899230957,-0.1241759360,-0.0202200413,-0.0246220976,-28.6283168793,85.9159164429,-162.7802886963,0.0199215412,0.0336663127,0.0275215507,44.6443252563,38.9325256348,-148.3390197754,0.0644399524,-0.0096124411,-0.0091165900,
316.003,-3.2768542767,1.3921837807,35.1861534119,0.0638465807,0.0473782606,0.0004663467,-96.6277084351,-11.9468717575,47.6863784790,-0.1054421067,-0.0181576610,-0.0218145624,-28.8435554504,85.9167251587,-162.9962005615,0.0165045857,0.0246281624,0.0291308165,44.6509742737,38.9239959717,-148.3296508789,0.0682303905,-0.0102306604,-0.0037486553,
316.013,-3.2760734558,1.3927083015,35.1872749329,0.0604377612,0.0429701060,0.0077899694,-96.5786514282,-11.9292716980,47.4766921997,-0.1080712676,-0.0214164257,-0.0158034936,-29.0286884308,85.9185485840,-163.1814270020,0.0189482570,0.0228706896,0.0273200870,44.6572647095,38.9171943665,-148.3201751709,0.0632551312,-0.0118087530,-0.0027649403,
316.023,-3.2768993378,1.3917303085,35.1890830994,0.0613972656,0.0459142067,0.0038840771,-96.5220413208,-11.9092235565,47.2668685913,-0.1135882735,-0.0246526599,-0.0152909011,-29.1968517303,85.9214324951,-163.3516082764,0.0228580832,0.0259676874,0.0235614181,44.6619491577,38.9119682312,-148.3108825684,0.0705084801,-0.0187302232,-0.0120383501,
316.033,-3.2773876190,1.3912423849,35.1902465820,0.0618770309,0.0449461602,0.0087673664,-96.4596633911,-11.8898363113,47.0588378906,-0.1117923260,-0.0264159441,-0.0129243881,-29.3332633972,85.9195098877,-163.4913177490,0.0218791366,0.0188139975,0.0328961611,44.6622657776,38.9080543518,-148.3073272705,0.0660607815,-0.0168102384,-0.0091360211,
316.043,-3.2752525806,1.3917958736,35.1937828064,0.0628632531,0.0453972407,0.0048590899,-96.3914108276,-11.8725709915,46.8545913696,-0.1168685257,-0.0296423435,-0.0067516863,-29.4766864777,85.9222488403,-163.6366271973,0.0316481590,0.0170004964,0.0198434591,44.6638526917,38.9065246582,-148.3026275635,0.0670165420,-0.0168373585,-0.0125507116,
316.053,-3.2759964466,1.3898905516,35.1943855286,0.0623417273,0.0419922732,0.0063240528,-96.3316421509,-11.8596715927,46.6556701660,-0.1166482270,-0.0255771875,-0.0238746926,-29.5643997192,85.9219131470,-163.7266540527,0.0179758668,0.0200315714,0.0345435739,44.6637649536,38.9045028687,-148.2979583740,0.0752898455,-0.0158755183,-0.0052431226,
316.063,-3.2740962505,1.3882142305,35.1961631775,0.0637773201,0.0404943675,0.0024151802,-96.2722549438,-11.8462781906,46.4633560181,-0.1169077307,-0.0278595090,-0.0092533678,-29.6332378387,85.9280166626,-163.7973175049,0.0131006241,0.0303136110,0.0278384686,44.6667213440,38.9025497437,-148.2924957275,0.0718453526,-0.0139661431,-0.0110900998,
316.073,-3.2729856968,1.3886437416,35.1972732544,0.0608551279,0.0419398546,0.0102265477,-96.2168121338,-11.8278608322,46.2742576599,-0.1200110763,-0.0242731571,-0.0072583705,-29.7323608398,85.9340286255,-163.8968505859,0.0135963559,0.0284209251,0.0235971212,44.6707305908,38.9002723694,-148.2846221924,0.0644901991,-0.0120691061,-0.0066741109,
316.083,-3.2777779102,1.3902640343,35.1989021301,0.0545357428,0.0234686099,0.0063257217,-96.1760559082,-11.8100376129,46.0906372070,-0.1167769134,-0.0089982748,-0.0142913908,-29.8652496338,85.9307556152,-164.0282745361,0.0082212090,0.0227379799,0.0324237347,44.6760520935,38.8979530334,-148.2757263184,0.0669000745,-0.0140916705,-0.0085954070,
316.093,-3.2760679722,1.3915859461,35.2000885010,0.0555353723,0.0483411327,0.0087659359,-96.1366500854,-11.7860660553,45.9072303772,-0.1144142449,-0.0293492675,-0.0212988928,-29.9738368988,85.9381713867,-164.1318511963,0.0194608569,0.0359818637,0.0233229995,44.6778755188,38.8939132690,-148.2684478760,0.0644038320,-0.0102339983,-0.0012842417,
316.103,-3.2784886360,1.3924840689,35.2011375427,0.0614104159,0.0381293744,0.0116984844,-96.0948715210,-11.7629833221,45.7264060974,-0.1120667309,-0.0291916132,-0.0215119943,-30.2071075439,85.9371109009,-164.3636627197,0.0502212644,0.0113505721,0.0263853073,44.6825218201,38.8913879395,-148.2587585449,0.0619281530,-0.0098102093,-0.0120026469,
316.113,-3.2799513340,1.3928478956,35.2033958435,0.0633698851,0.0371782817,0.0073056817,-96.0573654175,-11.7380065918,45.5491561890,-0.1131047904,-0.0261057615,-0.0314176604,-30.3243618011,85.9371643066,-164.4797058105,0.0297135115,0.0280812681,0.0367187858,44.6814994812,38.8920974731,-148.2516632080,0.0668205619,-0.0180954933,-0.0149356127,
316.123,-3.2785251141,1.3945585489,35.2044715881,0.0604700521,0.0474072993,0.0048633814,-96.0110092163,-11.7144908905,45.3738403320,-0.1146560311,-0.0332640409,-0.0185248405,-30.4586524963,85.9441070557,-164.6128997803,0.0253275633,0.0228015482,0.0203038454,44.6776771545,38.8915367126,-148.2478485107,0.0653480887,-0.0278286934,-0.0091180801,
316.133,-3.2797868252,1.3952666521,35.2037048340,0.0639003739,0.0444995761,0.0126776099,-95.9663314819,-11.6947793961,45.1969757080,-0.1152957231,-0.0243261456,-0.0266013294,-30.5732269287,85.9486541748,-164.7283935547,0.0204503536,0.0267976522,0.0258130431,44.6760787964,38.8894424438,-148.2428894043,0.0658079386,-0.0161104798,-0.0101253986,
316.143,-3.2787287235,1.3959488869,35.2054023743,0.0600060262,0.0395983122,0.0077941418,-95.9227828979,-11.6802349091,45.0252037048,-0.1155354232,-0.0339637399,-0.0190356746,-30.6813716888,85.9543609619,-164.8368530273,0.0219222307,0.0244270563,0.0205959678,44.6798706055,38.8880653381,-148.2359008789,0.0721368790,-0.0151812434,-0.0115653872,
316.153,-3.2789154053,1.3964461088,35.2077980042,0.0565967336,0.0415546782,0.0112124085,-95.8822937012,-11.6683158875,44.8583793640,-0.1153316945,-0.0304327011,-0.0236264616,-30.8235054016,85.9565429688,-164.9810943604,0.0258311629,0.0231020153,0.0324369073,44.6783485413,38.8875122070,-148.2320098877,0.0628520250,-0.0156590939,-0.0067012906,
316.163,-3.2812757492,1.3982051611,35.2064933777,0.0536977388,0.0406191908,0.0156099796,-95.8425598145,-11.6605110168,44.6962089539,-0.1200811267,-0.0347307920,-0.0189281926,-30.9188499451,85.9610977173,-165.0793151855,0.0209539533,0.0270733535,0.0208484530,44.6841812134,38.8867454529,-148.2239990234,0.0652830601,-0.0049790740,-0.0134872198,
316.173,-3.2808253765,1.3970388174,35.2077636719,0.0575836375,0.0440293401,0.0014487505,-95.8106918335,-11.6539316177,44.5371894836,-0.1209452152,-0.0351405740,-0.0272807479,-31.0023765564,85.9627914429,-165.1647186279,0.0107021332,0.0330112278,0.0365508199,44.6875686646,38.8848686218,-148.2169799805,0.0637927055,-0.0118621588,0.0016672015,
316.183,-3.2807776928,1.3977808952,35.2088050842,0.0639442429,0.0425636545,0.0073086023,-95.7811660767,-11.6476507187,44.3794326782,-0.1193730086,-0.0321381092,-0.0277807042,-31.1772270203,85.9708023071,-165.3414154053,0.0195010304,0.0282521546,0.0162721276,44.6973991394,38.8800201416,-148.2045745850,0.0598205924,-0.0075999498,-0.0124368072,
316.193,-3.2786960602,1.3972626925,35.2087249756,0.0619820729,0.0410625599,0.0156067014,-95.7481460571,-11.6429100037,44.2178802490,-0.1192919761,-0.0315767527,-0.0244343355,-31.3694324493,85.9729843140,-165.5318908691,0.0185271502,0.0240494907,0.0286377668,44.7024230957,38.8762130737,-148.1943054199,0.0626985431,-0.0140255094,-0.0129066706,
316.203,-3.2772495747,1.3990104198,35.2109489441,0.0629891306,0.0429904461,0.0121886730,-95.7117462158,-11.6386632919,44.0543022156,-0.1201959103,-0.0319880247,-0.0314000174,-31.5749721527,85.9758071899,-165.7345581055,0.0219485760,0.0310855210,0.0268619657,44.6986885071,38.8692359924,-148.1890563965,0.0606505871,-0.0179494023,0.0060462952,
316.213,-3.2778890133,1.3988833427,35.2102737427,0.0600572303,0.0425132997,0.0033996105,-95.6720962524,-11.6353883743,43.8884429932,-0.1147688329,-0.0323978066,-0.0257257819,-31.8165359497,85.9800949097,-165.9759674072,0.0209772587,0.0234979689,0.0236682892,44.7024688721,38.8599128723,-148.1791992188,0.0663832426,-0.0107336044,-0.0071742535,
316.223,-3.2751672268,1.3961130381,35.2115440369,0.0653799847,0.0497901775,0.0033960938,-95.6298751831,-11.6364898682,43.7212371826,-0.1128345728,-0.0279362202,-0.0279095992,-32.0774917603,85.9830169678,-166.2354431152,0.0190277100,0.0213151276,0.0214427114,44.7071762085,38.8524971008,-148.1676025391,0.0623762608,-0.0127891898,-0.0159750581,
316.233,-3.2760035992,1.3955936432,35.2121009827,0.0619529523,0.0458985046,0.0112091303,-95.5890655518,-11.6400747299,43.5501098633,-0.1133841127,-0.0317871571,-0.0320228413,-32.3116950989,85.9889678955,-166.4726104736,0.0224529505,0.0254226029,0.0280321240,44.7067337036,38.8442955017,-148.1613311768,0.0730068684,-0.0152896643,-0.0072550774,
316.243,-3.2739522457,1.3973174095,35.2125282288,0.0605181828,0.0409799181,0.0112079382,-95.5364990234,-11.6465873718,43.3764152527,-0.1159368753,-0.0370939374,-0.0251077116,-32.5468139648,85.9965896606,-166.7112121582,0.0058606863,0.0260962844,0.0243932605,44.7082901001,38.8393249512,-148.1531372070,0.0758690834,-0.0114365220,-0.0048364997,
316.253,-3.2773370743,1.3983811140,35.2142333984,0.0566304959,0.0346912034,0.0112117529,-95.4901580811,-11.6569843292,43.2058410645,-0.1170911491,-0.0233828425,-0.0283409804,-32.7655334473,86.0006103516,-166.9365539551,0.0175843239,0.0209237933,0.0265528560,44.7099037170,38.8360786438,-148.1482391357,0.0685006976,-0.0241725445,-0.0082651377,
316.263,-3.2734768391,1.3965288401,35.2148056030,0.0683169290,0.0517138429,-0.0000234246,-95.4355468750,-11.6738014221,43.0323333740,-0.1139606088,-0.0277478099,-0.0234165043,-32.9671173096,86.0060424805,-167.1435852051,0.0200323462,0.0274383724,0.0228608251,44.7106208801,38.8312988281,-148.1445465088,0.0640411973,-0.0144505501,0.0024472475,
316.273,-3.2701816559,1.3933352232,35.2161521912,0.0648432374,0.0560510531,0.0063194036,-95.3916854858,-11.6914339066,42.8607749939,-0.1181682646,-0.0345750451,-0.0329582989,-33.2055969238,86.0142440796,-167.3899993896,0.0312727690,0.0310347080,0.0250955224,44.7158851624,38.8279991150,-148.1363830566,0.0596017838,-0.0125737786,-0.0024108291,
316.283,-3.2700078487,1.3931785822,35.2178268433,0.0648405030,0.0409113094,0.0014365911,-95.3396377563,-11.7090940475,42.6882514954,-0.1170052141,-0.0418785810,-0.0182249844,-33.5120391846,86.0176849365,-167.7057189941,0.0063745975,0.0220527649,0.0253534913,44.7257957458,38.8243827820,-148.1258239746,0.0619940162,-0.0131856799,-0.0072269440,
316.293,-3.2690603733,1.3915753365,35.2190361023,0.0633476824,0.0457776561,0.0009466410,-95.2997512817,-11.7265119553,42.5158920288,-0.1202325821,-0.0355291367,-0.0306285918,-33.8233222961,86.0197982788,-168.0252532959,0.0132130980,0.0262670517,0.0265797973,44.7383575439,38.8149566650,-148.1119232178,0.0574712753,-0.0099616647,-0.0071801543,
316.303,-3.2699425220,1.3909027576,35.2196044922,0.0604062602,0.0413985103,0.0131542683,-95.2556228638,-11.7398862839,42.3408317566,-0.1199728698,-0.0311127901,-0.0235714316,-34.2012557983,86.0223083496,-168.4123992920,0.0185872316,0.0276185572,0.0263920426,44.7497634888,38.8016319275,-148.0993804932,0.0646143556,-0.0091978312,-0.0047329664,
316.313,-3.2682695389,1.3908417225,35.2213401794,0.0628466010,0.0438107699,0.0141290426,-95.2126388550,-11.7506217957,42.1614685059,-0.1216211468,-0.0305956602,-0.0287010223,-34.6088447571,86.0243759155,-168.8272705078,0.0195662975,0.0260716975,0.0247594118,44.7639427185,38.7860183716,-148.0844421387,0.0614722371,-0.0070136786,-0.0100894570,
316.323,-3.2683153152,1.3900443316,35.2212371826,0.0647858158,0.0423467495,0.0068044662,-95.1703033447,-11.7616090775,41.9770622253,-0.1164377779,-0.0193388462,-0.0401673615,-35.0365753174,86.0269393921,-169.2614288330,0.0181045532,0.0211222172,0.0207068920,44.7721214294,38.7704124451,-148.0717163086,0.0685841441,-0.0135604143,-0.0037844777,
316.333,-3.2688546181,1.3931115866,35.2235107422,0.0536088645,0.0384498164,-0.0029593706,-95.1282501221,-11.7701940536,41.7913284302,-0.1224438399,-0.0222344995,-0.0403978601,-35.4297523499,86.0267410278,-169.6637115479,0.0229871273,0.0210432410,0.0273376107,44.7758865356,38.7604980469,-148.0626678467,0.0694257617,-0.0239269733,-0.0091961622,
316.343,-3.2668373585,1.3917782307,35.2240982056,0.0623746663,0.0452506542,0.0033859611,-95.0792465210,-11.7842016220,41.6058273315,-0.1221949011,-0.0202567577,-0.0260998383,-35.8100013733,86.0293045044,-170.0528869629,0.0205488205,0.0189683139,0.0130037665,44.7791290283,38.7479133606,-148.0547485352,0.0799966455,-0.0201488733,0.0009911060,
316.353,-3.2656400204,1.3925261497,35.2234916687,0.0550634935,0.0466946140,0.0097323656,-95.0258789063,-11.8028249741,41.4239540100,-0.1190951169,-0.0226841569,-0.0192017555,-36.0820312500,86.0332565308,-170.3386993408,0.0249481201,0.0240913928,0.0279068947,44.7861022949,38.7463569641,-148.0469055176,0.0682567358,-0.0187634230,-0.0165321827,
316.363,-3.2684614658,1.3901172876,35.2246780396,0.0642988086,0.0389313251,0.0082696080,-94.9748382568,-11.8225688934,41.2452545166,-0.1291979998,-0.0187723041,-0.0249597281,-36.3218841553,86.0378494263,-170.5942687988,0.0220239758,0.0252680779,0.0266814232,44.7916717529,38.7437286377,-148.0420532227,0.0662678480,-0.0183491707,-0.0116164684,
316.373,-3.2682998180,1.3909832239,35.2251739502,0.0608959496,0.0452761427,-0.0024726987,-94.9328689575,-11.8405933380,41.0699996948,-0.1251113862,-0.0192632079,-0.0354452431,-36.5704116821,86.0411071777,-170.8589935303,0.0176333785,0.0230478644,0.0249567032,44.7960853577,38.7414970398,-148.0379486084,0.0618429184,-0.0145027041,0.0001273751,
316.383,-3.2689278126,1.3924953938,35.2267837524,0.0633637384,0.0423573591,0.0033881664,-94.8902587891,-11.8542633057,40.8949050903,-0.1331574023,-0.0221796036,-0.0312919617,-36.7967681885,86.0449676514,-171.1007690430,0.0166614652,0.0315384269,0.0325042009,44.8046417236,38.7415428162,-148.0316314697,0.0584255457,-0.0170264840,-0.0154149532,
316.393,-3.2683148384,1.3921343088,35.2284774780,0.0638457239,0.0379521623,0.0126647949,-94.8454055786,-11.8645105362,40.7149963379,-0.1279613376,-0.0328935981,-0.0325468481,-37.1471214294,86.0500259399,-171.4656677246,0.0274097323,0.0220762491,0.0230692029,44.8151893616,38.7340660095,-148.0245513916,0.0593003035,-0.0098617077,-0.0060943365,
