Time(sec),Gyr1_X(deg/sec),Gyr1_Y(deg/sec),Gyr1_Z(deg/sec),Acc1_X(m/s^2),Acc1_Y(m/s^2),Acc1_Z(m/s^2),Gyr2_X(deg/sec),Gyr2_Y(deg/sec),Gyr2_Z(deg/sec),Acc2_X(m/s^2),Acc2_Y(m/s^2),Acc2_Z(m/s^2),Gyr_X(deg/sec),Gyr_Y(deg/sec),Gyr_Z(deg/sec),Acc_X(m/s^2),Acc_Y(m/s^2),Acc_Z(m/s^2),Gyr_X(deg/sec),Gyr_Y(deg/sec),Gyr_Z(deg/sec),Acc_X(m/s^2),Acc_Y(m/s^2),Acc_Z(m/s^2),
2372.903,-3.2308223248,1.3576687574,-113.4815444946,0.0598263852,0.0441357866,0.0091959238,-113.2832946777,75.5632629395,110.1047439575,0.0338531733,0.0639748573,0.0105929375,-1.2612084150,82.2913589478,25.1000041962,0.0251426697,0.0274007618,0.0279142112,26.4045944214,55.0017433167,105.4187927246,0.0677046776,0.0031468272,-0.0002268553,
2372.913,-3.2303125858,1.3562320471,-113.4796905518,0.0588247553,0.0441269390,0.0067525506,-113.2814025879,75.5618743896,110.1131668091,0.0397065282,0.0586278737,0.0130359530,-1.2602674961,82.2931137085,25.1116237640,0.0300295949,0.0244681537,0.0211102217,26.4089355469,55.0027847290,105.4255218506,0.0725979209,0.0016495585,0.0027348399,
2372.923,-3.2285592556,1.3547806740,-113.4772109985,0.0612408370,0.0440964289,0.0096807480,-113.2873153687,75.5659179688,110.1139221191,0.0338647366,0.0644145161,0.0115678906,-1.2595075369,82.2945861816,25.1213893890,0.0256385207,0.0215361267,0.0211345255,26.4094123840,55.0054893494,105.4317169189,0.0706718564,-0.0017554462,0.0008189082,
2372.933,-3.2281470299,1.3559368849,-113.4755172729,0.0583313257,0.0416478142,0.0072386265,-113.2859954834,75.5659408569,110.1223983765,0.0367945433,0.0561157018,0.0125389695,-1.2703295946,82.2980804443,25.1182270050,0.0212521553,0.0220486969,0.0168002695,26.4099349976,55.0054855347,105.4360275269,0.0779960155,0.0016578138,0.0027742386,
2372.943,-3.2273504734,1.3560565710,-113.4730758667,0.0578451306,0.0450519025,0.0087031126,-113.2923965454,75.5675659180,110.1223373413,0.0460789800,0.0594973862,0.0047413111,-1.2730996609,82.2968368530,25.1224937439,0.0246672034,0.0230322778,0.0260568708,26.4088115692,55.0057983398,105.4378585815,0.0755577683,-0.0007715225,0.0008202195,
2372.953,-3.2269415855,1.3557641506,-113.4718627930,0.0588165894,0.0460213497,0.0018666387,-113.2942504883,75.5712814331,110.1223831177,0.0373060703,0.0579723567,0.0066772699,-1.2743216753,82.2976760864,25.1290073395,0.0266222954,0.0220583230,0.0211865604,26.4093761444,55.0064048767,105.4414138794,0.0770286918,0.0016686916,-0.0055172443,
2372.963,-3.2268223763,1.3569345474,-113.4714126587,0.0622549802,0.0450426862,0.0052846074,-113.2840118408,75.5767593384,110.1353988647,0.0339118838,0.0564403832,0.0168536305,-1.2690536976,82.2962188721,25.1392993927,0.0256423354,0.0279057473,0.0221401900,26.4110946655,55.0077590942,105.4464035034,0.0716711283,0.0026383996,-0.0035392642,
2372.973,-3.2280783653,1.3577014208,-113.4710388184,0.0681277364,0.0401817262,0.0096814036,-113.2925567627,75.5809631348,110.1259307861,0.0407661200,0.0573362708,0.0066059828,-1.2671328783,82.2969131470,25.1451396942,0.0251556635,0.0259478390,0.0197092146,26.4140129089,55.0052223206,105.4500427246,0.0789699554,0.0069906712,0.0071834922,
2372.983,-3.2276711464,1.3574532270,-113.4699401855,0.0632405952,0.0416394919,0.0101684332,-113.2923278809,75.5820236206,110.1255340576,0.0393058658,0.0543913543,0.0070862174,-1.2460513115,82.2955398560,25.1707286835,0.0227110386,0.0288281292,0.0289635658,26.4129886627,55.0062713623,105.4524154663,0.0750741959,-0.0032474101,0.0003564358,
2372.993,-3.2271285057,1.3572989702,-113.4694061279,0.0603082143,0.0401651934,0.0008908510,-113.2939910889,75.5822296143,110.1224365234,0.0378419161,0.0607330799,0.0100212693,-1.2403681278,82.2965011597,25.1830539703,0.0280843973,0.0205135643,0.0162830055,26.4100036621,55.0044097900,105.4524536133,0.0765203834,0.0040917099,0.0076434612,
2373.003,-3.2254354954,1.3569624424,-113.4688415527,0.0612789057,0.0440419577,0.0101664066,-113.2963256836,75.5838165283,110.1196975708,0.0398019552,0.0631459951,0.0144145489,-1.2359372377,82.2956619263,25.1939105988,0.0290589929,0.0239213407,0.0196875334,26.4076995850,55.0065650940,105.4529800415,0.0677529573,-0.0041746795,0.0032662153,
2373.013,-3.2237708569,1.3567112684,-113.4682922363,0.0607862435,0.0440129638,0.0047934651,-113.3042984009,75.5856704712,110.1147384644,0.0417631269,0.0650569052,0.0090631247,-1.2203296423,82.2957382202,25.2168083191,0.0202701092,0.0233961642,0.0211486816,26.4085330963,55.0050315857,105.4564514160,0.0794563293,0.0070385337,0.0008089542,
2373.023,-3.2232470512,1.3548331261,-113.4677124023,0.0646597221,0.0420507565,0.0130928755,-113.3023529053,75.5828018188,110.1196289063,0.0363795757,0.0587563068,0.0100510120,-1.2344300747,82.2941055298,25.2120094299,0.0295436382,0.0229417831,0.0216140747,26.4085102081,55.0065574646,105.4604568481,0.0794715881,-0.0022288561,-0.0011245012,
2373.033,-3.2244536877,1.3544740677,-113.4671020508,0.0568409562,0.0425600633,0.0033285618,-113.3045730591,75.5789794922,110.1233596802,0.0378277898,0.0583239645,0.0120384097,-1.2454590797,82.2954254150,25.2079391479,0.0280818939,0.0234556794,0.0231018960,26.4106349945,55.0053634644,105.4654541016,0.0814127922,0.0089749396,0.0042404532,
2373.043,-3.2233734131,1.3538390398,-113.4658966064,0.0602478459,0.0440061018,0.0086982846,-113.2991714478,75.5762481689,110.1352310181,0.0339096785,0.0583752692,0.0154528618,-1.2280578613,82.2944412231,25.2335109711,0.0285678506,0.0307390988,0.0250360370,26.4091625214,55.0065994263,105.4686355591,0.0701947212,-0.0002812743,0.0047381520,
2373.053,-3.2235908508,1.3554110527,-113.4654006958,0.0588104315,0.0459629819,0.0082108378,-113.2967071533,75.5709838867,110.1445846558,0.0402344465,0.0609017462,0.0086421967,-1.2317365408,82.2918624878,25.2385692596,0.0275852680,0.0253776461,0.0279227793,26.4105567932,55.0053710938,105.4742736816,0.0779948831,-0.0007898808,0.0008224249,
2373.063,-3.2260699272,1.3583115339,-113.4643783569,0.0564196333,0.0401467308,0.0082139373,-113.2991104126,75.5676956177,110.1484375000,0.0392435789,0.0560664237,0.0067205429,-1.2391195297,82.2905197144,25.2393875122,0.0290469527,0.0234425068,0.0278996527,26.4095306396,55.0083961487,105.4757232666,0.0731423497,-0.0007614791,-0.0045145750,
2373.073,-3.2249846458,1.3584766388,-113.4637680054,0.0573990755,0.0440340675,0.0111433864,-113.2973175049,75.5651473999,110.1545715332,0.0392324924,0.0619674921,0.0096599460,-1.2449784279,82.2929077148,25.2403659821,0.0319822431,0.0278500170,0.0167106986,26.4133262634,55.0053749084,105.4810791016,0.0804363489,0.0109040141,0.0062058568,
2373.083,-3.2259783745,1.3584389687,-113.4626693726,0.0622812323,0.0411216952,0.0043076277,-113.2964172363,75.5624313354,110.1596908569,0.0392206907,0.0595696867,0.0106510520,-1.2613375187,82.2946929932,25.2310142517,0.0271036029,0.0210521370,0.0216247439,26.4166755676,55.0052947998,105.4867095947,0.0750644207,0.0055023730,0.0037783384,
2373.093,-3.2250847816,1.3590600491,-113.4627838135,0.0618037879,0.0435475186,0.0023546815,-113.2985763550,75.5611801147,110.1593246460,0.0387269258,0.0595856607,0.0082267523,-1.2521140575,82.2938766479,25.2460594177,0.0256368518,0.0259134471,0.0206324458,26.4202289581,55.0018157959,105.4930038452,0.0813772678,0.0083781183,0.0061911345,
2373.103,-3.2250542641,1.3592303991,-113.4622573853,0.0593653545,0.0425704233,0.0062600970,-113.2791519165,75.5626525879,110.1814804077,0.0377568007,0.0644790828,0.0252286196,-1.2499163151,82.2951736450,25.2565078735,0.0271047354,0.0239546001,0.0230979919,26.4240150452,55.0041389465,105.4996414185,0.0711466074,0.0020112395,-0.0059694648,
2373.113,-3.2265307903,1.3592847586,-113.4605026245,0.0622959882,0.0435727090,0.0101685524,-113.2781219482,75.5637207031,110.1861190796,0.0377614498,0.0649528652,0.0047096014,-1.2561618090,82.2945709229,25.2584724426,0.0305212736,0.0239696205,0.0230872035,26.4230976105,55.0046234131,105.5037994385,0.0745694041,0.0015342534,-0.0040143132,
2373.123,-3.2257440090,1.3595321178,-113.4605331421,0.0569292083,0.0430707149,0.0091909766,-113.2830886841,75.5614776611,110.1860885620,0.0387282372,0.0605846047,0.0071859956,-1.2603657246,82.2937774658,25.2625236511,0.0231952071,0.0230033100,0.0269800425,26.4215431213,55.0058288574,105.5062408447,0.0736049414,-0.0003972352,0.0057602525,
2373.133,-3.2238910198,1.3588808775,-113.4593276978,0.0622889437,0.0488978289,0.0043063164,-113.2863998413,75.5614776611,110.1879959106,0.0318922997,0.0615554452,0.0047578216,-1.2566603422,82.2951736450,25.2739105225,0.0222219229,0.0244588554,0.0196796358,26.4207801819,55.0030136108,105.5087280273,0.0862720609,0.0025213659,0.0018140674,
2373.143,-3.2262938023,1.3595710993,-113.4569931030,0.0579064563,0.0381974727,0.0062619448,-113.2751007080,75.5613021851,110.2024459839,0.0397040248,0.0562059432,0.0193620920,-1.2619110346,82.2942581177,25.2764148712,0.0271025896,0.0200771242,0.0269868821,26.4174461365,55.0008506775,105.5086212158,0.0818558931,0.0025375187,0.0076310635,
2373.153,-3.2259366512,1.3619710207,-113.4546508789,0.0540420786,0.0435622856,0.0052860379,-113.2733612061,75.5653457642,110.2096023560,0.0397216082,0.0629843473,0.0168867111,-1.2472482920,82.2961196899,25.2999763489,0.0261303782,0.0259010494,0.0192083716,26.4195251465,55.0044021606,105.5130767822,0.0701726675,0.0030297041,-0.0050095916,
2373.163,-3.2266359329,1.3613274097,-113.4534912109,0.0623316318,0.0421096459,0.0062630177,-113.2761917114,75.5668563843,110.2136001587,0.0387516618,0.0566068739,0.0134701133,-1.2263337374,82.2970428467,25.3293495178,0.0261325240,0.0263395756,0.0216601044,26.4229755402,55.0043754578,105.5196228027,0.0760318041,0.0069049001,-0.0005998611,
2373.173,-3.2259740829,1.3604903221,-113.4535217285,0.0608521774,0.0425864197,0.0126096606,-113.2714843750,75.5682296753,110.2236022949,0.0353396535,0.0595234036,0.0153951645,-1.2197569609,82.2970581055,25.3462505341,0.0261325836,0.0185114592,0.0275223702,26.4228515625,55.0041198730,105.5252151489,0.0745643973,0.0034863949,0.0047673583,
2373.183,-3.2254652977,1.3603000641,-113.4530105591,0.0628019869,0.0420892760,0.0072380900,-113.2755737305,75.5693130493,110.2246017456,0.0377857685,0.0599879622,0.0144278407,-1.2199902534,82.2993545532,25.3556365967,0.0232082605,0.0214408636,0.0143780559,26.4218444824,55.0064277649,105.5288009644,0.0657984018,0.0025335252,0.0008862615,
2373.193,-3.2254433632,1.3602677584,-113.4519195557,0.0642662644,0.0425771736,0.0008903146,-113.2783126831,75.5718307495,110.2296142578,0.0397498608,0.0614089519,0.0134455562,-1.2148393393,82.2975158691,25.3702487946,0.0202742815,0.0258238763,0.0289947689,26.4244995117,55.0089492798,105.5344009399,0.0726596117,0.0064319670,-0.0015115142,
2373.203,-3.2266066074,1.3613908291,-113.4520416260,0.0579382032,0.0406442881,0.0028449893,-113.2807159424,75.5740051270,110.2354660034,0.0378061533,0.0555120409,0.0134407282,-1.2080864906,82.2946929932,25.3876266479,0.0310098529,0.0267854631,0.0240643322,26.4251174927,55.0086326599,105.5394897461,0.0775392652,0.0088659227,0.0009291768,
2373.213,-3.2262647152,1.3609131575,-113.4502639771,0.0618361197,0.0435680300,0.0052859187,-113.2891159058,75.5750656128,110.2355346680,0.0382990837,0.0603639632,0.0095610619,-1.2044683695,82.2978286743,25.4020519257,0.0241812468,0.0238461047,0.0221635550,26.4247684479,55.0070800781,105.5432815552,0.0716643333,0.0029998124,0.0033491254,
2373.223,-3.2268519402,1.3607575893,-113.4478683472,0.0589037202,0.0401602946,0.0116342306,-113.2874526978,75.5757141113,110.2464981079,0.0348839164,0.0588920265,0.0193157196,-1.2057055235,82.2982330322,25.4102687836,0.0310181379,0.0248254538,0.0216819197,26.4222984314,55.0062713623,105.5451736450,0.0706796646,0.0005753636,0.0057691336,
2373.233,-3.2283515930,1.3606252670,-113.4460678101,0.0564600006,0.0392098613,0.0087055564,-113.2945022583,75.5749359131,110.2472152710,0.0363453627,0.0603563190,0.0095836520,-1.1962897778,82.2986907959,25.4304103851,0.0271129608,0.0262678564,0.0221776366,26.4192104340,55.0071067810,105.5480346680,0.0721528530,-0.0008565187,0.0052773952,
2373.243,-3.2300503254,1.3586007357,-113.4455108643,0.0647254586,0.0387512147,0.0018709302,-113.2890396118,75.5747146606,110.2620849609,0.0373209715,0.0574395061,0.0193287134,-1.2075186968,82.2974700928,25.4310894012,0.0241804123,0.0214120299,0.0280178785,26.4202499390,55.0043830872,105.5534515381,0.0779849887,0.0088824630,0.0067120194,
2373.253,-3.2312316895,1.3611693382,-113.4432525635,0.0579343401,0.0402365848,0.0116387606,-113.2912368774,75.5738296509,110.2685089111,0.0402468443,0.0608672053,0.0100660324,-1.2156579494,82.2995300293,25.4325084686,0.0241852403,0.0219188482,0.0236572623,26.4153442383,55.0040435791,105.5544891357,0.0730987787,-0.0027944446,0.0057092309,
2373.263,-3.2322022915,1.3594021797,-113.4414291382,0.0618097559,0.0412300937,-0.0015445948,-113.2979583740,75.5710144043,110.2700729370,0.0363283157,0.0599227697,0.0032758713,-1.2152738571,82.2998123169,25.4443016052,0.0251624584,0.0224061161,0.0187794715,26.4142322540,55.0060386658,105.5573272705,0.0784898400,-0.0027717352,-0.0084298253,
2373.273,-3.2352724075,1.3583790064,-113.4409484863,0.0637450293,0.0359125100,0.0116410255,-113.3028182983,75.5681991577,110.2734832764,0.0382692218,0.0555634201,0.0028257966,-1.2085180283,82.2968063354,25.4610176086,0.0256437063,0.0287388712,0.0363061428,26.4145412445,55.0031509399,105.5629653931,0.0799257755,0.0064844787,0.0056946874,
2373.283,-3.2366447449,1.3563921452,-113.4409790039,0.0646869242,0.0398427173,0.0072475076,-113.2994766235,75.5682830811,110.2835083008,0.0392461419,0.0624039471,0.0140423775,-1.2239907980,82.2972946167,25.4554767609,0.0261331201,0.0248690546,0.0241082013,26.4173660278,55.0025253296,105.5698394775,0.0808961391,0.0069434345,-0.0045546889,
2373.293,-3.2369792461,1.3561418056,-113.4379959106,0.0593114607,0.0388719887,0.0101773143,-113.2976989746,75.5658645630,110.2912292480,0.0455832481,0.0546319187,0.0116098523,-1.2298456430,82.2958374023,25.4596920013,0.0290594101,0.0229302943,0.0279911757,26.4168834686,55.0035324097,105.5738220215,0.0838358402,-0.0003700256,0.0003389716,
2373.303,-3.2372376919,1.3550571203,-113.4368286133,0.0617339425,0.0393647924,0.0062708855,-113.3079452515,75.5642700195,110.2878189087,0.0387403965,0.0575685203,0.0033608675,-1.2258405685,82.2913589478,25.4732704163,0.0261192322,0.0229224861,0.0352366269,26.4176635742,55.0000076294,105.5764160156,0.0779411793,0.0069247782,0.0076214075,
2373.313,-3.2392587662,1.3535791636,-113.4362792969,0.0631729960,0.0374469124,0.0111551285,-113.2998123169,75.5634765625,110.3029937744,0.0465494394,0.0551540554,0.0174937248,-1.2217540741,82.2901611328,25.4874916077,0.0275812745,0.0234015137,0.0191037953,26.4133720398,54.9968986511,105.5792694092,0.0803514719,0.0010841191,0.0090273619,
2373.323,-3.2386107445,1.3528655767,-113.4344558716,0.0607191399,0.0467129834,0.0106658340,-113.2985916138,75.5643539429,110.3125610352,0.0353227854,0.0624655187,0.0145533085,-1.2214612961,82.2895736694,25.4973506927,0.0275799036,0.0214478821,0.0273960680,26.4168872833,54.9989509583,105.5866851807,0.0686532855,0.0049718916,-0.0041142702,
2373.333,-3.2393734455,1.3520213366,-113.4320983887,0.0631458163,0.0418434739,0.0028538108,-113.3005523682,75.5632095337,110.3208770752,0.0397123694,0.0590636730,0.0067561269,-1.2097861767,82.2921981812,25.5178432465,0.0236797929,0.0287435204,0.0176737010,26.4229736328,54.9954452515,105.5953674316,0.0813134909,0.0083130300,-0.0012022257,
2373.343,-3.2407536507,1.3512351513,-113.4309158325,0.0606906936,0.0418675356,0.0062728524,-113.3141632080,75.5604171753,110.3161926270,0.0362822413,0.0561519712,0.0048763752,-1.2079739571,82.2935256958,25.5300159454,0.0290539861,0.0204380304,0.0215987861,26.4202079773,54.9980125427,105.5986633301,0.0701087117,0.0000533164,-0.0002052188,
2373.353,-3.2417173386,1.3524580002,-113.4298477173,0.0577823445,0.0370014869,0.0013913512,-113.3210296631,75.5596923828,110.3174209595,0.0382322073,0.0561536252,0.0078383684,-1.1944085360,82.2929611206,25.5554962158,0.0222167373,0.0267537236,0.0259862244,26.4192657471,54.9992218018,105.6018218994,0.0764684677,0.0025108159,0.0032233596,
2373.363,-3.2401938438,1.3515446186,-113.4293060303,0.0631375015,0.0413694978,0.0057841539,-113.3141937256,75.5612030029,110.3315963745,0.0338442326,0.0585812330,0.0190314651,-1.1881382465,82.2924499512,25.5742969513,0.0212389827,0.0257624835,0.0284194797,26.4173355103,54.9990158081,105.6039810181,0.0750015378,0.0010620058,0.0027244687,
2373.373,-3.2390582561,1.3516637087,-113.4275741577,0.0616747327,0.0442793928,-0.0005646944,-113.3132858276,75.5614471436,110.3397598267,0.0372632742,0.0610211641,0.0146315098,-1.1791131496,82.2934494019,25.5922603607,0.0285655260,0.0252525061,0.0245285481,26.4165611267,55.0004501343,105.6076202393,0.0706213713,0.0025428236,-0.0016557574,
2373.383,-3.2378180027,1.3517984152,-113.4276275635,0.0592356771,0.0447460711,0.0023638606,-113.3112335205,75.5614624023,110.3524093628,0.0377516150,0.0590707809,0.0180412531,-1.1717358828,82.2954254150,25.6109848022,0.0261287689,0.0257226229,0.0191914439,26.4134731293,55.0017089844,105.6079864502,0.0764933825,-0.0032807589,0.0056713223,
2373.393,-3.2409365177,1.3510288000,-113.4277038574,0.0601988100,0.0360113569,0.0009018183,-113.3217926025,75.5620269775,110.3528366089,0.0348243713,0.0600210428,0.0088025928,-1.1793202162,82.2978744507,25.6111145020,0.0227165222,0.0213451833,0.0138623416,26.4124774933,55.0047645569,105.6112442017,0.0667583346,0.0001655519,0.0003347993,
2373.403,-3.2405378819,1.3519781828,-113.4271774292,0.0563091263,0.0418637656,-0.0039814115,-113.3363342285,75.5607681274,110.3510894775,0.0357954502,0.0595271736,0.0069162846,-1.1852229834,82.2999191284,25.6152305603,0.0251626968,0.0252646804,0.0212216377,26.4115371704,55.0051155090,105.6155319214,0.0701798201,0.0035942495,0.0018002987,
2373.413,-3.2375278473,1.3515341282,-113.4258956909,0.0572779402,0.0486472696,0.0038286448,-113.3426361084,75.5574340820,110.3561935425,0.0377340913,0.0595671386,0.0118466616,-1.1821798086,82.3014221191,25.6301841736,0.0183302760,0.0262335241,0.0222232193,26.4087104797,55.0069351196,105.6179580688,0.0741043091,-0.0017399490,0.0032752752,
2373.423,-3.2381830215,1.3507164717,-113.4253387451,0.0606816411,0.0423110500,0.0062697530,-113.3511123657,75.5597915649,110.3585586548,0.0411623120,0.0619579405,0.0133296847,-1.1917839050,82.2985458374,25.6309528351,0.0280891657,0.0296752006,0.0329182744,26.4106979370,55.0045547485,105.6232833862,0.0794515610,0.0050631166,0.0017898679,
2373.433,-3.2369871140,1.3510884047,-113.4241180420,0.0562936030,0.0466847420,-0.0044732690,-113.3675308228,75.5596542358,110.3519897461,0.0401851535,0.0633963346,0.0050957203,-1.2190967798,82.2988739014,25.6153392792,0.0266250968,0.0243686140,0.0246237218,26.4110279083,55.0027847290,105.6279296875,0.0765041113,0.0011424720,0.0076269507,
2373.443,-3.2379255295,1.3497979641,-113.4229049683,0.0601773337,0.0413300246,0.0023631454,-113.3769760132,75.5615310669,110.3517150879,0.0353105068,0.0604210794,0.0080507398,-1.2265806198,82.2960128784,25.6160163879,0.0275949836,0.0253639519,0.0250617564,26.4079513550,55.0032234192,105.6306152344,0.0686960220,0.0006846786,0.0066428781,
2373.453,-3.2388334274,1.3480195999,-113.4204788208,0.0620994307,0.0413458832,0.0018750429,-113.3901290894,75.5597229004,110.3476791382,0.0299315453,0.0574972034,-0.0026265979,-1.2554190159,82.2981338501,25.5952949524,0.0246702433,0.0200602710,0.0182658434,26.4122333527,55.0027847290,105.6393127441,0.0808986425,0.0079677105,-0.0021327734,
2373.463,-3.2396435738,1.3486547470,-113.4187469482,0.0601573847,0.0438013822,0.0072470903,-113.3907165527,75.5588607788,110.3559036255,0.0401816964,0.0521378219,0.0032410622,-1.2557437420,82.3016510010,25.6050491333,0.0232136250,0.0259191096,0.0188132226,26.4111938477,55.0013694763,105.6417160034,0.0769782662,0.0030851960,0.0056569576,
2373.473,-3.2405390739,1.3475780487,-113.4175338745,0.0596503206,0.0413756035,0.0087126493,-113.3688201904,75.5612411499,110.3866043091,0.0406803489,0.0545802414,0.0251098275,-1.2666567564,82.3007583618,25.6006565094,0.0183287263,0.0191093236,0.0217279047,26.4141902924,55.0020561218,105.6488952637,0.0813796520,0.0050157905,-0.0075045228,
2373.483,-3.2441761494,1.3478929996,-113.4163665771,0.0547730029,0.0360678621,0.0087159872,-113.3696899414,75.5610122681,110.3925857544,0.0367730856,0.0540940911,0.0060719252,-1.2754088640,82.2984390259,25.5964756012,0.0266240835,0.0210840255,0.0251068622,26.4140319824,55.0013580322,105.6523361206,0.0823492408,0.0020831227,0.0032280087,
2373.493,-3.2411358356,1.3485901356,-113.4152450562,0.0621093847,0.0487101935,0.0111548901,-113.3548278809,75.5626373291,110.4099731445,0.0421512723,0.0570243299,0.0138139129,-1.2900403738,82.2982330322,25.5851192474,0.0261353254,0.0220952779,0.0221745223,26.4124603271,55.0020942688,105.6521759033,0.0672198534,0.0021019280,0.0071367025,
2373.503,-3.2427113056,1.3499522209,-113.4159469604,0.0548089333,0.0414133891,0.0013909340,-113.3543243408,75.5642852783,110.4095611572,0.0362990499,0.0618832707,0.0055000782,-1.2982794046,82.2964019775,25.5778388977,0.0251544714,0.0196740776,0.0216550976,26.4122562408,54.9999542236,105.6542892456,0.0833117366,0.0040432215,0.0017372370,
2373.513,-3.2407121658,1.3509622812,-113.4166259766,0.0582445264,0.0452847891,0.0038316846,-113.3601455688,75.5615844727,110.3991928101,0.0328693390,0.0555665493,-0.0042241812,-1.3066793680,82.2947463989,25.5721015930,0.0202677846,0.0226242691,0.0216282606,26.4118671417,54.9986152649,105.6560440063,0.0740210414,0.0001319647,0.0080659986,
2373.523,-3.2418048382,1.3491775990,-113.4160385132,0.0616313517,0.0409093387,-0.0015396476,-113.3463516235,75.5633850098,110.4054489136,0.0319005847,0.0614222437,0.0147515535,-1.2938048840,82.2910003662,25.5864372253,0.0266066790,0.0274780691,0.0303517729,26.4138793945,54.9982643127,105.6609191895,0.0759706497,0.0015764832,-0.0026717186,
2373.533,-3.2411794662,1.3488153219,-113.4154281616,0.0572305024,0.0423632935,0.0150611997,-113.3453598022,75.5598983765,110.4011383057,0.0392096639,0.0522002429,0.0001222491,-1.3040727377,82.2876892090,25.5774421692,0.0275754929,0.0250622332,0.0259029269,26.4128093719,54.9979438782,105.6613388062,0.0691314936,0.0020723641,0.0065967441,
2373.543,-3.2409002781,1.3488974571,-113.4154663086,0.0596733391,0.0477295220,0.0096901655,-113.3323440552,75.5581512451,110.4060745239,0.0357840657,0.0537146330,0.0093590617,-1.3218741417,82.2869033813,25.5581951141,0.0222025514,0.0163156688,0.0249127448,26.4098854065,54.9998016357,105.6597595215,0.0637789965,-0.0017958283,0.0017246604,
2373.553,-3.2409560680,1.3511635065,-113.4162521362,0.0582480356,0.0423593447,0.0072492957,-113.3181991577,75.5594635010,110.4125289917,0.0406726003,0.0615313202,0.0088051558,-1.3363887072,82.2857055664,25.5412254333,0.0295239687,0.0256278515,0.0204998702,26.4074726105,55.0008163452,105.6571502686,0.0691602230,-0.0017677844,-0.0002261996,
2373.563,-3.2410624027,1.3508399725,-113.4144897461,0.0611720793,0.0399198011,0.0018789768,-113.2980957031,75.5619277954,110.4208755493,0.0318942666,0.0566450059,0.0131025314,-1.3513027430,82.2818908691,25.5258274078,0.0217025280,0.0241999030,0.0248287022,26.4101123810,54.9970893860,105.6582565308,0.0813299417,0.0030676126,0.0075498819,
2373.573,-3.2405295372,1.3512115479,-113.4133453369,0.0567840301,0.0399105102,0.0106667876,-113.2730636597,75.5630874634,110.4316787720,0.0328758955,0.0581352562,0.0154356956,-1.3720424175,82.2806701660,25.5082340240,0.0270707607,0.0232730061,0.0169964284,26.4067745209,54.9946861267,105.6555175781,0.0798410177,0.0006410182,0.0075052381,
2373.583,-3.2410187721,1.3515594006,-113.4110260010,0.0616729110,0.0404073074,0.0179919600,-113.2614517212,75.5658187866,110.4291915894,0.0358174443,0.0639718920,0.0095115304,-1.3689891100,82.2801132202,25.5157718658,0.0251163244,0.0266839713,0.0238223076,26.4054698944,54.9933815002,105.6560668945,0.0793396831,-0.0017970800,0.0030873418,
2373.593,-3.2406716347,1.3526271582,-113.4104537964,0.0563204512,0.0457723252,0.0092030168,-113.2381744385,75.5669555664,110.4399337769,0.0338692665,0.0664366037,0.0216175914,-1.3726693392,82.2813568115,25.5207481384,0.0285372138,0.0276687294,0.0189621150,26.4088745117,54.9954109192,105.6595840454,0.0754537582,0.0020916164,-0.0022416711,
2373.603,-3.2403094769,1.3530329466,-113.4086761475,0.0587689355,0.0457660109,0.0057848692,-113.2369842529,75.5676116943,110.4329071045,0.0372900963,0.0737521052,0.0137960911,-1.3794671297,82.2848129272,25.5263385773,0.0261039138,0.0281717032,0.0204863250,26.4124908447,54.9990539551,105.6677322388,0.0715839863,0.0001291335,-0.0075510740,
2373.613,-3.2402350903,1.3511534929,-113.4074783325,0.0645955205,0.0447881967,0.0082254410,-113.2395401001,75.5677490234,110.4351196289,0.0324078798,0.0742344856,0.0177115798,-1.3862400055,82.2839813232,25.5361766815,0.0334261656,0.0296529680,0.0277951062,26.4171485901,55.0022697449,105.6795883179,0.0779638290,-0.0008686781,-0.0070000291,
2373.623,-3.2418296337,1.3505096436,-113.4075317383,0.0601897500,0.0389566086,0.0131095648,-113.2443695068,75.5630340576,110.4446029663,0.0367819071,0.0742982626,0.0216684937,-1.4019010067,82.2844848633,25.5376586914,0.0261031389,0.0282250047,0.0302473456,26.4217910767,55.0015449524,105.6894912720,0.0686792135,0.0054326653,0.0086358786,
2373.633,-3.2396488190,1.3494114876,-113.4058074951,0.0660299659,0.0457545817,0.0023643970,-113.2519149780,75.5589981079,110.4569931030,0.0392057300,0.0694655925,0.0124482512,-1.4175828695,82.2881240845,25.5375900269,0.0251350999,0.0214246660,0.0239639133,26.4275970459,55.0009346008,105.7027893066,0.0725793839,0.0034236014,0.0018180609,
2373.643,-3.2397761345,1.3509509563,-113.4053115845,0.0592208877,0.0418505147,0.0170144439,-113.2492752075,75.5527038574,110.4785995483,0.0367369056,0.0549192578,0.0144326687,-1.4418580532,82.2923736572,25.5311679840,0.0256333351,0.0268514603,0.0137825310,26.4304313660,54.9989700317,105.7127532959,0.0813487768,0.0058270693,0.0018054247,
2373.653,-3.2400777340,1.3503860235,-113.4041213989,0.0577461906,0.0413675010,0.0052950382,-113.2426834106,75.5479431152,110.5011215210,0.0347630382,0.0550034791,0.0129730701,-1.4568567276,82.2918395996,25.5312652588,0.0241672397,0.0190746933,0.0279346257,26.4345531464,54.9986381531,105.7235260010,0.0793923140,0.0028582811,0.0037726760,
2373.663,-3.2413411140,1.3485798836,-113.4017028809,0.0625974834,0.0399247035,0.0126200318,-113.2388458252,75.5463867188,110.5143737793,0.0391508341,0.0521050841,0.0080850124,-1.4878998995,82.2928085327,25.5120506287,0.0285640359,0.0206125975,0.0176991224,26.4332485199,54.9949302673,105.7278442383,0.0813083649,0.0047995746,0.0090905428,
2373.673,-3.2412493229,1.3468930721,-113.4017333984,0.0635446161,0.0428528339,0.0048067570,-113.2313308716,75.5495681763,110.5255813599,0.0347701311,0.0584165603,0.0124281645,-1.4805921316,82.2929077148,25.5307769775,0.0261228681,0.0235249549,0.0216060877,26.4299430847,54.9915313721,105.7282791138,0.0788328648,0.0018778443,0.0036611557,
2373.683,-3.2409622669,1.3450165987,-113.3992919922,0.0625353158,0.0433361605,0.0043174624,-113.2202911377,75.5552368164,110.5397033691,0.0396776199,0.0598127842,0.0142993927,-1.4884568453,82.2914047241,25.5311698914,0.0310021639,0.0211028010,0.0235354900,26.4308471680,54.9929847717,105.7323913574,0.0754294991,-0.0005623102,-0.0007101893,
2373.693,-3.2418398857,1.3468116522,-113.3988113403,0.0557306968,0.0394451544,0.0033423901,-113.2062683105,75.5625457764,110.5568847656,0.0392211676,0.0597235113,0.0146827698,-1.4940385818,82.2949676514,25.5356407166,0.0271042585,0.0255089998,0.0118760020,26.4252967834,54.9934425354,105.7308197021,0.0749458075,-0.0029509664,0.0017123222,
2373.703,-3.2439510822,1.3506416082,-113.3972091675,0.0533561185,0.0370404422,0.0106697679,-113.2147598267,75.5714340210,110.5545578003,0.0334004760,0.0659188181,0.0092867613,-1.5030961037,82.2931671143,25.5348453522,0.0246586204,0.0206483901,0.0255196393,26.4295845032,54.9937858582,105.7370605469,0.0729961395,0.0092197061,0.0056415200,
2373.713,-3.2455503941,1.3510253429,-113.3954696655,0.0611753091,0.0409745425,0.0111606717,-113.2161178589,75.5752334595,110.5601730347,0.0363466740,0.0541391522,0.0131734014,-1.4976507425,82.2937011719,25.5515022278,0.0246598721,0.0289360732,0.0225973278,26.4302730560,54.9919548035,105.7430038452,0.0798137188,0.0077370703,0.0065980554,
2373.723,-3.2461864948,1.3508993387,-113.3961410522,0.0558020212,0.0361028165,0.0038362741,-113.2267303467,75.5802383423,110.5612564087,0.0388098359,0.0599028319,0.0073233843,-1.5081025362,82.2941055298,25.5515613556,0.0256373882,0.0274957865,0.0245578885,26.4311637878,54.9922180176,105.7478179932,0.0744452477,0.0033361018,-0.0012076497,
2373.733,-3.2448344231,1.3510388136,-113.3955459595,0.0572692975,0.0429151990,0.0043240786,-113.2357940674,75.5851669312,110.5660095215,0.0378546715,0.0602992922,0.0141628385,-1.5146847963,82.2949523926,25.5543880463,0.0266159177,0.0245812982,0.0187131613,26.4356842041,54.9922943115,105.7555389404,0.0759108067,0.0067140460,-0.0021626353,
2373.743,-3.2458112240,1.3488024473,-113.3955307007,0.0611365251,0.0434205420,0.0033466816,-113.2464447021,75.5860519409,110.5668716431,0.0383468270,0.0553846657,0.0078520179,-1.5175209045,82.2956161499,25.5603141785,0.0251526237,0.0260525495,0.0216546357,26.4342479706,54.9942550659,105.7582626343,0.0642117262,-0.0005847812,0.0066451430,
2373.753,-3.2442383766,1.3481035233,-113.3956069946,0.0645423010,0.0458345674,0.0092046857,-113.2559585571,75.5867691040,110.5681610107,0.0422561765,0.0534041524,0.0083736777,-1.5289821625,82.2976760864,25.5577011108,0.0266222954,0.0221724659,0.0207145512,26.4363346100,54.9945144653,105.7641906738,0.0783745050,0.0042809546,-0.0026196241,
2373.763,-3.2450156212,1.3468502760,-113.3950500488,0.0620790273,0.0419418849,0.0028568506,-113.2710189819,75.5856933594,110.5614624023,0.0373687148,0.0558362603,0.0055115819,-1.5285598040,82.2975463867,25.5645885468,0.0280868411,0.0221715122,0.0216895938,26.4349250793,54.9943733215,105.7658309937,0.0764199495,0.0042926967,0.0046964884,
2373.773,-3.2444429398,1.3465290070,-113.3944473267,0.0591437332,0.0443733260,0.0121343136,-113.2727813721,75.5872726440,110.5660629272,0.0383521318,0.0562970936,0.0138089061,-1.5278302431,82.2994613647,25.5730400085,0.0227202177,0.0231455117,0.0202557147,26.4344158173,54.9914627075,105.7681427002,0.0837150216,0.0008607805,0.0090515614,
2373.783,-3.2444500923,1.3487710953,-113.3940505981,0.0582062937,0.0404671431,-0.0034906864,-113.2853851318,75.5858993530,110.5576858521,0.0368813276,0.0533667058,0.0016614795,-1.5262448788,82.2976455688,25.5809993744,0.0285753608,0.0246074200,0.0231547952,26.4353103638,54.9880142212,105.7711257935,0.0807508230,0.0066902339,0.0099879503,
2373.793,-3.2451086044,1.3465397358,-113.3928680420,0.0679329783,0.0443849228,0.0072520971,-113.2763442993,75.5835342407,110.5716552734,0.0344296098,0.0587904602,0.0133597851,-1.5168315172,82.2973175049,25.5987987518,0.0232034922,0.0231204629,0.0255897492,26.4330101013,54.9869880676,105.7733535767,0.0734162927,0.0057277381,0.0094762444,
2373.803,-3.2440288067,1.3447312117,-113.3898315430,0.0625303313,0.0438778698,0.0072497725,-113.2828826904,75.5810623169,110.5691604614,0.0412548184,0.0632119626,0.0114493370,-1.5154983997,82.2971191406,25.6109085083,0.0217381716,0.0226290971,0.0250989050,26.4298381805,54.9865989685,105.7745437622,0.0719475746,0.0028240681,0.0040859580,
2373.813,-3.2449028492,1.3465452194,-113.3892898560,0.0537729226,0.0414516479,0.0116461515,-113.2903289795,75.5764312744,110.5678482056,0.0368401408,0.0657121539,0.0090686083,-1.5150728226,82.2988967896,25.6213760376,0.0300431252,0.0260452777,0.0236634463,26.4296569824,54.9860992432,105.7784881592,0.0792667866,0.0062405169,0.0016373992,
2373.823,-3.2462170124,1.3460134268,-113.3881072998,0.0601112992,0.0419628397,0.0150651932,-113.3016128540,75.5729980469,110.5643920898,0.0319424272,0.0652566701,0.0086483955,-1.5098340511,82.2975158691,25.6379356384,0.0241805315,0.0245686322,0.0265707225,26.4285373688,54.9895172119,105.7823257446,0.0705119371,0.0018777847,-0.0041831136,
2373.833,-3.2472610474,1.3469733000,-113.3863906860,0.0586632080,0.0410044342,-0.0029997826,-113.3023986816,75.5641784668,110.5726928711,0.0436227918,0.0590442419,0.0116400719,-1.5192476511,82.2983856201,25.6368465424,0.0256474018,0.0206842870,0.0231669247,26.4313812256,54.9887313843,105.7911300659,0.0827111006,0.0033120513,0.0002139211,
2373.843,-3.2448518276,1.3486754894,-113.3864898682,0.0582046248,0.0487749241,0.0072525144,-113.3074874878,75.5580215454,110.5770034790,0.0387132168,0.0552250445,0.0136545897,-1.5203955173,82.2999191284,25.6477355957,0.0246744156,0.0221511424,0.0251465738,26.4319400787,54.9896316528,105.7974395752,0.0675833821,0.0052658916,0.0070640445,
2373.853,-3.2455332279,1.3491615057,-113.3859481812,0.0562599786,0.0399977267,0.0106708407,-113.3138809204,75.5523147583,110.5779647827,0.0372235179,0.0577427000,0.0054174066,-1.5289647579,82.3001480103,25.6498069763,0.0285812020,0.0241244435,0.0163613856,26.4319934845,54.9899406433,105.8020553589,0.0758872628,0.0023376644,-0.0022095442,
2373.863,-3.2434091568,1.3499641418,-113.3848571777,0.0616450757,0.0433786623,0.0087164044,-113.3065109253,75.5503463745,110.5902481079,0.0357500911,0.0587629229,0.0127252340,-1.5147426128,82.3016204834,25.6708965302,0.0300495028,0.0309260637,0.0202927291,26.4323272705,54.9886817932,105.8058929443,0.0753864050,0.0037916005,0.0046123862,
2373.873,-3.2424106598,1.3519996405,-113.3831253052,0.0553329363,0.0458026305,0.0096924901,-113.2951354980,75.5506286621,110.6030807495,0.0328216553,0.0568249524,0.0180487037,-1.5103354454,82.3015213013,25.6834125519,0.0276078582,0.0289625674,0.0198021978,26.4255599976,54.9878997803,105.8041458130,0.0748902559,-0.0034769177,0.0065252185,
2373.883,-3.2431273460,1.3524224758,-113.3825378418,0.0538754761,0.0380026102,-0.0044665933,-113.2862091064,75.5519104004,110.6137695313,0.0396631360,0.0597505122,0.0140981674,-1.5083006620,82.3007278442,25.6925239563,0.0295591354,0.0230987370,0.0217416584,26.4201335907,54.9882431030,105.8039855957,0.0724523067,-0.0039144754,0.0050394535,
2373.893,-3.2416532040,1.3531950712,-113.3802566528,0.0641428530,0.0453011319,0.0087159872,-113.2842254639,75.5529861450,110.6155700684,0.0303905010,0.0563192964,0.0101766586,-1.5155105591,82.3001480103,25.6922130585,0.0285812020,0.0250691772,0.0231970400,26.4236679077,54.9874114990,105.8099288940,0.0739088058,0.0053260028,-0.0032550693,
2373.903,-3.2412261963,1.3520971537,-113.3791122437,0.0636354238,0.0418757536,-0.0010505319,-113.2772979736,75.5545043945,110.6220626831,0.0406510234,0.0621670187,0.0091622472,-1.4968693256,82.2993087769,25.7210369110,0.0285792351,0.0260020196,0.0285530537,26.4231052399,54.9892539978,105.8130416870,0.0744155645,-0.0005166531,-0.0003044605,
2373.913,-3.2435986996,1.3537011147,-113.3798522949,0.0563391894,0.0384990759,0.0092062950,-113.2744750977,75.5588226318,110.6315765381,0.0362752676,0.0689410269,0.0169346929,-1.4832903147,82.2996368408,25.7459335327,0.0290682912,0.0284111947,0.0226968825,26.4180259705,54.9896583557,105.8140945435,0.0666071177,-0.0019333065,0.0099321008,
2373.923,-3.2420320511,1.3544390202,-113.3804473877,0.0548872203,0.0501905121,0.0023690462,-113.2873382568,75.5615310669,110.6317062378,0.0357987881,0.0732712895,0.0115971565,-1.4862576723,82.2984619141,25.7579956055,0.0217413306,0.0225593299,0.0304909050,26.4160442352,54.9914207458,105.8175201416,0.0749255419,-0.0048340559,-0.0032379031,
2373.933,-3.2416284084,1.3545708656,-113.3793182373,0.0617254600,0.0438358225,0.0052983761,-113.2899627686,75.5633926392,110.6494674683,0.0323889256,0.0620076358,0.0135483742,-1.4950331450,82.3005523682,25.7659053802,0.0305352807,0.0269736946,0.0202729702,26.4142093658,54.9943008423,105.8219146729,0.0676301122,0.0000834763,-0.0007682443,
2373.943,-3.2403380871,1.3544456959,-113.3775100708,0.0583053045,0.0447899140,0.0004145503,-113.2948379517,75.5628280640,110.6677398682,0.0377575755,0.0615197122,0.0174779296,-1.4973081350,82.2999877930,25.7797069550,0.0285808444,0.0274675786,0.0251476765,26.4131889343,54.9969596863,105.8269424438,0.0666801929,-0.0003787279,-0.0051329136,
2373.953,-3.2407650948,1.3550183773,-113.3770065308,0.0602684245,0.0408910885,0.0111572742,-113.3093719482,75.5613098145,110.6756439209,0.0436103344,0.0527295917,0.0107105970,-1.5035853386,82.3025665283,25.7878112793,0.0276103020,0.0250398964,0.0193309784,26.4118919373,55.0008659363,105.8309478760,0.0696489811,-0.0008305013,-0.0055769682,
2373.963,-3.2405016422,1.3546047211,-113.3752899170,0.0636791736,0.0433279127,0.0033442378,-113.3126373291,75.5605926514,110.6901626587,0.0475134850,0.0581051260,0.0112167001,-1.5163470507,82.3063125610,25.7864723206,0.0266425014,0.0187206864,0.0169559270,26.4075222015,55.0002326965,105.8327865601,0.0794082880,-0.0003070831,0.0041610599,
2373.973,-3.2380816936,1.3551386595,-113.3735504150,0.0627119243,0.0486568362,0.0087132454,-113.3134994507,75.5600509644,110.7002868652,0.0406751633,0.0503000766,0.0175715685,-1.5267031193,82.3055801392,25.7877445221,0.0251759291,0.0153275579,0.0203603506,26.4039936066,55.0022926331,105.8334884644,0.0725929737,-0.0002622604,0.0051485300,
2373.983,-3.2376003265,1.3561221361,-113.3718032837,0.0588228367,0.0462070219,0.0038302541,-113.3061904907,75.5586395264,110.6990814209,0.0348096490,0.0337330401,0.0048562288,-1.4982134104,82.3053436279,25.8213043213,0.0300582051,0.0323501527,0.0198674351,26.4012718201,55.0050315857,105.8327102661,0.0760383606,-0.0007088780,0.0095653534,
2373.993,-3.2391004562,1.3558505774,-113.3706588745,0.0612595081,0.0413503535,0.0126208067,-113.3084030151,75.5640487671,110.6782379150,0.0465519428,0.0556176454,0.0018993616,-1.5009114742,82.3015975952,25.8220005035,0.0251666307,0.0211277455,0.0261509120,26.4000282288,55.0050926208,105.8328704834,0.0779920816,0.0051620901,-0.0031344891,
2374.003,-3.2415461540,1.3534659147,-113.3688812256,0.0641475916,0.0360219143,0.0033448339,-113.3000335693,75.5737609863,110.6707611084,0.0358520150,0.0642714202,0.0169377327,-1.5003509521,82.2970886230,25.8228988647,0.0266209245,0.0211284459,0.0285148472,26.3949661255,55.0039978027,105.8282318115,0.0726100206,-0.0006587505,0.0148957372,
2374.013,-3.2404961586,1.3524627686,-113.3665008545,0.0655949265,0.0482106805,-0.0030043125,-113.3003845215,75.5828170776,110.6617050171,0.0324733853,0.0685246587,0.0188320279,-1.4944667816,82.2947158813,25.8283996582,0.0275919437,0.0255101025,0.0231032670,26.3971786499,55.0053520203,105.8320159912,0.0731118917,0.0095839202,-0.0007020831,
2374.023,-3.2392730713,1.3552658558,-113.3654556274,0.0568547696,0.0423299298,0.0111557841,-113.3221130371,75.5873184204,110.6399765015,0.0324929357,0.0708601922,0.0047289133,-1.4806822538,82.2942047119,25.8503570557,0.0183134079,0.0293839723,0.0250461698,26.3989639282,55.0070800781,105.8352203369,0.0731291771,0.0003014803,-0.0040901303,
2374.033,-3.2377808094,1.3538066149,-113.3630523682,0.0631769672,0.0432805307,0.0033412576,-113.3339614868,75.5869369507,110.6363601685,0.0334678292,0.0625441968,0.0106384754,-1.4803844690,82.2949981689,25.8599815369,0.0197800994,0.0279180706,0.0221302956,26.4013538361,55.0082015991,105.8407135010,0.0746052265,0.0032168925,0.0022825003,
2374.043,-3.2380790710,1.3544721603,-113.3619079590,0.0578174852,0.0413325839,0.0082246661,-113.3501281738,75.5826263428,110.6346206665,0.0324725509,0.0577003211,0.0087789893,-1.4766991138,82.2982864380,25.8743762970,0.0256471634,0.0259547681,0.0148622245,26.4050178528,55.0074996948,105.8472518921,0.0804575682,0.0041560531,-0.0011283159,
2374.053,-3.2380836010,1.3542274237,-113.3594665527,0.0568366498,0.0423092358,0.0043183565,-113.3580780029,75.5753021240,110.6425476074,0.0334172845,0.0577998161,0.0103244185,-1.4809933901,82.2969894409,25.8820552826,0.0222261548,0.0225475430,0.0226523280,26.4113693237,55.0066986084,105.8567962646,0.0736136436,0.0104416907,0.0008428693,
2374.063,-3.2377164364,1.3528193235,-113.3588943481,0.0626714602,0.0437677205,0.0043173432,-113.3695755005,75.5700149536,110.6421508789,0.0343708396,0.0588379949,0.0045464635,-1.4985898733,82.2973403931,25.8738727570,0.0227152705,0.0216124356,0.0207071304,26.4082717896,55.0057907104,105.8588256836,0.0760459900,-0.0007667243,0.0047239065,
2374.073,-3.2362830639,1.3541373014,-113.3589935303,0.0573233627,0.0432544313,0.0048047304,-113.3562164307,75.5632019043,110.6614227295,0.0406888723,0.0487122834,0.0143038630,-1.5070248842,82.2991790771,25.8737487793,0.0300437808,0.0211432874,0.0231802464,26.4086418152,55.0012855530,105.8633575439,0.0745359659,0.0065254867,0.0090622306,
2374.083,-3.2391283512,1.3566923141,-113.3573303223,0.0534616932,0.0345148817,0.0082262158,-113.3396682739,75.5591049194,110.6798019409,0.0382296443,0.0527107269,0.0128000379,-1.5143425465,82.3012924194,25.8752574921,0.0256541967,0.0240893364,0.0188218057,26.4074096680,54.9999809265,105.8649215698,0.0813588500,-0.0003076494,0.0080636740,
2374.093,-3.2382543087,1.3556245565,-113.3555221558,0.0617438406,0.0432887413,0.0048073530,-113.3235397339,75.5567779541,110.6954803467,0.0401726365,0.0615636110,0.0132391453,-1.5212279558,82.3001708984,25.8753395081,0.0276046991,0.0231295377,0.0207575262,26.4059944153,54.9987068176,105.8663864136,0.0749984384,0.0065328777,0.0075528026,
2374.103,-3.2368931770,1.3544895649,-113.3548736572,0.0597709119,0.0471713021,0.0096884370,-113.3093948364,75.5555725098,110.7075500488,0.0347962976,0.0611185580,0.0092840791,-1.5217747688,82.2968368530,25.8816585541,0.0241789222,0.0280151963,0.0294876695,26.4024257660,54.9951553345,105.8651428223,0.0817988515,0.0026360154,0.0065144300,
2374.113,-3.2372329235,1.3560154438,-113.3544235229,0.0588209778,0.0413178056,0.0038295984,-113.3097076416,75.5552597046,110.7058029175,0.0367480516,0.0606345534,0.0019631386,-1.5084853172,82.2949218750,25.9017963409,0.0231978893,0.0304259956,0.0265258402,26.4006919861,54.9948425293,105.8649902344,0.0783777833,-0.0022331476,0.0006438494,
2374.123,-3.2368991375,1.3567912579,-113.3532409668,0.0573696718,0.0457065180,0.0062713623,-113.2956695557,75.5528488159,110.7215499878,0.0382024050,0.0567897260,0.0151064992,-1.5032486916,82.2957382202,25.9139270782,0.0246646404,0.0289484113,0.0236088037,26.4012680054,54.9947624207,105.8693466187,0.0730058551,0.0036205351,0.0065046549,
2374.133,-3.2363450527,1.3553699255,-113.3514633179,0.0627159625,0.0422789268,-0.0020310283,-113.2991333008,75.5548095703,110.7221298218,0.0313749909,0.0679838806,0.0063182116,-1.5103207827,82.2941284180,25.9137248993,0.0290554166,0.0250595957,0.0284658372,26.3996562958,54.9958152771,105.8709335327,0.0730164051,-0.0017294288,0.0026046038,
2374.143,-3.2355403900,1.3565739393,-113.3496627808,0.0559010357,0.0451945625,0.0033406615,-113.3060913086,75.5556411743,110.7216262817,0.0357731581,0.0635644346,0.0043874979,-1.5137599707,82.2954101563,25.9197025299,0.0285701156,0.0260437429,0.0255569816,26.4035491943,55.0000648499,105.8775177002,0.0662230253,0.0075400472,-0.0046475530,
2374.153,-3.2376811504,1.3563445807,-113.3491897583,0.0607798435,0.0349779539,0.0067597032,-113.3070297241,75.5557250977,110.7295303345,0.0396797657,0.0611202419,0.0165978074,-1.5139586926,82.2941589355,25.9290561676,0.0275906324,0.0211619437,0.0255367756,26.4083347321,55.0004348755,105.8859405518,0.0794103146,0.0065229237,0.0012377501,
2374.163,-3.2364976406,1.3553789854,-113.3491897583,0.0612512752,0.0422815830,0.0111536384,-113.3113555908,75.5587539673,110.7346649170,0.0421343446,0.0674137324,0.0185480714,-1.5153950453,82.2937240601,25.9372577667,0.0261247754,0.0206772834,0.0255281627,26.4079113007,54.9989204407,105.8897933960,0.0759772062,-0.0008071363,0.0051226616,
2374.173,-3.2375612259,1.3548598289,-113.3474349976,0.0597773753,0.0408352762,0.0033409595,-113.3376464844,75.5588760376,110.7183685303,0.0387169123,0.0610186309,-0.0023432970,-1.5206830502,82.2949523926,25.9402179718,0.0241745114,0.0226423442,0.0196911991,26.4085388184,54.9990348816,105.8948745728,0.0706072450,0.0055355430,0.0017084479,
2374.183,-3.2346937656,1.3539879322,-113.3456115723,0.0631801262,0.0481095612,0.0043152571,-113.3449859619,75.5620498657,110.7206115723,0.0411721468,0.0604685545,0.0123133659,-1.5040266514,82.2970886230,25.9652767181,0.0251560807,0.0245551020,0.0211912096,26.4097557068,55.0000076294,105.9003829956,0.0759880543,0.0030894876,0.0017272830,
2374.193,-3.2333672047,1.3561652899,-113.3439331055,0.0568704680,0.0427153111,0.0062671304,-113.3540115356,75.5658874512,110.7174301147,0.0397239923,0.0599054992,0.0108592510,-1.4920912981,82.2953338623,25.9847602844,0.0256402493,0.0279456079,0.0236024857,26.4079360962,55.0026855469,105.9032974243,0.0799211264,-0.0017601252,0.0032171011,
2374.203,-3.2312300205,1.3564475775,-113.3415679932,0.0593167953,0.0412132293,0.0057773590,-113.3559646606,75.5691757202,110.7211227417,0.0363203287,0.0574095696,0.0152395964,-1.4896491766,82.2964019775,25.9955348969,0.0285724401,0.0240331292,0.0221543908,26.4104537964,55.0019378662,105.9080581665,0.0789370537,0.0035837889,0.0017548800,
2374.213,-3.2317728996,1.3580778837,-113.3416595459,0.0564155579,0.0426874943,0.0106613040,-113.3553543091,75.5709304810,110.7257919312,0.0416990519,0.0573838353,0.0122959018,-1.4847708941,82.2958374023,26.0112228394,0.0261297226,0.0220686793,0.0192162991,26.4131221771,55.0061035156,105.9137878418,0.0716545582,0.0016331673,-0.0020863414,
2374.223,-3.2315788269,1.3596361876,-113.3405303955,0.0588841513,0.0495200120,0.0052908063,-113.3601913452,75.5742187500,110.7270507813,0.0397602320,0.0568360090,0.0074105263,-1.4919387102,82.2965011597,26.0136680603,0.0290609598,0.0201322585,0.0192262530,26.4157581329,55.0058860779,105.9211502075,0.0775117874,0.0060025752,0.0008517504,
2374.233,-3.2322425842,1.3579206467,-113.3393707275,0.0642253160,0.0378128663,0.0135915279,-113.3680648804,75.5753936768,110.7245864868,0.0402536392,0.0577808321,0.0079223514,-1.4726153612,82.2963714600,26.0411834717,0.0212481618,0.0298522115,0.0294771791,26.4150142670,55.0056648254,105.9242858887,0.0736032724,0.0035664737,0.0027991533,
2374.243,-3.2338750362,1.3560703993,-113.3394622803,0.0666344315,0.0388179086,0.0140805840,-113.3667449951,75.5792388916,110.7306213379,0.0314812660,0.0635833442,0.0152156949,-1.4743789434,82.2972640991,26.0456485748,0.0280861855,0.0274145603,0.0202164650,26.4159202576,55.0047073364,105.9292678833,0.0799413919,0.0040405393,0.0018139482,
2374.253,-3.2334740162,1.3559104204,-113.3389053345,0.0583308637,0.0417406075,0.0048022866,-113.3673477173,75.5779800415,110.7348709106,0.0407531261,0.0543244034,0.0079023242,-1.4619095325,82.2997665405,26.0671138763,0.0271154642,0.0249425918,0.0197687745,26.4162807465,55.0007629395,105.9339370728,0.0740424991,0.0059653819,0.0095780492,
2374.263,-3.2343471050,1.3569669724,-113.3389816284,0.0583492965,0.0437089279,0.0082223415,-113.3642654419,75.5757293701,110.7432937622,0.0392785072,0.0558289886,0.0118111968,-1.4621121883,82.2972946167,26.0764923096,0.0285745263,0.0210378915,0.0275392979,26.4198627472,55.0022010803,105.9402160645,0.0696623921,0.0035009384,0.0037525892,
2374.273,-3.2372000217,1.3571293354,-113.3385238647,0.0612818189,0.0369226858,-0.0005644560,-113.3603973389,75.5732345581,110.7522583008,0.0417090654,0.0573393255,0.0079061389,-1.4586747885,82.2956619263,26.0868186951,0.0271058679,0.0278663933,0.0270236135,26.4203338623,55.0041618347,105.9449539185,0.0745648146,-0.0023500621,-0.0001260042,
2374.283,-3.2382066250,1.3572771549,-113.3366546631,0.0534719005,0.0408464633,0.0135971308,-113.3543548584,75.5706176758,110.7626190186,0.0402328372,0.0583664477,0.0108290911,-1.4750323296,82.2921981812,26.0800094604,0.0290508866,0.0176527202,0.0328247249,26.4207935333,55.0033264160,105.9485473633,0.0784626603,0.0015466511,0.0037715435,
2374.293,-3.2376315594,1.3563810587,-113.3367462158,0.0627336055,0.0403481908,-0.0000760555,-113.3495254517,75.5687637329,110.7702636719,0.0338771343,0.0603570938,0.0069158077,-1.4923124313,82.2919158936,26.0714187622,0.0256322622,0.0255062729,0.0269603878,26.4184093475,55.0044746399,105.9489059448,0.0740796328,0.0025519431,0.0003576875,
2374.303,-3.2378442287,1.3573728800,-113.3362197876,0.0588446632,0.0437698364,0.0126205087,-113.3532791138,75.5654067993,110.7696762085,0.0358156562,0.0589374751,0.0050001740,-1.5008621216,82.2912826538,26.0705337524,0.0270956159,0.0206439793,0.0235325694,26.4179935455,55.0033531189,105.9516677856,0.0750449896,0.0064547658,0.0081538558,
2374.313,-3.2387948036,1.3582489491,-113.3345031738,0.0593482293,0.0432980955,0.0082265139,-113.3489913940,75.5651397705,110.7770996094,0.0319082141,0.0609021932,0.0108441114,-1.4954345226,82.2902679443,26.0835914612,0.0256283879,0.0250261128,0.0274211466,26.4167842865,55.0038108826,105.9542465210,0.0696784854,0.0025622845,0.0086427331,
2374.323,-3.2385435104,1.3575425148,-113.3339614868,0.0647069961,0.0432937294,0.0096917748,-113.3523406982,75.5651397705,110.7766265869,0.0431386828,0.0643144101,0.0123224258,-1.5035394430,82.2905426025,26.0830059052,0.0270938873,0.0250451714,0.0225439370,26.4144172668,55.0011253357,105.9552307129,0.0779523849,-0.0003632009,0.0085978508,
2374.333,-3.2406182289,1.3592432737,-113.3323822021,0.0608304255,0.0350290574,0.0106702447,-113.3546600342,75.5624771118,110.7773056030,0.0401974320,0.0614217967,0.0094197989,-1.5078734159,82.2930831909,26.0857162476,0.0246584415,0.0226128548,0.0172178149,26.4157638550,54.9985237122,105.9597167969,0.0759732127,0.0049792528,0.0085705519,
2374.343,-3.2395901680,1.3587378263,-113.3311767578,0.0598450415,0.0438002236,0.0101810694,-113.3598251343,75.5592422485,110.7758407593,0.0406716466,0.0604861975,0.0070206523,-1.5055239201,82.2928085327,26.0950737000,0.0222163796,0.0255371332,0.0299069881,26.4147109985,54.9991722107,105.9625625610,0.0745148659,-0.0013548434,0.0017382503,
2374.353,-3.2399780750,1.3587422371,-113.3300170898,0.0578919947,0.0389241688,0.0052986145,-113.3594970703,75.5576095581,110.7809524536,0.0372465849,0.0605119467,0.0119130015,-1.5209280252,82.2959442139,26.0869789124,0.0305244923,0.0280135572,0.0162908435,26.4099903107,54.9995079041,105.9611587524,0.0745182037,-0.0071697831,-0.0002316833,
2374.363,-3.2394800186,1.3586453199,-113.3300933838,0.0603317060,0.0398920551,0.0106692314,-113.3568649292,75.5577316284,110.7895431519,0.0372471213,0.0605151057,0.0148313642,-1.5118858814,82.2929611206,26.1050090790,0.0236815810,0.0250638872,0.0308841765,26.4119720459,54.9987907410,105.9658432007,0.0754876137,0.0045266449,0.0017211437,
2374.373,-3.2383441925,1.3562362194,-113.3300857544,0.0641959161,0.0442668535,0.0116435289,-113.3741226196,75.5561599731,110.7773361206,0.0347988605,0.0619742274,0.0002627969,-1.5154378414,82.2943878174,26.1108341217,0.0212435126,0.0240950286,0.0191932917,26.4145145416,54.9978942871,105.9714965820,0.0779200792,0.0059630275,-0.0002325177,
2374.383,-3.2400274277,1.3518735170,-113.3301086426,0.0704674572,0.0389251858,-0.0015402436,-113.3682861328,75.5546493530,110.7886428833,0.0396750569,0.0571251810,0.0129446983,-1.5164773464,82.2928848267,26.1185741425,0.0319821835,0.0265395939,0.0260026008,26.4152851105,54.9968376160,105.9740676880,0.0735149384,0.0064376593,0.0065937638,
2374.393,-3.2385277748,1.3505824804,-113.3283004761,0.0626324341,0.0432936251,0.0077353716,-113.3701400757,75.5564651489,110.7920303345,0.0396829844,0.0619757622,0.0134282112,-1.4979265928,82.2894973755,26.1472015381,0.0231851935,0.0279620290,0.0318033695,26.4085292816,54.9960937500,105.9711608887,0.0730192065,-0.0027837753,0.0114369988,
2374.403,-3.2382411957,1.3490023613,-113.3264770508,0.0616282970,0.0432886630,0.0111522675,-113.3589096069,75.5572128296,110.8074722290,0.0377331376,0.0561246574,0.0148430467,-1.4864200354,82.2878952026,26.1668891907,0.0305056572,0.0279354900,0.0244512260,26.4105453491,54.9955139160,105.9771957397,0.0725251436,0.0030538440,-0.0032098889,
2374.413,-3.2386114597,1.3468416929,-113.3240661621,0.0635437220,0.0389006361,0.0048041940,-113.3619613647,75.5575027466,110.8080291748,0.0391992331,0.0600212812,0.0089940429,-1.4671143293,82.2848968506,26.1931781769,0.0280572176,0.0288676471,0.0297694802,26.4085731506,54.9975433350,105.9797744751,0.0754750967,-0.0071694851,-0.0012397170,
2374.423,-3.2399909496,1.3461185694,-113.3228225708,0.0562068857,0.0418543741,0.0067579150,-113.3738784790,75.5576782227,110.8009262085,0.0348054767,0.0614628941,0.0065993071,-1.4690376520,82.2844848633,26.1990566254,0.0270797014,0.0195950419,0.0229265243,26.4081821442,54.9977302551,105.9835205078,0.0735238791,0.0016242564,0.0007140636,
2374.433,-3.2392847538,1.3446886539,-113.3228073120,0.0605764650,0.0428186618,0.0067574978,-113.3726501465,75.5594787598,110.8087539673,0.0372546911,0.0619255900,0.0060939789,-1.4607614279,82.2846374512,26.2161312103,0.0300097466,0.0268995464,0.0224419832,26.4069290161,54.9990196228,105.9857635498,0.0715836287,0.0021319687,0.0046311617,
2374.443,-3.2384865284,1.3447499275,-113.3234634399,0.0571595691,0.0432930440,-0.0000800490,-113.3601837158,75.5590133667,110.8283462524,0.0406706333,0.0536536127,0.0167893171,-1.4656187296,82.2826538086,26.2200946808,0.0231691599,0.0249588341,0.0292425752,26.4125270844,54.9988632202,105.9938735962,0.0759766102,0.0079401135,-0.0016936064,
2374.453,-3.2372326851,1.3427644968,-113.3228225708,0.0624960177,0.0447360836,0.0028483272,-113.3685836792,75.5589828491,110.8254928589,0.0392056704,0.0643814802,0.0080340505,-1.4659330845,82.2824249268,26.2291126251,0.0260983109,0.0274010748,0.0224033147,26.4140682220,54.9965248108,105.9978942871,0.0730234981,0.0069348514,0.0051192641,
2374.463,-3.2375879288,1.3408975601,-113.3222427368,0.0619751588,0.0413243473,-0.0000825524,-113.3636245728,75.5593948364,110.8374481201,0.0416488647,0.0590130538,0.0182654262,-1.4730396271,82.2818450928,26.2307910919,0.0241438150,0.0240001976,0.0238590539,26.4137516022,54.9966125488,106.0001983643,0.0715595484,0.0020554066,0.0090252161,
2374.473,-3.2367455959,1.3391634226,-113.3222579956,0.0638980269,0.0432628356,0.0096821785,-113.3633270264,75.5583953857,110.8417739868,0.0411562324,0.0531692803,0.0104582906,-1.4790606499,82.2800903320,26.2322826385,0.0216982961,0.0259683728,0.0262705982,26.4139442444,54.9983177185,106.0045776367,0.0710883141,0.0035293996,0.0036771297,
2374.483,-3.2368245125,1.3390864134,-113.3223495483,0.0599904358,0.0422876552,0.0028457642,-113.3603134155,75.5569152832,110.8478088379,0.0367552638,0.0502674580,0.0065498352,-1.4884346724,82.2786865234,26.2306900024,0.0246247053,0.0181787163,0.0223410726,26.4157867432,54.9988861084,106.0086975098,0.0740237236,0.0064461231,0.0012506247,
2374.493,-3.2371444702,1.3392102718,-113.3206558228,0.0638988465,0.0413166620,0.0023581386,-113.3406372070,75.5574874878,110.8634719849,0.0479882360,0.0493160337,0.0157444477,-1.4856911898,82.2784652710,26.2361755371,0.0290187001,0.0235434026,0.0135481060,26.4139442444,54.9988136292,106.0078430176,0.0759761333,0.0015794337,0.0022186041,
2374.503,-3.2389340401,1.3406492472,-113.3201446533,0.0570880137,0.0447657667,0.0067549944,-113.3379898071,75.5602340698,110.8598937988,0.0377462506,0.0605085939,0.0088795424,-1.4699417353,82.2773132324,26.2522048950,0.0226683617,0.0264362395,0.0198754817,26.4137973785,54.9983520508,106.0067291260,0.0662058592,0.0025543869,0.0031884909,
2374.513,-3.2389121056,1.3416787386,-113.3190383911,0.0585708246,0.0403708369,0.0048022866,-113.3247299194,75.5643005371,110.8662185669,0.0367873907,0.0609575808,0.0161233544,-1.4740957022,82.2752075195,26.2501716614,0.0275462270,0.0220524818,0.0242345929,26.4126949310,55.0020065308,106.0084762573,0.0686838627,0.0001460612,-0.0065357089,
2374.523,-3.2391262054,1.3400160074,-113.3196182251,0.0590300933,0.0418394506,0.0038251877,-113.3210220337,75.5695877075,110.8651733398,0.0382752419,0.0696707219,0.0185147524,-1.4611263275,82.2738113403,26.2645092010,0.0231484175,0.0298348516,0.0251850486,26.4152774811,55.0005073547,106.0118942261,0.0750164986,0.0108555853,0.0012695789,
2374.533,-3.2387292385,1.3381381035,-113.3190078735,0.0624152943,0.0437856987,0.0106600523,-113.3388748169,75.5699081421,110.8476638794,0.0343703628,0.0652409643,0.0068654418,-1.4458403587,82.2741165161,26.2849941254,0.0294967890,0.0263804644,0.0159128308,26.4188327789,55.0009002686,106.0165557861,0.0755087137,0.0074082613,0.0027553439,
2374.543,-3.2396245003,1.3386229277,-113.3178634644,0.0585175045,0.0413598791,0.0101727247,-113.3506088257,75.5708312988,110.8427658081,0.0304681659,0.0686236173,0.0069063902,-1.4558277130,82.2714767456,26.2851200104,0.0226546526,0.0210342109,0.0290519297,26.4210929871,55.0002021790,106.0222625732,0.0759900212,0.0015241206,0.0027562976,
2374.553,-3.2377438545,1.3405245543,-113.3161621094,0.0575741231,0.0447450429,-0.0015470386,-113.3526306152,75.5650939941,110.8523559570,0.0353260040,0.0604081452,0.0118355155,-1.4496526718,82.2712402344,26.3031501770,0.0285134912,0.0273672938,0.0241657495,26.4262790680,55.0024261475,106.0307006836,0.0725943446,0.0053980350,-0.0059810281,
2374.563,-3.2369086742,1.3412544727,-113.3143539429,0.0556337312,0.0452187583,0.0101712346,-113.3697586060,75.5620346069,110.8497314453,0.0318947434,0.0721447766,0.0138779283,-1.4346202612,82.2714462280,26.3331699371,0.0275374055,0.0287963748,0.0231914520,26.4281787872,55.0044212341,106.0384521484,0.0667549372,0.0039288402,-0.0054588914,
2374.573,-3.2355341911,1.3405239582,-113.3118896484,0.0565975495,0.0427534170,0.0106578469,-113.3901672363,75.5567092896,110.8460540771,0.0367543697,0.0643792599,0.0042296648,-1.4506361485,82.2712936401,26.3318614960,0.0294901729,0.0288344771,0.0280714780,26.4322643280,55.0051383972,106.0469665527,0.0696917772,0.0043850243,-0.0010370612,
2374.583,-3.2367608547,1.3394094706,-113.3119049072,0.0595077910,0.0403334163,0.0077289343,-113.3945083618,75.5501785278,110.8569183350,0.0425853133,0.0630077124,0.0145446658,-1.4468531609,82.2740631104,26.3476009369,0.0275435448,0.0244297534,0.0120064318,26.4284095764,55.0040664673,106.0485382080,0.0745638609,-0.0033996999,0.0043032169,
2374.593,-3.2362747192,1.3378499746,-113.3118972778,0.0609454215,0.0442312248,0.0043097734,-113.4106140137,75.5470275879,110.8513107300,0.0357356668,0.0591224581,0.0033999085,-1.4554780722,82.2763214111,26.3516292572,0.0280371308,0.0210312903,0.0222981274,26.4296512604,55.0041198730,106.0534439087,0.0701698065,0.0029371083,0.0023561120,
2374.603,-3.2368714809,1.3391820192,-113.3119506836,0.0551092885,0.0447298735,0.0038226247,-113.4153518677,75.5475463867,110.8534469604,0.0386675596,0.0600830168,0.0063453913,-1.4547328949,82.2776489258,26.3625392914,0.0319464803,0.0220054984,0.0203684568,26.4237060547,55.0010375977,106.0517044067,0.0769749284,0.0000411272,0.0110791922,
2374.613,-3.2355523109,1.3352227211,-113.3100509644,0.0652941167,0.0427538641,0.0013783574,-113.4279327393,75.5558090210,110.8436508179,0.0416332483,0.0638395548,0.0014576912,-1.4677513838,82.2783355713,26.3597984314,0.0343894958,0.0176415592,0.0159853846,26.4198703766,54.9998970032,106.0523452759,0.0794049501,0.0005565584,0.0022584200,
2374.623,-3.2345507145,1.3346207142,-113.3088912964,0.0623539239,0.0437129848,0.0106546283,-113.4482650757,75.5671157837,110.8235702515,0.0392410755,0.0699770302,0.0097641945,-1.4542028904,82.2762985229,26.3822555542,0.0343847275,0.0249345005,0.0208342522,26.4139461517,54.9998245239,106.0519561768,0.0706151724,0.0045155585,0.0105323792,
2374.633,-3.2336797714,1.3331718445,-113.3083419800,0.0628169179,0.0412564427,0.0043049455,-113.4874496460,75.5817489624,110.7845382690,0.0388163924,0.0657768399,0.0098231435,-1.4318257570,82.2701492310,26.4148674011,0.0246046782,0.0253723413,0.0348871499,26.4066925049,55.0029716492,106.0499954224,0.0740646124,-0.0007705092,0.0080984831,
2374.643,-3.2339663506,1.3324999809,-113.3084182739,0.0623169169,0.0393083207,0.0096768141,-113.5440673828,75.5995483398,110.7266235352,0.0369405746,0.0649157614,0.0138363838,-1.3908342123,82.2675170898,26.4668407440,0.0265516043,0.0262526870,0.0289803743,26.4017505646,55.0054435730,106.0493850708,0.0696948171,-0.0002221763,0.0095732212,
2374.653,-3.2364060879,1.3354851007,-113.3080139160,0.0560213476,0.0403273255,0.0087030530,-113.6168365479,75.6221008301,110.6487045288,0.0428977609,0.0668816119,0.0076274276,-1.3567497730,82.2663421631,26.5106887817,0.0236191750,0.0247073770,0.0201694071,26.3959407806,55.0079307556,106.0467987061,0.0775321722,-0.0021074712,0.0037193298,
2374.663,-3.2362346649,1.3343131542,-113.3068008423,0.0618602708,0.0452071726,0.0013788939,-113.6887130737,75.6424713135,110.5700531006,0.0400562882,0.0596071035,0.0121708512,-1.2988880873,82.2673110962,26.5802135468,0.0231331587,0.0284758061,0.0172541440,26.3930530548,55.0118865967,106.0468597412,0.0712241530,-0.0020564497,0.0022924542,
2374.673,-3.2375078201,1.3334041834,-113.3049926758,0.0569615997,0.0379051566,0.0062620640,-113.7625427246,75.6609725952,110.4893493652,0.0391597748,0.0587043315,0.0103860497,-1.2620935440,82.2645950317,26.6279926300,0.0236150622,0.0264363438,0.0235520005,26.3903827667,55.0118751526,106.0471115112,0.0775716901,0.0033386648,0.0047227144,
2374.683,-3.2375276089,1.3307470083,-113.3037719727,0.0652160197,0.0423000902,0.0091909170,-113.8366699219,75.6765823364,110.4092330933,0.0362975001,0.0510102510,0.0130158067,-1.2215721607,82.2615814209,26.6820983887,0.0323970318,0.0229232013,0.0249635279,26.3846683502,55.0144538879,106.0454711914,0.0692967176,0.0024296045,0.0057057142,
2374.693,-3.2379152775,1.3321317434,-113.3026885986,0.0574276745,0.0388888456,0.0077269673,-113.9313430786,75.6897659302,110.3125610352,0.0334247351,0.0569892377,0.0030473471,-1.1822565794,82.2585830688,26.7328987122,0.0319017172,0.0277136117,0.0268647373,26.3821887970,55.0155639648,106.0460357666,0.0688195229,0.0024589896,0.0037566423,
2374.703,-3.2370166779,1.3329595327,-113.3003845215,0.0618366525,0.0432677045,0.0096797943,-114.0087432861,75.6942443848,110.2387084961,0.0344206095,0.0558076948,0.0111356378,-1.1485590935,82.2531356812,26.7785568237,0.0284709334,0.0315416306,0.0340927839,26.3808250427,55.0160408020,106.0497207642,0.0751719475,0.0078452229,0.0013145804,
2374.713,-3.2367622852,1.3330026865,-113.2998275757,0.0574428737,0.0413101465,-0.0005744100,-114.0734939575,75.6946334839,110.1862564087,0.0334457159,0.0522699356,0.0157837868,-1.1365587711,82.2541503906,26.8055305481,0.0216373801,0.0276064575,0.0209278017,26.3812522888,55.0168952942,106.0552749634,0.0742039680,0.0039406419,-0.0016019940,
2374.723,-3.2388641834,1.3330212831,-113.2992935181,0.0574431978,0.0374405086,-0.0030140877,-114.0939407349,75.6913375854,110.1855621338,0.0309901237,0.0517962873,0.0276061296,-1.1388214827,82.2537918091,26.8172378540,0.0231013894,0.0202877820,0.0238490552,26.3847484589,55.0158691406,106.0630187988,0.0732171535,0.0097621381,0.0013301373,
2374.733,-3.2397959232,1.3349462748,-113.2988357544,0.0574767888,0.0413629450,0.0052886009,-114.0954589844,75.6867599487,110.2045288086,0.0343883038,0.0523510277,0.0247138739,-1.1492818594,82.2535400391,26.8217296600,0.0240773559,0.0232424140,0.0204289854,26.3838062286,55.0161094666,106.0676193237,0.0717546940,0.0014713109,0.0008406639,
2374.743,-3.2401471138,1.3353556395,-113.2970352173,0.0565073714,0.0433221757,0.0023596287,-114.0746688843,75.6753768921,110.2453842163,0.0309212208,0.0496356189,0.0168973207,-1.1765614748,82.2575683594,26.8068466187,0.0260399580,0.0228176266,0.0204986781,26.3875293732,55.0144844055,106.0776367188,0.0761329532,0.0097284019,0.0066958666,
2374.753,-3.2393696308,1.3375855684,-113.2953567505,0.0565462783,0.0408671796,0.0018714666,-114.0308609009,75.6621093750,110.3019027710,0.0342818499,0.0460089445,0.0168148279,-1.1945123672,82.2604064941,26.8001632690,0.0260466337,0.0223710239,0.0225008726,26.3872432709,55.0157165527,106.0835723877,0.0732156038,-0.0005151033,0.0023157597,
2374.763,-3.2391893864,1.3375095129,-113.2930145264,0.0604511984,0.0408640429,0.0023593903,-113.9810562134,75.6494750977,110.3596496582,0.0405749083,0.0526389331,0.0127974153,-1.2153236866,82.2629470825,26.7907238007,0.0236111879,0.0190016031,0.0196156800,26.3860015869,55.0143585205,106.0848159790,0.0746668577,0.0038819611,0.0057111979,
2374.773,-3.2381451130,1.3377933502,-113.2912597656,0.0589913093,0.0418224074,-0.0000830293,-113.9184036255,75.6388397217,110.4194030762,0.0385757685,0.0494951308,0.0106679797,-1.2377058268,82.2640075684,26.7751464844,0.0260550976,0.0244254917,0.0284238756,26.3837623596,55.0096473694,106.0870590210,0.0838970542,0.0014307201,0.0080822110,
2374.783,-3.2381358147,1.3384813070,-113.2907333374,0.0575384684,0.0403573811,0.0057766438,-113.8723754883,75.6320724487,110.4583206177,0.0419644117,0.0506564230,0.0002772212,-1.2690129280,82.2652511597,26.7475337982,0.0250814557,0.0230345577,0.0235640407,26.3826751709,55.0065956116,106.0907363892,0.0780071020,0.0033741891,0.0046201348,
2374.793,-3.2387421131,1.3403003216,-113.2890090942,0.0561053678,0.0423210338,0.0101725459,-113.8118286133,75.6292419434,110.5074310303,0.0409755707,0.0610604137,0.0112860203,-1.2820008993,82.2691879272,26.7365779877,0.0250906944,0.0225756019,0.0143559873,26.3776206970,55.0073890686,106.0886993408,0.0716674328,-0.0082941651,0.0031430721,
2374.803,-3.2397866249,1.3390473127,-113.2896881104,0.0619428754,0.0389212891,0.0057785511,-113.7601852417,75.6270294189,110.5513153076,0.0458488464,0.0616729707,0.0003530383,-1.2992342710,82.2714920044,26.7218151093,0.0270492435,0.0289633572,0.0163450241,26.3750705719,55.0063743591,106.0896759033,0.0648213029,-0.0014418066,0.0089779496,
2374.813,-3.2405233383,1.3373602629,-113.2879333496,0.0663079768,0.0418638475,0.0111496449,-113.7286071777,75.6274261475,110.5783004761,0.0399911404,0.0680697411,0.0026659369,-1.3041591644,82.2721099854,26.7193069458,0.0221678615,0.0284864753,0.0153822899,26.3810310364,55.0075454712,106.0969543457,0.0775283575,0.0107192695,-0.0017223954,
2374.823,-3.2398543358,1.3377076387,-113.2874145508,0.0609429404,0.0447818711,0.0077311397,-113.6950531006,75.6267700195,110.6111526489,0.0385234952,0.0686275065,0.0118139386,-1.3168518543,82.2725372314,26.7119579315,0.0255868435,0.0324226767,0.0222264379,26.3848857880,55.0056381226,106.1039581299,0.0765327215,0.0062779188,0.0055940747,
2374.833,-3.2390375137,1.3387713432,-113.2862777710,0.0585200936,0.0452558994,0.0067544580,-113.6685485840,75.6267318726,110.6401367188,0.0360819101,0.0613492429,0.0117085576,-1.3333103657,82.2713165283,26.7016448975,0.0294902325,0.0266028494,0.0187883973,26.3839416504,55.0059547424,106.1069335938,0.0760475993,0.0014056563,-0.0007532239,
2374.843,-3.2366285324,1.3398079872,-113.2863388062,0.0560967773,0.0466787592,0.0023575425,-113.6516647339,75.6255645752,110.6604461670,0.0399830937,0.0633501410,0.0140905380,-1.3442589045,82.2720794678,26.7000694275,0.0246092081,0.0246754140,0.0256376266,26.3877105713,55.0050010681,106.1142196655,0.0789676905,0.0067367554,0.0026686788,
2374.853,-3.2385451794,1.3397852182,-113.2858200073,0.0600026287,0.0379230790,0.0052898526,-113.6625518799,75.6264724731,110.6566543579,0.0424284339,0.0721064061,0.0068035722,-1.3559008837,82.2707138062,26.6972770691,0.0275356770,0.0217739046,0.0217089355,26.3918037415,55.0076751709,106.1210632324,0.0667874813,0.0008578002,-0.0021610260,
2374.863,-3.2380867004,1.3401820660,-113.2852630615,0.0585447103,0.0462158658,0.0052888989,-113.6788330078,75.6236801147,110.6475677490,0.0375335217,0.0555194765,0.0034694672,-1.3628457785,82.2706832886,26.6985321045,0.0280238986,0.0237435251,0.0192675591,26.3935031891,55.0061454773,106.1262054443,0.0750729442,0.0096218586,0.0046627522,
2374.873,-3.2405464649,1.3403221369,-113.2853164673,0.0570823103,0.0403993391,0.0023619533,-113.6845550537,75.6250686646,110.6493911743,0.0394926667,0.0608592927,0.0156899095,-1.3476748466,82.2683715820,26.7218399048,0.0319247246,0.0295678079,0.0265517831,26.3953208923,55.0061149597,106.1307830811,0.0848382711,0.0047225952,-0.0046069026,
2374.883,-3.2405803204,1.3399100304,-113.2847137451,0.0570751168,0.0423530638,0.0048030615,-113.6962203979,75.6241378784,110.6452026367,0.0360706449,0.0593878180,0.0118365288,-1.3536306620,82.2704086304,26.7233104706,0.0294880867,0.0281162858,0.0099852681,26.3969917297,55.0089569092,106.1352539063,0.0746128559,0.0027725995,-0.0079809427,
2374.893,-3.2408149242,1.3391205072,-113.2847366333,0.0604793094,0.0438220128,0.0067562461,-113.7227172852,75.6223754883,110.6242828369,0.0433872342,0.0574164987,0.0065829158,-1.3417634964,82.2682418823,26.7434558868,0.0275298953,0.0261358768,0.0333839953,26.3930034637,55.0089759827,106.1334686279,0.0692418814,-0.0006096065,0.0076262951,
2374.903,-3.2398159504,1.3380390406,-113.2865753174,0.0589955971,0.0418515131,0.0067548156,-113.7593994141,75.6181259155,110.5960617065,0.0428805351,0.0544874221,0.0018751621,-1.3272756338,82.2669830322,26.7664012909,0.0270386338,0.0212191343,0.0235975981,26.3945140839,55.0076179504,106.1384353638,0.0814353228,0.0042510331,0.0022442341,
2374.913,-3.2410070896,1.3392263651,-113.2854003906,0.0560866259,0.0467550457,0.0111508965,-113.8006057739,75.6121673584,110.5615463257,0.0413898826,0.0549959838,0.0089159012,-1.3117727041,82.2669067383,26.7951908112,0.0280150175,0.0260651857,0.0221289992,26.3939952850,55.0082931519,106.1424026489,0.0731413364,0.0013303161,-0.0036084056,
2374.923,-3.2396023273,1.3396862745,-113.2854232788,0.0560946502,0.0452657193,0.0062668920,-113.8359680176,75.6044082642,110.5321502686,0.0369616747,0.0511471182,0.0100861788,-1.2885259390,82.2679443359,26.8285751343,0.0221580863,0.0284509808,0.0211690068,26.3923416138,55.0093383789,106.1440200806,0.0741283298,0.0028166473,-0.0031142235,
2374.933,-3.2380349636,1.3406336308,-113.2842102051,0.0546463355,0.0457266718,0.0067541003,-113.8843154907,75.5942916870,110.4875869751,0.0305700898,0.0541475862,0.0005822778,-1.2772569656,82.2658615112,26.8493175507,0.0255711675,0.0264718831,0.0289457440,26.3876934052,55.0073890686,106.1434707642,0.0799682140,-0.0030134320,0.0085589290,
2374.943,-3.2359364033,1.3381180763,-113.2830276489,0.0687626004,0.0476433001,0.0033330321,-113.9130630493,75.5845794678,110.4625167847,0.0339458585,0.0557104349,0.0105289221,-1.2572022676,82.2650756836,26.8789367676,0.0275224447,0.0264245421,0.0201421231,26.3896369934,55.0068054199,106.1497726440,0.0809389353,0.0057545602,-0.0016936064,
2374.953,-3.2362017632,1.3377350569,-113.2830657959,0.0589902923,0.0437416807,0.0047976971,-113.9404754639,75.5750579834,110.4394226074,0.0392755866,0.0543443561,0.0126565099,-1.2399424314,82.2611694336,26.9041099548,0.0236070156,0.0200373083,0.0269116163,26.3873004913,55.0073661804,106.1508331299,0.0750851631,0.0048024356,0.0036741495,
2374.963,-3.2354152203,1.3381639719,-113.2831878662,0.0604626164,0.0388451591,0.0057739615,-113.9547424316,75.5673675537,110.4275131226,0.0358241796,0.0598081648,0.0215548873,-1.2156906128,82.2608108521,26.9349784851,0.0304421186,0.0248626173,0.0225091577,26.3861293793,55.0057220459,106.1518096924,0.0848343372,0.0028494000,0.0075541139,
2374.973,-3.2348670959,1.3384814262,-113.2826843262,0.0609564409,0.0422535688,0.0052851439,-113.9682617188,75.5595703125,110.4162750244,0.0289543271,0.0579511821,0.0128732324,-1.1943597794,82.2595977783,26.9631862640,0.0250681639,0.0321365893,0.0263925046,26.3820858002,55.0050010681,106.1507797241,0.0818973780,-0.0044431984,0.0006909370,
2374.983,-3.2359251976,1.3385998011,-113.2815856934,0.0619350672,0.0408071503,0.0096808672,-113.9691619873,75.5520324707,110.4148712158,0.0313628912,0.0600185394,0.0148814917,-1.1827528477,82.2594223022,26.9826068878,0.0211614966,0.0218551308,0.0229722261,26.3870849609,55.0023384094,106.1571197510,0.0818707943,0.0091670454,-0.0022504330,
2374.993,-3.2341926098,1.3378149271,-113.2791213989,0.0589916855,0.0461480767,0.0121203065,-113.9436721802,75.5494689941,110.4417648315,0.0293986201,0.0610795021,0.0270041823,-1.1783367395,82.2578964233,26.9928131104,0.0260407329,0.0257514268,0.0248983204,26.3888034821,55.0013771057,106.1614456177,0.0784431696,0.0057274699,0.0036038160,
2375.003,-3.2343196869,1.3387545347,-113.2785720825,0.0565666780,0.0441971496,0.0028433204,-113.9193496704,75.5494995117,110.4684295654,0.0293987393,0.0650284737,0.0156762600,-1.1711752415,82.2574157715,27.0056591034,0.0221333504,0.0271993876,0.0258679390,26.3899021149,54.9999084473,106.1680221558,0.0818464756,0.0052200556,0.0031020641,
2375.013,-3.2334082127,1.3382052183,-113.2786178589,0.0619281866,0.0456461236,0.0106547475,-113.9000167847,75.5450668335,110.4935455322,0.0308442712,0.0582951605,0.0063517690,-1.1662864685,82.2562255859,27.0178947449,0.0260367990,0.0330475867,0.0282865912,26.3890495300,54.9989700317,106.1720657349,0.0720714331,0.0022920072,0.0030857921,
2375.023,-3.2331092358,1.3397833109,-113.2780838013,0.0565846264,0.0456408784,0.0062608123,-113.8817214966,75.5402755737,110.5176696777,0.0371710658,0.0627962798,0.0077760220,-1.1817477942,82.2555694580,27.0085525513,0.0260352492,0.0272251964,0.0277887881,26.3902587891,54.9969329834,106.1764526367,0.0759572983,0.0061745644,0.0040420890,
2375.033,-3.2325384617,1.3405250311,-113.2781753540,0.0595272519,0.0466074832,0.0101661682,-113.8770217896,75.5320205688,110.5285339355,0.0390881896,0.0614654273,0.0014659166,-1.1956765652,82.2592697144,27.0028209686,0.0260439515,0.0228624791,0.0195517242,26.3920822144,54.9952583313,106.1821670532,0.0734991431,0.0066358447,0.0030522346,
2375.043,-3.2318449020,1.3413507938,-113.2776794434,0.0614947900,0.0426891297,0.0101666451,-113.8748321533,75.5236206055,110.5351791382,0.0463758111,0.0591593236,0.0024908185,-1.2133550644,82.2601547241,26.9951114655,0.0245811939,0.0238807648,0.0210317373,26.3925304413,54.9944458008,106.1851272583,0.0808151960,0.0017438233,-0.0023272634,
2375.053,-3.2317259312,1.3410066366,-113.2765274048,0.0590473749,0.0407339446,0.0033297539,-113.8804855347,75.5148239136,110.5284118652,0.0409663320,0.0558654219,-0.0003562570,-1.2156016827,82.2596740723,27.0010757446,0.0250683427,0.0238862485,0.0210254043,26.3922843933,54.9958648682,106.1879882813,0.0700871944,0.0012667179,0.0045256615,
2375.063,-3.2332327366,1.3401809931,-113.2759933472,0.0629392192,0.0392953716,0.0087027550,-113.8919830322,75.5083312988,110.5125045776,0.0438676476,0.0622924715,0.0041286349,-1.2125030756,82.2597274780,27.0094528198,0.0255567431,0.0229023248,0.0239544213,26.3931541443,54.9949836731,106.1911544800,0.0769143105,0.0061360896,0.0030530095,
2375.073,-3.2312130928,1.3418130875,-113.2748184204,0.0541786328,0.0495140478,-0.0005767941,-113.9052124023,75.5033493042,110.4962234497,0.0433576107,0.0647872835,0.0120282173,-1.1994086504,82.2587814331,27.0277366638,0.0289725065,0.0253129154,0.0200329125,26.3872604370,54.9965286255,106.1884765625,0.0730235577,-0.0040550828,0.0001173615,
2375.083,-3.2316412926,1.3421556950,-113.2742538452,0.0585791431,0.0431738496,0.0008894205,-113.9224319458,75.5007324219,110.4816131592,0.0404164791,0.0667504221,0.0204160213,-1.1626640558,82.2564010620,27.0693340302,0.0226192474,0.0257146806,0.0224307328,26.3872966766,54.9953460693,106.1903152466,0.0832656026,0.0066792667,0.0010788441,
2375.093,-3.2313530445,1.3431565762,-113.2726058960,0.0610380135,0.0412156731,0.0077246428,-113.9412536621,75.4917449951,110.4699172974,0.0350061059,0.0639253706,0.0156701207,-1.1405563354,82.2531051636,27.0997390747,0.0299357176,0.0266397744,0.0301866829,26.3855266571,54.9977149963,106.1905212402,0.0701057315,0.0013391078,-0.0037814379,
2375.103,-3.2329111099,1.3432559967,-113.2720794678,0.0595749058,0.0348951593,0.0052857399,-113.9573822021,75.4814910889,110.4649963379,0.0344729424,0.0596596301,0.0192229748,-1.1032687426,82.2558212280,27.1453990936,0.0265241265,0.0299681276,0.0190010965,26.3850708008,54.9979934692,106.1927413940,0.0793858767,0.0037864149,0.0054973960,
2375.113,-3.2333631516,1.3433909416,-113.2703170776,0.0576241352,0.0407624133,0.0072385073,-113.9728088379,75.4731063843,110.4594650269,0.0300417542,0.0607374609,0.0125062466,-1.0861704350,82.2532577515,27.1734008789,0.0240767002,0.0235806555,0.0311622620,26.3818511963,54.9998512268,106.1933670044,0.0711036325,-0.0020323694,0.0045301914,
2375.123,-3.2318708897,1.3424268961,-113.2690811157,0.0595604405,0.0431778431,0.0174910426,-113.9764022827,75.4674072266,110.4615936279,0.0363644361,0.0632603765,0.0164660215,-1.0729256868,82.2533874512,27.1930885315,0.0294480920,0.0259905010,0.0165158808,26.3772850037,55.0000152588,106.1922454834,0.0838006735,-0.0044316649,-0.0013473630,
2375.133,-3.2306516171,1.3404537439,-113.2684707642,0.0624556988,0.0446214899,0.0028401613,-113.9647750854,75.4616165161,110.4746856689,0.0353624821,0.0506754965,0.0164588094,-1.0649398565,82.2518463135,27.2076129913,0.0226085186,0.0215774477,0.0252792686,26.3794536591,55.0009765625,106.1949615479,0.0711149573,0.0038557351,0.0006277561,
2375.143,-3.2308716774,1.3378272057,-113.2672576904,0.0648512766,0.0416956991,0.0028396845,-113.9490890503,75.4607772827,110.4864883423,0.0378002524,0.0609688312,0.0164014101,-1.0475587845,82.2496871948,27.2288894653,0.0245565772,0.0288609713,0.0271950513,26.3794326782,55.0018882751,106.1953964233,0.0804014206,-0.0039508045,-0.0032670498,
2375.153,-3.2313952446,1.3378891945,-113.2661056519,0.0599695444,0.0426813774,0.0091879368,-113.9494934082,75.4630126953,110.4834671021,0.0387865901,0.0648421198,0.0066220164,-1.0478358269,82.2485275269,27.2345333099,0.0260186791,0.0215377957,0.0237557590,26.3787479401,54.9994926453,106.1951675415,0.0769594908,0.0067823827,0.0045118928,
2375.163,-3.2301256657,1.3395009041,-113.2655715942,0.0565796942,0.0490068793,0.0096750855,-113.9370040894,75.4668121338,110.4921264648,0.0363618135,0.0594337881,0.0138701797,-1.0347080231,82.2496414185,27.2521820068,0.0235798955,0.0273655653,0.0203570724,26.3758831024,54.9980659485,106.1951370239,0.0803631544,0.0043575168,0.0059456229,
2375.173,-3.2292020321,1.3389376402,-113.2656402588,0.0638940930,0.0436197110,0.0047919750,-113.9375381470,75.4724197388,110.4919815063,0.0305269957,0.0627643615,0.0045567155,-1.0311213732,82.2493591309,27.2614822388,0.0313917398,0.0273571312,0.0198625326,26.3795337677,54.9998207092,106.2009963989,0.0701268315,0.0043359101,0.0001248717,
2375.183,-3.2293574810,1.3415805101,-113.2646102905,0.0551511422,0.0397161022,0.0072337389,-113.8983383179,75.4827117920,110.5356063843,0.0359431505,0.0670702010,0.0311842561,-1.0248197317,82.2443695068,27.2739963531,0.0264971852,0.0288084745,0.0319858193,26.3783664703,55.0012702942,106.2029495239,0.0755124092,-0.0000388324,0.0040448904,
2375.193,-3.2293663025,1.3399518728,-113.2639923096,0.0634235069,0.0445991047,0.0038160682,-113.8379440308,75.4902343750,110.6060638428,0.0330463648,0.0612024665,0.0294256210,-1.0358365774,82.2414932251,27.2680339813,0.0260021091,0.0244410932,0.0294943005,26.3756904602,55.0018272400,106.2045440674,0.0735648870,0.0014533997,-0.0008433461,
2375.203,-3.2294228077,1.3381711245,-113.2634506226,0.0638807118,0.0402056016,0.0018615723,-113.7601242065,75.4938278198,110.6998901367,0.0311089754,0.0554253906,0.0129750967,-1.0405833721,82.2404251099,27.2678298950,0.0294175744,0.0229878873,0.0309413373,26.3754501343,55.0030822754,106.2067718506,0.0735774636,0.0014636815,-0.0018039942,
2375.213,-3.2289090157,1.3388317823,-113.2635040283,0.0575445890,0.0421497673,0.0067444444,-113.6457824707,75.4938201904,110.8337020874,0.0355034471,0.0566025972,0.0149568319,-1.0619684458,82.2413635254,27.2539291382,0.0269783735,0.0230385512,0.0265639126,26.3733768463,55.0059013367,106.2093505859,0.0731173754,-0.0004531443,-0.0022666454,
2375.223,-3.2260284424,1.3368642330,-113.2628784180,0.0628813505,0.0460058823,0.0145533085,-113.5067520142,75.4919357300,110.9940872192,0.0311006904,0.0554114878,0.0202690363,-1.0891648531,82.2426223755,27.2365875244,0.0264930725,0.0235912055,0.0295176357,26.3747329712,55.0087585449,106.2152786255,0.0687514544,0.0005295277,-0.0007581115,
2375.233,-3.2236366272,1.3346838951,-113.2615966797,0.0613784567,0.0464525372,0.0086907148,-113.3688049316,75.4861297607,111.1537857056,0.0398643613,0.0581822097,0.0114511251,-1.1009823084,82.2436141968,27.2347011566,0.0269836783,0.0265487432,0.0246508271,26.3801593781,55.0070152283,106.2273864746,0.0760582089,0.0117000937,0.0026604533,
2375.243,-3.2231223583,1.3357163668,-113.2598342896,0.0565136634,0.0420490280,0.0038077831,-113.2381668091,75.4766693115,111.3065872192,0.0368932486,0.0590438694,0.0134280920,-1.1087054014,82.2466735840,27.2374114990,0.0211315155,0.0290075243,0.0203097612,26.3833332062,55.0087890625,106.2367095947,0.0750994086,-0.0024771094,-0.0021844506,
2375.253,-3.2232232094,1.3374267817,-113.2586898804,0.0541021004,0.0420507453,0.0062498450,-113.1125183105,75.4639587402,111.4569702148,0.0422086716,0.0594569445,0.0081215501,-1.1343733072,82.2489547729,27.2240028381,0.0245548487,0.0276030451,0.0247431844,26.3872833252,55.0072288513,106.2458801270,0.0789900422,0.0018720627,0.0026959181,
2375.263,-3.2220211029,1.3350745440,-113.2555847168,0.0623618364,0.0464243852,0.0091776848,-112.9621505737,75.4498977661,111.6277160645,0.0367760062,0.0516330600,0.0178586245,-1.1631544828,82.2540969849,27.2057132721,0.0314028859,0.0232752264,0.0155562162,26.3925647736,55.0046234131,106.2553405762,0.0794522166,0.0066908598,0.0061035156,
2375.273,-3.2192864418,1.3339986801,-113.2543487549,0.0618547872,0.0497947447,0.0101507306,-112.7915878296,75.4372482300,111.8165054321,0.0391619205,0.0530963540,0.0201786160,-1.1918339729,82.2531356812,27.1838092804,0.0294474959,0.0233438015,0.0262829661,26.3930110931,55.0061225891,106.2603530884,0.0706781745,-0.0045339465,-0.0011985898,
2375.283,-3.2198717594,1.3349553347,-113.2532348633,0.0589417927,0.0424806960,0.0081989765,-112.5858459473,75.4235992432,112.0378723145,0.0366605520,0.0556106269,0.0218715072,-1.2248293161,82.2539978027,27.1580486298,0.0294495225,0.0258633792,0.0219056755,26.3925704956,55.0051155090,106.2639312744,0.0770157576,0.0047408044,0.0056212544,
2375.293,-3.2225892544,1.3352909088,-113.2527160645,0.0565062426,0.0352038108,0.0018536448,-112.3494720459,75.4111022949,112.2898406982,0.0307462811,0.0527850688,0.0185462236,-1.2652871609,82.2565307617,27.1237525940,0.0250609517,0.0220524371,0.0214616358,26.3891754150,55.0022468567,106.2660064697,0.0794284344,-0.0006179810,0.0094766617,
2375.303,-3.2247297764,1.3339327574,-113.2521591187,0.0628301948,0.0391473807,0.0130858421,-112.1006774902,75.3949661255,112.5515518188,0.0379995108,0.0529627651,0.0083538890,-1.2878409624,82.2589645386,27.1079444885,0.0250666738,0.0264996737,0.0175978541,26.3922348022,55.0002822876,106.2731781006,0.0779439211,0.0037366152,0.0045817494,
2375.313,-3.2257840633,1.3360167742,-113.2504577637,0.0550540611,0.0386774167,0.0062518120,-111.8197250366,75.3786773682,112.8451919556,0.0335332751,0.0566105098,0.0195107460,-1.3094915152,82.2640609741,27.0917358398,0.0289849043,0.0285022855,0.0142678171,26.3975296021,55.0013542175,106.2826690674,0.0686773062,0.0061373711,-0.0027049184,
2375.323,-3.2261967659,1.3359444141,-113.2499160767,0.0604238883,0.0430791378,0.0121116638,-111.5368652344,75.3577651978,113.1481323242,0.0339293480,0.0652111769,0.0160352588,-1.3639168739,82.2708892822,27.0453014374,0.0255829692,0.0188631713,0.0104821473,26.4031429291,55.0012702942,106.2927398682,0.0799069405,0.0055981576,-0.0017045736,
2375.333,-3.2271740437,1.3357070684,-113.2481613159,0.0609080344,0.0411430560,0.0028351545,-111.2437591553,75.3343505859,113.4652404785,0.0387088060,0.0548201799,0.0154565573,-1.3985066414,82.2757644653,27.0157070160,0.0251061320,0.0223612338,0.0134959221,26.4049758911,55.0017929077,106.3008575439,0.0750293732,-0.0002742708,-0.0012010336,
2375.343,-3.2288184166,1.3367023468,-113.2470092773,0.0545777418,0.0387302674,0.0101613402,-110.9154891968,75.3114852905,113.8221817017,0.0405607820,0.0620505661,0.0225351453,-1.4376840591,82.2796325684,26.9819889069,0.0299980044,0.0224524736,0.0155196339,26.4068355560,55.0017700195,106.3078689575,0.0711228848,-0.0002911389,0.0022248030,
2375.353,-3.2260251045,1.3352019787,-113.2469711304,0.0608992204,0.0479589775,0.0086930990,-110.5564270020,75.2850265503,114.2215042114,0.0365373492,0.0571720004,0.0226634741,-1.4484994411,82.2814636230,26.9737243652,0.0265843272,0.0278484970,0.0243365467,26.4109783173,55.0049858093,106.3146286011,0.0687136650,0.0065280795,-0.0001571178,
2375.363,-3.2233123779,1.3375813961,-113.2494735718,0.0531282350,0.0479116663,0.0042970181,-110.1311187744,75.2526168823,114.6893310547,0.0324872732,0.0480853617,0.0254698992,-1.4838913679,82.2824249268,26.9424686432,0.0295162797,0.0254905224,0.0233805478,26.4134426117,55.0050315857,106.3208389282,0.0862922668,0.0026000738,-0.0001453757,
2375.373,-3.2225077152,1.3376815319,-113.2482452393,0.0555713922,0.0430148356,0.0101555586,-109.6368560791,75.2181930542,115.2244644165,0.0342872739,0.0493792444,0.0309144855,-1.5249326229,82.2824783325,26.9067764282,0.0241453052,0.0255877674,0.0297319293,26.4164905548,55.0059051514,106.3283767700,0.0775119662,0.0094141364,0.0042733550,
2375.383,-3.2236936092,1.3369866610,-113.2458343506,0.0584889501,0.0381527022,0.0067384839,-109.0958480835,75.1810455322,115.8052902222,0.0321685076,0.0512581766,0.0249297023,-1.5764434338,82.2865982056,26.8635807037,0.0217135549,0.0266844928,0.0205276310,26.4135189056,55.0097351074,106.3313140869,0.0677846670,-0.0046949387,-0.0030146241,
2375.393,-3.2230138779,1.3364078999,-113.2434616089,0.0623851046,0.0425354019,0.0072258115,-108.5157775879,75.1417846680,116.4202957153,0.0339461565,0.0497893542,0.0217012763,-1.6192764044,82.2884826660,26.8279209137,0.0226945281,0.0258084536,0.0234937668,26.4178924561,55.0113067627,106.3394088745,0.0736597776,0.0030883551,-0.0039515495,
2375.403,-3.2232203484,1.3361346722,-113.2428741455,0.0589623675,0.0459569730,0.0116204023,-107.9075469971,75.0988845825,117.0608596802,0.0376601219,0.0527927279,0.0227439404,-1.6748770475,82.2949218750,26.7795181274,0.0217330456,0.0244721025,0.0148167610,26.4192123413,55.0115165710,106.3475799561,0.0761032701,0.0001480877,0.0067990422,
2375.413,-3.2239544392,1.3346252441,-113.2422561646,0.0608891547,0.0420635454,0.0042964220,-107.2939300537,75.0475082397,117.7068710327,0.0418236852,0.0485907793,0.0135284662,-1.7529201508,82.3034896851,26.7109909058,0.0227296352,0.0217225850,0.0193640292,26.4238605499,55.0141067505,106.3594055176,0.0648987293,-0.0028068125,0.0044109821,
2375.423,-3.2228908539,1.3360773325,-113.2405929565,0.0614027753,0.0439981073,0.0023428202,-106.6858673096,74.9863052368,118.3545379639,0.0356881618,0.0508649498,0.0102172494,-1.8371760845,82.3091201782,26.6360874176,0.0222545266,0.0248483419,0.0253252685,26.4337539673,55.0146331787,106.3771286011,0.0658805370,0.0054086149,0.0000677705,
2375.433,-3.2247400284,1.3359930515,-113.2388153076,0.0584716164,0.0401240699,0.0096687675,-106.0785598755,74.9130859375,119.0196304321,0.0387743115,0.0562403202,0.0137719512,-1.9587224722,82.3179321289,26.5256385803,0.0217868090,0.0192708671,0.0137670338,26.4467334747,55.0141410828,106.3952407837,0.0780826807,0.0062657297,-0.0023221374,
2375.443,-3.2243726254,1.3386080265,-113.2371902466,0.0575406812,0.0371879302,0.0082046986,-105.4537658691,74.8230133057,119.7268447876,0.0408053398,0.0526096821,0.0211977363,-2.0619587898,82.3225326538,26.4340877533,0.0252155066,0.0234178156,0.0236197561,26.4549732208,55.0136680603,106.4108200073,0.0702654123,0.0037474036,0.0030794740,
2375.453,-3.2246820927,1.3392809629,-113.2360305786,0.0575524196,0.0435409620,0.0008810163,-104.8028259277,74.7173080444,120.4719238281,0.0456917882,0.0424061120,0.0202330351,-2.1702716351,82.3280868530,26.3388233185,0.0252284408,0.0197633207,0.0203056335,26.4640960693,55.0125274658,106.4271392822,0.0780664682,0.0036584139,-0.0081248879,
2375.463,-3.2240707874,1.3383899927,-113.2348022461,0.0590017214,0.0445069000,0.0086924434,-104.1145858765,74.5988311768,121.2505645752,0.0485626459,0.0407298803,0.0161746740,-2.2658360004,82.3290252686,26.2545700073,0.0276720524,0.0180346668,0.0335141122,26.4657402039,55.0128211975,106.4367446899,0.0736749172,0.0012041330,0.0040935278,
2375.473,-3.2254722118,1.3398661613,-113.2336883545,0.0570743494,0.0396484621,0.0067415833,-103.3998184204,74.4681167603,122.0483856201,0.0547901988,0.0436482430,0.0129640102,-2.3441731930,82.3337860107,26.1865406036,0.0188940763,0.0177275836,0.0223715752,26.4664325714,55.0139694214,106.4454421997,0.0722215772,0.0007168949,0.0055755377,
2375.483,-3.2257568836,1.3399485350,-113.2331848145,0.0619586036,0.0435596742,0.0101597905,-102.6794357300,74.3235626221,122.8499374390,0.0502052903,0.0355402827,0.0043438077,-2.4189136028,82.3404922485,26.1201763153,0.0247690678,0.0208283514,0.0146806538,26.4744491577,55.0177040100,106.4595642090,0.0683526993,0.0060400367,-0.0045942664,
2375.493,-3.2241649628,1.3379350901,-113.2313995361,0.0672945678,0.0479265153,0.0072275996,-101.9366149902,74.1615600586,123.6563339233,0.0382069945,0.0218506455,0.0083053112,-2.4847664833,82.3463134766,26.0599651337,0.0296654105,0.0297680050,0.0172267258,26.4806480408,55.0202445984,106.4714126587,0.0649601221,0.0020943582,-0.0055107474,
2375.503,-3.2263062000,1.3394566774,-113.2315292358,0.0565789267,0.0372215956,0.0038124323,-101.1971054077,73.9903030396,124.4393615723,0.0339689255,0.0302499533,0.0049098134,-2.5837254524,82.3524475098,25.9665527344,0.0238202810,0.0231598169,0.0222260356,26.4857501984,55.0185356140,106.4811706543,0.0678727627,-0.0004036129,0.0052322745,
2375.513,-3.2275741100,1.3386679888,-113.2298889160,0.0673073530,0.0357788540,0.0077195168,-100.4601440430,73.8083038330,125.2058868408,0.0394356847,0.0324426591,0.0039186478,-2.6882040501,82.3591766357,25.8656539917,0.0150468349,0.0263293982,0.0238166302,26.4928855896,55.0136756897,106.4943466187,0.0697772503,0.0019428134,0.0120378137,
2375.523,-3.2270491123,1.3384870291,-113.2299194336,0.0585151315,0.0421173759,0.0116251111,-99.7304992676,73.6162948608,125.9563827515,0.0463082790,0.0391545892,-0.0078365207,-2.7974495888,82.3680114746,25.7549552917,0.0155556202,0.0285314173,0.0205608755,26.5007266998,55.0083770752,106.5043258667,0.0799781084,-0.0049971044,0.0022393465,
2375.533,-3.2268655300,1.3367689848,-113.2287216187,0.0638562441,0.0430907719,0.0038118362,-98.9938964844,73.4084014893,126.7139358521,0.0501613617,0.0465873480,-0.0040482879,-2.9386377335,82.3777923584,25.6133880615,0.0243673325,0.0249473602,0.0192790627,26.5100460052,55.0049171448,106.5184402466,0.0711544156,-0.0016846955,0.0022371411,
2375.543,-3.2267653942,1.3364292383,-113.2287521362,0.0565261021,0.0386945084,-0.0005829930,-98.2522811890,73.1831436157,127.4982604980,0.0465899110,0.0547621548,0.0138205886,-3.0743923187,82.3844604492,25.4790782928,0.0282890201,0.0257470608,0.0184340179,26.5215606689,54.9997520447,106.5334091187,0.0745207071,0.0069682002,0.0080814362,
2375.553,-3.2269940376,1.3372060061,-113.2282562256,0.0594693422,0.0416281559,0.0086949468,-97.5511093140,72.9304504395,128.2813873291,0.0516523123,0.0545345247,0.0049962401,-3.1880216599,82.3898468018,25.3659133911,0.0224421024,0.0269842446,0.0292784870,26.5360031128,54.9927444458,106.5499038696,0.0793333054,0.0067941248,0.0021976233,
2375.563,-3.2265949249,1.3362450600,-113.2264633179,0.0614056997,0.0416212268,0.0057645440,-96.8445892334,72.6551971436,129.1099548340,0.0541373491,0.0614836514,0.0204944015,-3.2883872986,82.3939743042,25.2658462524,0.0273344517,0.0286792666,0.0274127424,26.5454692841,54.9908523560,106.5614395142,0.0724784136,-0.0006271303,-0.0090154409,
2375.573,-3.2268176079,1.3335504532,-113.2258605957,0.0652649328,0.0416251719,0.0101581216,-96.1604461670,72.3536071777,129.9490203857,0.0510900617,0.0595390201,0.0116249323,-3.4116852283,82.4019546509,25.1425781250,0.0327239633,0.0187050402,0.0177991688,26.5535926819,54.9855766296,106.5729827881,0.0841443539,0.0017079115,0.0051143765,
2375.583,-3.2263157368,1.3345721960,-113.2247390747,0.0589351021,0.0440578125,0.0145525336,-95.4770812988,72.0379028320,130.8138427734,0.0518466830,0.0651122034,0.0217010975,-3.5050530434,82.4051361084,25.0479526520,0.0258953571,0.0247786641,0.0227510035,26.5639305115,54.9830284119,106.5872039795,0.0802125931,0.0059934258,-0.0021967888,
2375.593,-3.2270910740,1.3324774504,-113.2235565186,0.0628048033,0.0377237014,-0.0020491481,-94.8171615601,71.7059860229,131.6692657471,0.0578567386,0.0567408204,0.0049432516,-3.6001195908,82.4085464478,24.9500122070,0.0312743187,0.0210903734,0.0174493343,26.5699710846,54.9784965515,106.5941085815,0.0874913931,-0.0004372895,0.0099798441,
2375.603,-3.2255330086,1.3343222141,-113.2230682373,0.0579541810,0.0435559005,0.0111336708,-94.1568756104,71.3631210327,132.5191650391,0.0535199642,0.0543686152,0.0154100060,-3.6560759544,82.4100952148,24.8894786835,0.0327427387,0.0231720209,0.0174859464,26.5733146667,54.9789886475,106.5983810425,0.0708947778,0.0005124807,0.0109776258,
2375.613,-3.2242918015,1.3297934532,-113.2211303711,0.0671525002,0.0489054695,-0.0015647411,-93.4949951172,71.0039825439,133.3444213867,0.0544279218,0.0414783359,0.0174492002,-3.7064633369,82.4119567871,24.8321018219,0.0259110928,0.0247521996,0.0224064887,26.5704956055,54.9790802002,106.5960693359,0.0718722343,-0.0028797090,0.0060832500,
2375.623,-3.2248578072,1.3298705816,-113.2205810547,0.0598296300,0.0425676741,0.0101547837,-92.8655395508,70.6368331909,134.1202392578,0.0459750891,0.0486817360,0.0122191906,-3.7548677921,82.4121170044,24.7748870850,0.0254231691,0.0224232227,0.0214410722,26.5716476440,54.9809684753,106.5986099243,0.0699380636,-0.0004364550,0.0031831861,
2375.633,-3.2229735851,1.3309192657,-113.2206573486,0.0583830848,0.0469293632,0.0082002878,-92.2848205566,70.2585372925,134.8465270996,0.0462068319,0.0442921519,0.0086134672,-3.8017654419,82.4143142700,24.7239837646,0.0224985480,0.0279010087,0.0239264220,26.5730514526,54.9783287048,106.6021957397,0.0821186304,0.0058816373,0.0080379844,
2375.643,-3.2206768990,1.3316345215,-113.2189254761,0.0598604083,0.0439596400,0.0067334175,-91.7378768921,69.8731536865,135.5491790771,0.0448901653,0.0511990786,0.0128994584,-3.8704459667,82.4172363281,24.6510868073,0.0225052834,0.0285457224,0.0249629021,26.5751285553,54.9777870178,106.6084289551,0.0679530501,0.0024416149,0.0046225190,
2375.653,-3.2198376656,1.3345749378,-113.2191390991,0.0584468693,0.0410152711,0.0160111189,-91.2249450684,69.4747009277,136.2439117432,0.0390565395,0.0563181341,0.0070230961,-3.9557085037,82.4205474854,24.5627517700,0.0249543190,0.0258103460,0.0245458186,26.5841693878,54.9747352600,106.6199340820,0.0728052855,0.0038060248,-0.0026996732,
2375.663,-3.2195744514,1.3337023258,-113.2168121338,0.0657558665,0.0410107039,0.0121042132,-90.7339248657,69.0533828735,136.9479217529,0.0501248837,0.0495587587,0.0158193707,-4.0482249260,82.4263458252,24.4651947021,0.0269207954,0.0284598172,0.0241708159,26.5945262909,54.9695243835,106.6339797974,0.0717765093,0.0085626543,0.0085105896,
2375.673,-3.2194371223,1.3351498842,-113.2163009644,0.0569920614,0.0429614000,0.0047804713,-90.2625503540,68.6161346436,137.6456604004,0.0498108864,0.0483856797,0.0241352320,-4.1513442993,82.4317169189,24.3578281403,0.0259565711,0.0218567401,0.0169546008,26.6030178070,54.9633140564,106.6448898315,0.0795268416,0.0035639703,0.0050508976,
2375.683,-3.2194507122,1.3362361193,-113.2151641846,0.0560344495,0.0424733311,-0.0015671253,-89.8299865723,68.1650009155,138.2944793701,0.0566768050,0.0444620252,0.0013368130,-4.2670936584,82.4383010864,24.2332801819,0.0181592107,0.0250465423,0.0151346624,26.6076259613,54.9635887146,106.6516494751,0.0599983335,-0.0028231442,-0.0012720823,
2375.693,-3.2206556797,1.3385729790,-113.2147293091,0.0604697578,0.0424942672,0.0096663237,-89.4077148438,67.7105178833,138.9278564453,0.0527207851,0.0654520690,0.0112103820,-4.3890900612,82.4399414063,24.1005916595,0.0196278095,0.0243507326,0.0298304558,26.6139907837,54.9590644836,106.6596450806,0.0721600056,-0.0004677474,0.0094408393,
2375.703,-3.2206046581,1.3379235268,-113.2135696411,0.0604584292,0.0424933955,0.0130829811,-89.0213851929,67.2589950562,139.5457763672,0.0501913428,0.0829363465,0.0090129375,-4.4989490509,82.4440155029,23.9801807404,0.0269613862,0.0221583694,0.0265025795,26.6234149933,54.9557914734,106.6688385010,0.0726155043,-0.0005731881,-0.0017891526,
2375.713,-3.2208487988,1.3371479511,-113.2123947144,0.0628862977,0.0415211096,0.0086893439,-88.6805801392,66.8032455444,140.1528778076,0.0514818430,0.0770153403,0.0075184703,-4.6066312790,82.4481430054,23.8631057739,0.0259943008,0.0258199722,0.0138981938,26.6379489899,54.9533271790,106.6803665161,0.0799150467,0.0026988089,-0.0046848655,
2375.723,-3.2211487293,1.3340455294,-113.2105865479,0.0667384118,0.0434795246,0.0052695870,-88.3693618774,66.3376464844,140.7554779053,0.0589929223,0.0624275208,0.0095592141,-4.7094197273,82.4518585205,23.7491779327,0.0255145431,0.0250760764,0.0134919435,26.6442565918,54.9501075745,106.6855850220,0.0779296160,-0.0007963181,0.0036030412,
2375.733,-3.2204101086,1.3333102465,-113.2100372314,0.0623310506,0.0429783985,0.0008744001,-88.0804748535,65.8692092896,141.3499908447,0.0507981777,0.0585936606,0.0141188502,-4.7890310287,82.4567337036,23.6584682465,0.0274788141,0.0296478420,0.0165187418,26.6523246765,54.9487533569,106.6914062500,0.0779160261,0.0020523071,0.0011806488,
2375.743,-3.2198202610,1.3339607716,-113.2095031738,0.0574595928,0.0424798205,-0.0005911589,-87.8299713135,65.3940200806,141.9159698486,0.0542122126,0.0533717871,-0.0011392236,-4.8860731125,82.4571685791,23.5484466553,0.0240618587,0.0240120590,0.0267992914,26.6555900574,54.9463996887,106.6948471069,0.0803338885,0.0005431473,0.0031185150,
2375.753,-3.2205793858,1.3366357088,-113.2089920044,0.0506703295,0.0376101732,0.0086883307,-87.6039657593,64.9113464355,142.4537200928,0.0545786023,0.0540965796,-0.0006604195,-4.9713139534,82.4613647461,23.4465789795,0.0265128613,0.0266442299,0.0224927068,26.6618156433,54.9478263855,106.7001647949,0.0700942874,-0.0014565885,-0.0031827688,
2375.763,-3.2230980396,1.3363258839,-113.2085113525,0.0609188303,0.0337478034,0.0028313994,-87.4062728882,64.4306106567,142.9589996338,0.0573366880,0.0557386279,-0.0058845878,-5.0833992958,82.4618835449,23.3184394836,0.0265140533,0.0200662315,0.0293609798,26.6702957153,54.9457321167,106.7053604126,0.0739794970,0.0033367872,-0.0002418160,
2375.773,-3.2212092876,1.3355858326,-113.2079772949,0.0648121685,0.0468985103,0.0091768503,-87.2233581543,63.9471778870,143.4348602295,0.0556160808,0.0407892168,0.0006707311,-5.1809687614,82.4678726196,23.2052345276,0.0270160437,0.0305362046,0.0221577585,26.6789073944,54.9431076050,106.7126235962,0.0749297738,0.0008014143,-0.0012129545,
2375.783,-3.2196750641,1.3341217041,-113.2073669434,0.0628334954,0.0478483811,0.0033153892,-87.0508728027,63.4633750916,143.8873596191,0.0548052192,0.0453436077,0.0057953596,-5.3079042435,82.4738845825,23.0595512390,0.0192173123,0.0244716853,0.0193582624,26.6877670288,54.9395103455,106.7207107544,0.0753819942,-0.0007659495,0.0012219548,
2375.793,-3.2204384804,1.3336030245,-113.2062377930,0.0642892867,0.0439554416,0.0125932097,-86.8962249756,62.9788894653,144.3101654053,0.0549017191,0.0440185070,0.0056468844,-5.4604878426,82.4785079956,22.8868465424,0.0221575499,0.0223743021,0.0267938524,26.7025089264,54.9362945557,106.7315597534,0.0704669356,0.0034759045,0.0027126074,
2375.803,-3.2213239670,1.3332557678,-113.2057266235,0.0613535419,0.0371349379,0.0111292005,-86.7549896240,62.4921569824,144.6984710693,0.0578460693,0.0373260379,0.0021473169,-5.6144986153,82.4818420410,22.7127799988,0.0309542418,0.0193052292,0.0229791850,26.7163162231,54.9332313538,106.7431411743,0.0728776455,0.0013794303,0.0022475123,
2375.813,-3.2217712402,1.3334401846,-113.2045669556,0.0594036356,0.0430021062,0.0052704215,-86.6166992188,62.0112380981,145.0621185303,0.0529615283,0.0475974083,0.0118259788,-5.7508049011,82.4877014160,22.5527496338,0.0216902494,0.0244916230,0.0187145174,26.7287464142,54.9283142090,106.7513427734,0.0786876678,0.0031895339,0.0037053823,
2375.823,-3.2231936455,1.3353321552,-113.2040939331,0.0555303991,0.0396088772,0.0077135563,-86.4704284668,61.5341873169,145.4142608643,0.0568360686,0.0475143492,0.0248261094,-5.8940262794,82.4912490845,22.3898582458,0.0319522619,0.0287207663,0.0202730447,26.7424182892,54.9218826294,106.7613677979,0.0752052069,0.0059553981,0.0046616197,
2375.833,-3.2228519917,1.3354647160,-113.2016296387,0.0555327088,0.0435091630,0.0047844648,-86.3325347900,61.0619430542,145.7427368164,0.0582488179,0.0570903122,0.0178469419,-6.0440435410,82.4961166382,22.2203807831,0.0217094421,0.0222206712,0.0213670731,26.7557773590,54.9178047180,106.7727661133,0.0727229118,0.0028797686,0.0012518764,
2375.843,-3.2217905521,1.3373463154,-113.2005920410,0.0599600747,0.0439789109,0.0072247982,-86.1955947876,60.5906333923,146.0497283936,0.0615632534,0.0558731258,0.0230513811,-6.1885857582,82.4985427856,22.0571651459,0.0217149854,0.0328016728,0.0273038000,26.7737293243,54.9111061096,106.7881546021,0.0755853653,0.0051172078,0.0046655536,
2375.853,-3.2214715481,1.3359706402,-113.1993865967,0.0628657565,0.0434851088,0.0091773868,-86.0852203369,60.1249694824,146.3266296387,0.0677975416,0.0677310824,0.0030710101,-6.3298907280,82.5030212402,21.9011993408,0.0280728340,0.0262812078,0.0215569735,26.7899570465,54.9080276489,106.8017120361,0.0755544901,0.0044637918,-0.0016478300,
2375.863,-3.2222247124,1.3351904154,-113.1988296509,0.0604107380,0.0420333967,0.0023414493,-86.0019912720,59.6556549072,146.5855407715,0.0690594912,0.0640004277,0.0033197999,-6.4598708153,82.5073394775,21.7559642792,0.0271061063,0.0290122628,0.0294743180,26.8055782318,54.9062690735,106.8155899048,0.0750485659,0.0004062653,-0.0064823627,
2375.873,-3.2223944664,1.3369891644,-113.1983413696,0.0580007136,0.0439894460,0.0077138543,-85.9618911743,59.1821670532,146.8336944580,0.0672965646,0.0617884398,-0.0068114400,-6.5928163528,82.5113143921,21.6129913330,0.0349276662,0.0195430070,0.0203008056,26.8198299408,54.9028472900,106.8283767700,0.0833150148,0.0007447898,-0.0074378848,
2375.883,-3.2232756615,1.3368529081,-113.1965789795,0.0584866181,0.0371688604,0.0047848821,-85.9540176392,58.7073020935,147.0810546875,0.0683922768,0.0722772479,0.0038483739,-6.6831007004,82.5163269043,21.5125255585,0.0246851444,0.0348764807,0.0233375132,26.8302459717,54.9022674561,106.8394088745,0.0784263611,0.0035773814,-0.0025154948,
2375.893,-3.2232966423,1.3367810249,-113.1947326660,0.0540908314,0.0400989130,0.0082029104,-85.9852294922,58.2369842529,147.3239440918,0.0748420358,0.0641340613,-0.0066125393,-6.7934575081,82.5204696655,21.3869018555,0.0237179995,0.0170538872,0.0224614441,26.8380985260,54.8992500305,106.8445816040,0.0837672353,0.0015345216,0.0038294792,
2375.903,-3.2219157219,1.3369958401,-113.1923141479,0.0575125478,0.0449576639,0.0086899400,-86.0289916992,57.7773666382,147.5806274414,0.0647326112,0.0685023069,0.0006420612,-6.9171733856,82.5269317627,21.2474288940,0.0208029747,0.0139051527,0.0079565346,26.8461589813,54.8976974487,106.8499374390,0.0827750564,-0.0005007982,-0.0010365248,
2375.913,-3.2223300934,1.3363484144,-113.1899185181,0.0604309402,0.0430117734,0.0057600737,-86.0920867920,57.3231048584,147.8450622559,0.0658496618,0.0566575527,-0.0006921291,-7.0162210464,82.5275039673,21.1291522980,0.0247105360,0.0253604054,0.0304543972,26.8513031006,54.8915481567,106.8519134521,0.0846664906,-0.0020513535,0.0130685568,
2375.923,-3.2244074345,1.3337771893,-113.1893005371,0.0628274828,0.0371886492,0.0140622258,-86.1704483032,56.8768501282,148.1096038818,0.0655253530,0.0500433445,-0.0047854781,-7.0976467133,82.5316543579,21.0256633759,0.0237433910,0.0250490308,0.0149231255,26.8594741821,54.8887443542,106.8555603027,0.0797554851,0.0017636418,-0.0001131892,
2375.933,-3.2255077362,1.3330032825,-113.1899719238,0.0603725724,0.0386726744,0.0086917877,-86.2479171753,56.4378814697,148.3702850342,0.0622908473,0.0471969247,0.0013929009,-7.1838269234,82.5342330933,20.9166984558,0.0222843885,0.0262165219,0.0223153979,26.8691158295,54.8890686035,106.8609390259,0.0738993883,0.0065621138,0.0009105802,
2375.943,-3.2255852222,1.3350040913,-113.1888809204,0.0574777983,0.0420919470,0.0096693039,-86.3216171265,56.0018501282,148.6167144775,0.0609892011,0.0345077515,0.0002328157,-7.2927846909,82.5337600708,20.7811088562,0.0261895657,0.0235360116,0.0218509585,26.8801803589,54.8859405518,106.8665924072,0.0758211017,0.0054662824,0.0067806840,
2375.953,-3.2259874344,1.3355748653,-113.1871643066,0.0604174435,0.0430754982,0.0082049966,-86.3889007568,55.5674514771,148.8421173096,0.0611205697,0.0334775448,0.0029356480,-7.3959989548,82.5336761475,20.6521625519,0.0247245431,0.0330484957,0.0272518247,26.8921489716,54.8835067749,106.8737487793,0.0753083825,-0.0024691522,0.0028977990,
2375.963,-3.2265555859,1.3350439072,-113.1866226196,0.0618730225,0.0425971337,0.0077171326,-86.4489212036,55.1326026917,149.0559082031,0.0621765256,0.0358354449,0.0070469975,-7.4971337318,82.5371246338,20.5254745483,0.0247323513,0.0313180983,0.0200146586,26.9058036804,54.8811035156,106.8813095093,0.0708897114,0.0022758245,0.0029292107,
2375.973,-3.2275550365,1.3355613947,-113.1855468750,0.0623703301,0.0411496907,0.0013707280,-86.5064239502,54.6991767883,149.2607421875,0.0602698922,0.0488809347,0.0116380453,-7.6186408997,82.5374069214,20.3775691986,0.0213150382,0.0311056525,0.0254270732,26.9199542999,54.8777084351,106.8907165527,0.0776915550,0.0006622970,0.0049034953,
2375.983,-3.2261402607,1.3378050327,-113.1831588745,0.0526438579,0.0450312421,0.0121124387,-86.5601196289,54.2654113770,149.4647979736,0.0607545376,0.0433415174,0.0181571245,-7.7430305481,82.5359954834,20.2298469543,0.0247297883,0.0304152966,0.0283705592,26.9352779388,54.8751182556,106.9006423950,0.0766890049,0.0053911209,-0.0028722286,
2375.993,-3.2256805897,1.3374241590,-113.1813430786,0.0570317432,0.0440466851,-0.0005840659,-86.6259002686,53.8251876831,149.6601409912,0.0601495504,0.0456798673,0.0052774549,-7.8794627190,82.5362243652,20.0705757141,0.0271717310,0.0302365869,0.0254887044,26.9468441010,54.8748321533,106.9083404541,0.0727798939,0.0004029274,-0.0037997365,
2376.003,-3.2251758575,1.3373405933,-113.1814193726,0.0624013767,0.0420847647,0.0096701384,-86.7033920288,53.3816566467,149.8554840088,0.0550680161,0.0485257506,0.0164581537,-8.0084123611,82.5384902954,19.9195690155,0.0262002945,0.0285713375,0.0280084610,26.9615154266,54.8720817566,106.9178771973,0.0747053623,0.0031834245,0.0045328140,
2376.013,-3.2287020683,1.3367576599,-113.1815185547,0.0594615191,0.0367751159,-0.0015577674,-86.8116226196,52.9378356934,150.0398101807,0.0582360029,0.0533104539,0.0045443773,-8.1403064728,82.5416717529,19.7680339813,0.0276723504,0.0288632214,0.0241992325,26.9778652191,54.8686027527,106.9289321899,0.0756469965,0.0074090362,0.0074927211,
2376.023,-3.2255532742,1.3360787630,-113.1790390015,0.0604262352,0.0533218384,0.0023453832,-86.9235229492,52.4977874756,150.2300567627,0.0565134287,0.0580083132,0.0195529461,-8.2812404633,82.5473022461,19.6082668304,0.0291499496,0.0242866278,0.0175037682,26.9941978455,54.8665695190,106.9385147095,0.0673257709,0.0018784702,-0.0032010674,
2376.033,-3.2246842384,1.3369336128,-113.1785507202,0.0589763075,0.0391465202,0.0023449063,-87.0469741821,52.0561752319,150.4110717773,0.0600983500,0.0431659818,0.0156673789,-8.4154300690,82.5487289429,19.4533615112,0.0218289495,0.0245874375,0.0244080126,27.0090217590,54.8613967896,106.9491348267,0.0711801052,0.0036654174,0.0070548058,
2376.043,-3.2247974873,1.3346607685,-113.1785812378,0.0657725856,0.0420782305,0.0091802478,-87.1790924072,51.6084976196,150.5704345703,0.0635707378,0.0303269625,-0.0022611618,-8.5267343521,82.5539474487,19.3232173920,0.0208641887,0.0292209983,0.0279522240,27.0222816467,54.8579673767,106.9586563110,0.0701690912,0.0035245121,0.0075603724,
2376.053,-3.2228798866,1.3349660635,-113.1773910522,0.0569888502,0.0469276309,0.0096662045,-87.3071899414,51.1602630615,150.7185516357,0.0669891238,0.0291721225,0.0115347505,-8.6521768570,82.5569229126,19.1772270203,0.0242888927,0.0231497884,0.0212090909,27.0370159149,54.8545150757,106.9682922363,0.0808765888,0.0048350394,0.0002590418,
2376.063,-3.2223734856,1.3353482485,-113.1762619019,0.0609017722,0.0420359857,0.0067366362,-87.4390945435,50.7153396606,150.8483123779,0.0630722642,0.0347703099,0.0058727860,-8.7732009888,82.5629882813,19.0342102051,0.0301619768,0.0302439481,0.0228170305,27.0472736359,54.8497886658,106.9747619629,0.0764346123,0.0022712052,0.0036642551,
2376.073,-3.2204759121,1.3356664181,-113.1751632690,0.0633487254,0.0468857363,0.0086876154,-87.5838623047,50.2736968994,150.9562225342,0.0650047064,0.0398018956,-0.0079147816,-8.9041051865,82.5678405762,18.8825855255,0.0218721628,0.0280856341,0.0146438479,27.0587425232,54.8466339111,106.9837112427,0.0803091526,0.0031245053,0.0002581477,
2376.083,-3.2210063934,1.3339152336,-113.1734008789,0.0662478656,0.0405473635,0.0042936802,-87.7292861938,49.8366851807,151.0528259277,0.0669435263,0.0335018039,0.0022639632,-9.0286674500,82.5719909668,18.7348804474,0.0257877707,0.0254259408,0.0225719810,27.0683803558,54.8418617249,106.9885025024,0.0729368925,-0.0023638010,0.0080543160,
2376.093,-3.2203650475,1.3339300156,-113.1716232300,0.0579473376,0.0424893163,0.0042921901,-87.8635635376,49.4063606262,151.1396179199,0.0630545020,0.0314617753,0.0060037971,-9.1707916260,82.5711135864,18.5708217621,0.0243209600,0.0218427777,0.0260260701,27.0787105560,54.8378944397,106.9941940308,0.0758267641,-0.0005289018,0.0046333075,
2376.103,-3.2196159363,1.3343400955,-113.1710586548,0.0584427752,0.0429645404,0.0038041472,-87.9787673950,48.9808692932,151.2211761475,0.0606428385,0.0229639411,0.0017427802,-9.2938232422,82.5739135742,18.4246673584,0.0301866531,0.0255302340,0.0197727531,27.0895309448,54.8344841003,106.9997711182,0.0738393664,-0.0035775900,0.0065926909,
2376.113,-3.2201836109,1.3332161903,-113.1711578369,0.0637942553,0.0405330434,0.0067331791,-88.0603485107,48.5556526184,151.3111267090,0.0606341362,0.0168530941,0.0244607925,-9.4081687927,82.5754013062,18.2854537964,0.0253071785,0.0277375281,0.0222769827,27.0998172760,54.8303642273,107.0059738159,0.0786807537,0.0021629333,0.0002397299,
2376.123,-3.2187263966,1.3335961103,-113.1699905396,0.0589180738,0.0409959294,0.0111271739,-88.1258926392,48.1327667236,151.3983001709,0.0586582422,0.0282463431,0.0157604814,-9.5553865433,82.5773315430,18.1113758087,0.0253115296,0.0212275535,0.0169954300,27.1098823547,54.8267517090,107.0091857910,0.0801092386,-0.0003920794,0.0056111217,
2376.133,-3.2197203636,1.3334648609,-113.1708145142,0.0667282790,0.0390601195,0.0091744065,-88.1764526367,47.7146453857,151.4886627197,0.0518147945,0.0327001214,0.0195950866,-9.6811151505,82.5786743164,17.9594287872,0.0233614445,0.0244363844,0.0273202956,27.1236724854,54.8252677917,107.0147781372,0.0815591812,-0.0000369251,-0.0006922483,
2376.143,-3.2195038795,1.3324255943,-113.1708908081,0.0637804568,0.0410095006,0.0140566230,-88.2123718262,47.2981224060,151.5843811035,0.0517868996,0.0380684137,0.0198497772,-9.8131303787,82.5824584961,17.7999267578,0.0287410617,0.0266755372,0.0176689327,27.1331920624,54.8236656189,107.0175399780,0.0742188692,-0.0030621886,0.0027490854,
2376.153,-3.2196679115,1.3346230984,-113.1698303223,0.0589359924,0.0439419970,0.0096631050,-88.2491683960,46.8847427368,151.6809692383,0.0478513837,0.0379898548,0.0235422254,-9.9467544556,82.5852355957,17.6392459869,0.0267941952,0.0298973471,0.0167918503,27.1492176056,54.8204345703,107.0275497437,0.0795574784,0.0031209588,-0.0001482368,
2376.163,-3.2191991806,1.3337452412,-113.1691741943,0.0589206778,0.0483283848,0.0111273527,-88.3121185303,46.4688873291,151.7733306885,0.0565434694,0.0515890121,0.0114418864,-10.0941867828,82.5858230591,17.4643001556,0.0267955065,0.0224142373,0.0207664967,27.1624984741,54.8178138733,107.0332107544,0.0736717582,0.0024967790,0.0037859082,
2376.173,-3.2159066200,1.3325985670,-113.1673202515,0.0623186380,0.0516890213,0.0125883818,-88.3853073120,46.0583992004,151.8679962158,0.0501255989,0.0426260829,0.0268247128,-10.2319936752,82.5930480957,17.3005638123,0.0263234973,0.0334438384,0.0141077638,27.1795558929,54.8185653687,107.0438842773,0.0717262030,0.0023490191,-0.0000323653,
2376.183,-3.2167613506,1.3351643085,-113.1686019897,0.0506446585,0.0438913405,0.0067308545,-88.4819717407,45.6459732056,151.9605865479,0.0543892980,0.0463544130,0.0146750808,-10.3864498138,82.5927505493,17.1201686859,0.0233931541,0.0259786397,0.0341843367,27.1976280212,54.8176612854,107.0560226440,0.0809944272,0.0002282262,-0.0019141436,
2376.193,-3.2165620327,1.3362325430,-113.1687011719,0.0584757924,0.0409581624,0.0130789876,-88.5961380005,45.2338943481,152.0516357422,0.0552023053,0.0432099700,0.0144779682,-10.5428724289,82.5967559814,16.9378337860,0.0297498107,0.0277814120,0.0182034373,27.2154140472,54.8139343262,107.0689468384,0.0760741234,0.0088338256,0.0034914017,
2376.203,-3.2155323029,1.3359367847,-113.1675109863,0.0589589141,0.0438699163,0.0057535768,-88.7064514160,44.8179893494,152.1468200684,0.0554429293,0.0288421512,0.0186482072,-10.6890077591,82.6002349854,16.7702236176,0.0234099627,0.0256562829,0.0285757929,27.2335071564,54.8111038208,107.0815658569,0.0701863170,0.0062121451,0.0069573522,
2376.213,-3.2181134224,1.3366818428,-113.1670608521,0.0594602004,0.0356140845,0.0052676201,-88.8121948242,44.4077949524,152.2475128174,0.0503464937,0.0334073305,0.0154588819,-10.8367338181,82.6044158936,16.5990486145,0.0219545364,0.0289027691,0.0213855058,27.2463989258,54.8114089966,107.0899047852,0.0745838881,0.0021924376,-0.0027457476,
2376.223,-3.2187736034,1.3351998329,-113.1664123535,0.0608991832,0.0444146879,0.0072216392,-88.9074478149,44.0016708374,152.3544464111,0.0496598482,0.0290927887,0.0180175900,-10.9894571304,82.6080780029,16.4223079681,0.0219627619,0.0282556266,0.0185818672,27.2602653503,54.8101119995,107.0992050171,0.0760356784,0.0040130615,-0.0090458989,
2376.233,-3.2177641392,1.3340085745,-113.1646118164,0.0623432398,0.0458619706,0.0091725588,-88.9954605103,43.5954322815,152.4622650146,0.0538196564,0.0301116109,0.0117124319,-11.1438579559,82.6107940674,16.2425613403,0.0219688416,0.0285913050,0.0211361051,27.2762145996,54.8079948425,107.1109237671,0.0716198683,0.0023917854,0.0017434359,
2376.243,-3.2188472748,1.3336830139,-113.1634674072,0.0613609925,0.0385566317,0.0101507306,-89.0743331909,43.1949043274,152.5692291260,0.0511814952,0.0280926824,0.0111671686,-11.3237762451,82.6153793335,16.0384674072,0.0214908719,0.0255591869,0.0232450962,27.2912044525,54.8039016724,107.1220474243,0.0774380565,0.0002777874,0.0032250881,
2376.253,-3.2187850475,1.3317468166,-113.1640777588,0.0603506491,0.0405087173,0.0140552521,-89.1425094604,42.7915153503,152.6741027832,0.0523795485,0.0182561278,0.0217289925,-11.5083618164,82.6197662354,15.8309974670,0.0258952379,0.0220490694,0.0204718858,27.3069095612,54.7984085083,107.1345291138,0.0710351467,0.0030311346,0.0061577559,
2376.263,-3.2183983326,1.3340222836,-113.1636352539,0.0584372282,0.0395253599,0.0067325234,-89.2208328247,42.3862380981,152.7658386230,0.0540078282,0.0284260511,0.0046010017,-11.6863641739,82.6222686768,15.6300230026,0.0259008408,0.0258543491,0.0249892026,27.3259735107,54.7927780151,107.1487731934,0.0812324286,0.0057535470,0.0027568340,
2376.273,-3.2187111378,1.3337960243,-113.1631927490,0.0647809356,0.0414839424,-0.0001037717,-89.3100357056,41.9850654602,152.8498382568,0.0497962236,0.0375354886,0.0086240768,-11.8618459702,82.6262054443,15.4317646027,0.0234682560,0.0218359828,0.0163470805,27.3414993286,54.7883605957,107.1606445313,0.0850941539,-0.0002736449,0.0032603145,
2376.283,-3.2195429802,1.3329911232,-113.1626586914,0.0628137663,0.0395453237,0.0072210431,-89.4161224365,41.5795288086,152.9251098633,0.0596551299,0.0300580263,-0.0003011227,-12.0388898849,82.6313171387,15.2335834503,0.0259211063,0.0270933807,0.0179814994,27.3552837372,54.7855300903,107.1699676514,0.0762766600,-0.0004154146,0.0062184930,
2376.293,-3.2208998203,1.3320375681,-113.1602783203,0.0637736917,0.0439635143,0.0091753006,-89.5251846313,41.1782379150,152.9978485107,0.0534231663,0.0317693353,0.0064564347,-12.2069034576,82.6366424561,15.0446414948,0.0190970898,0.0250055194,0.0215662718,27.3678817749,54.7850952148,107.1794815063,0.0718777180,-0.0029723346,0.0028532743,
2376.303,-3.2188053131,1.3332451582,-113.1585083008,0.0559822619,0.0453918427,0.0062436461,-89.6361160278,40.7785987854,153.0671539307,0.0520635843,0.0290284157,0.0127677321,-12.3729267120,82.6391525269,14.8582506180,0.0244737864,0.0243871808,0.0212006867,27.3812065125,54.7810287476,107.1899185181,0.0786727667,0.0007882118,0.0028635859,
2376.313,-3.2205905914,1.3320772648,-113.1585540771,0.0618212596,0.0405401587,0.0072217584,-89.7396240234,40.3843383789,153.1326293945,0.0517203212,0.0247215033,0.0175342560,-12.5302200317,82.6420822144,14.6804542542,0.0181326866,0.0305837095,0.0237669498,27.3959121704,54.7793464661,107.2025909424,0.0698667765,-0.0008192062,0.0053517818,
2376.323,-3.2212181091,1.3325295448,-113.1580429077,0.0584111810,0.0381096750,0.0072226524,-89.8403701782,39.9947700500,153.1861419678,0.0567802191,0.0266708732,0.0061671734,-12.6746606827,82.6427536011,14.5173063278,0.0181341767,0.0333418250,0.0282435417,27.4119319916,54.7770996094,107.2150573730,0.0815628767,0.0004876852,-0.0029034019,
2376.333,-3.2212951183,1.3313261271,-113.1574478149,0.0598550290,0.0400641672,0.0052690506,-89.9380340576,39.6079216003,153.2367095947,0.0535461903,0.0305061340,0.0079565644,-12.8288335800,82.6485443115,14.3426227570,0.0274244547,0.0321952403,0.0166993141,27.4272308350,54.7722358704,107.2252960205,0.0800490975,0.0012955368,0.0000356436,
2376.343,-3.2196755409,1.3314371109,-113.1555938721,0.0554624349,0.0458953269,0.0038022399,-90.0306015015,39.2198257446,153.2817687988,0.0502662063,0.0265049338,0.0092041492,-12.9982366562,82.6506729126,14.1552124023,0.0269409418,0.0281664878,0.0217006207,27.4435195923,54.7690467834,107.2374801636,0.0746458769,0.0016172528,0.0005590916,
2376.353,-3.2195487022,1.3290885687,-113.1549758911,0.0637222379,0.0429634824,0.0018488169,-90.1198883057,38.8296661377,153.3257141113,0.0581596494,0.0259069800,0.0089558959,-13.1593971252,82.6556396484,13.9723434448,0.0284168720,0.0304549336,0.0116137415,27.4584560394,54.7657318115,107.2475814819,0.0751007795,0.0024385750,0.0054697394,
2376.363,-3.2200603485,1.3287526369,-113.1538085938,0.0593218431,0.0405310020,0.0121023655,-90.2074966431,38.4436721802,153.3717193604,0.0450848341,0.0349911451,0.0218816996,-13.2952909470,82.6602935791,13.8165912628,0.0274506807,0.0356187969,0.0181073397,27.4707603455,54.7590560913,107.2565536499,0.0794280767,0.0022846162,0.0034888387,
2376.373,-3.2201378345,1.3278304338,-113.1544265747,0.0607705973,0.0444386192,0.0052668452,-90.2999725342,38.0487403870,153.4163055420,0.0533433557,0.0275326371,0.0138912797,-13.4597845078,82.6595153809,13.6317777634,0.0215895772,0.0232878029,0.0206229538,27.4774246216,54.7568778992,107.2583694458,0.0711054206,-0.0031602085,0.0054458976,
2376.383,-3.2180600166,1.3293589354,-113.1526947021,0.0568910129,0.0453789532,0.0028234720,-90.3954467773,37.6495742798,153.4600524902,0.0473539233,0.0234970450,0.0147453547,-13.5800037384,82.6630706787,13.4908514023,0.0289217234,0.0308619887,0.0100023150,27.4908447266,54.7560462952,107.2674789429,0.0750032663,0.0030620098,0.0001266599,
2376.393,-3.2194139957,1.3294154406,-113.1503829956,0.0622630976,0.0375900380,0.0062431693,-90.4923095703,37.2503166199,153.5032501221,0.0457280874,0.0174685717,0.0166090727,-13.7199039459,82.6658554077,13.3300418854,0.0318576097,0.0282278508,0.0242835283,27.5022125244,54.7534446716,107.2739334106,0.0720473528,0.0019665658,0.0040522814,
2376.403,-3.2206249237,1.3298908472,-113.1505355835,0.0603182651,0.0361462794,0.0062443018,-90.5885696411,36.8537521362,153.5431365967,0.0485050082,0.0265079737,0.0131065249,-13.8862113953,82.6684265137,13.1401805878,0.0264922380,0.0261403918,0.0268572569,27.5187206268,54.7531013489,107.2869720459,0.0705790520,0.0018168986,-0.0080816746,
2376.413,-3.2202410698,1.3304229975,-113.1487579346,0.0559330210,0.0395575464,-0.0020565987,-90.6896133423,36.4528198242,153.5819091797,0.0472857356,0.0248086452,0.0121271014,-14.0524997711,82.6700592041,12.9503507614,0.0201482177,0.0274745971,0.0225787908,27.5296154022,54.7498703003,107.2959365845,0.0681051016,-0.0026963353,0.0036464930,
