Time(sec),Gyr1_X(deg/sec),Gyr1_Y(deg/sec),Gyr1_Z(deg/sec),Acc1_X(m/s^2),Acc1_Y(m/s^2),Acc1_Z(m/s^2),Gyr2_X(deg/sec),Gyr2_Y(deg/sec),Gyr2_Z(deg/sec),Acc2_X(m/s^2),Acc2_Y(m/s^2),Acc2_Z(m/s^2),Gyr_X(deg/sec),Gyr_Y(deg/sec),Gyr_Z(deg/sec),Acc_X(m/s^2),Acc_Y(m/s^2),Acc_Z(m/s^2),Gyr_X(deg/sec),Gyr_Y(deg/sec),Gyr_Z(deg/sec),Acc_X(m/s^2),Acc_Y(m/s^2),Acc_Z(m/s^2),
2604.713,-3.2151949406,1.3320107460,-89.2576370239,0.0579138473,0.0438641310,0.0057513714,-112.1190719604,75.6569519043,147.9596252441,0.0410954952,0.0664245784,0.0111631155,-3.1795861721,82.3439865112,-154.2176208496,0.0291717052,0.0250546783,0.0241050124,26.8280124664,55.1749801636,-163.1108703613,0.0792006850,0.0004737973,-0.0058832169,
2604.723,-3.2137260437,1.3334817886,-89.2570419312,0.0525684208,0.0433502272,0.0023329258,-112.1093444824,75.6576385498,147.9717102051,0.0406101942,0.0556885004,0.0120962262,-3.1784594059,82.3457260132,-154.2102203369,0.0272226334,0.0270035267,0.0158333182,26.8277816772,55.1760940552,-163.1060791016,0.0743290186,0.0039010644,-0.0014752746,
2604.733,-3.2149846554,1.3323580027,-89.2565078735,0.0637792796,0.0423956215,0.0033102036,-112.1023559570,75.6581039429,147.9817962646,0.0440301895,0.0566680729,0.0086470246,-3.1982908249,82.3463134766,-154.2213592529,0.0238060355,0.0246081054,0.0217060447,26.8304958344,55.1765632629,-163.1002349854,0.0797047615,0.0029033124,-0.0063399673,
2604.743,-3.2134137154,1.3312399387,-89.2558975220,0.0618066490,0.0457862467,0.0081909895,-112.0922164917,75.6599578857,147.9933166504,0.0411084890,0.0576325059,0.0173835754,-3.1960964203,82.3451690674,-154.2116546631,0.0223385096,0.0255806446,0.0265680552,26.8277778625,55.1765556335,-163.0999603271,0.0704273582,-0.0019553304,0.0024369955,
2604.753,-3.2135818005,1.3302986622,-89.2553558350,0.0632550716,0.0418829396,0.0062375665,-112.0802459717,75.6603927612,148.0102386475,0.0464814901,0.0566689670,0.0119616389,-3.1961498260,82.3455505371,-154.2048950195,0.0306401849,0.0285100490,0.0216928124,26.8287162781,55.1778717041,-163.0947113037,0.0689756274,0.0063456297,0.0009930730,
2604.763,-3.2144498825,1.3310742378,-89.2535705566,0.0554561019,0.0414097682,0.0096566081,-112.0767669678,75.6593170166,148.0179290771,0.0455002785,0.0547384918,0.0090247393,-3.2101011276,82.3474197388,-154.2111968994,0.0272265673,0.0207285136,0.0212385058,26.8353099823,55.1790046692,-163.0855712891,0.0719165802,0.0087356269,-0.0018926859,
2604.773,-3.2157733440,1.3332469463,-89.2530746460,0.0545174517,0.0399679318,0.0067291260,-112.0787963867,75.6571578979,148.0215301514,0.0357252955,0.0591632128,0.0056285858,-3.2284729481,82.3470077515,-154.2214202881,0.0257607698,0.0227251798,0.0270930529,26.8299121857,55.1810913086,-163.0852050781,0.0743787885,-0.0068278015,0.0044575930,
2604.783,-3.2152714729,1.3335890770,-89.2525024414,0.0589179546,0.0463068411,0.0106351376,-112.0798950195,75.6560363770,148.0270996094,0.0415798426,0.0586905479,0.0090580583,-3.2463679314,82.3470382690,-154.2305908203,0.0277139544,0.0232554972,0.0212354064,26.8321323395,55.1820449829,-163.0809020996,0.0753648877,0.0053656995,0.0039916635,
2604.793,-3.2149040699,1.3332034349,-89.2506942749,0.0574463792,0.0414176285,0.0116108656,-112.0776824951,75.6541366577,148.0348052979,0.0405950546,0.0533525348,0.0158970952,-3.2456567287,82.3452377319,-154.2205963135,0.0252683759,0.0276501179,0.0324348807,26.8327960968,55.1815986633,-163.0757751465,0.0763369799,0.0019388795,0.0025239587,
2604.803,-3.2122132778,1.3352143764,-89.2489013672,0.0550400615,0.0496714935,-0.0025507212,-112.0825424194,75.6567840576,148.0354156494,0.0376768112,0.0650221705,0.0095523000,-3.2462782860,82.3451690674,-154.2129364014,0.0189205408,0.0227687657,0.0251109004,26.8313751221,55.1815681458,-163.0735931396,0.0763366818,0.0024395883,-0.0009008646,
2604.813,-3.2109091282,1.3339567184,-89.2488861084,0.0623423345,0.0491605215,0.0125840902,-112.0985031128,75.6601486206,148.0258636475,0.0362265110,0.0639673769,0.0086187124,-3.2492735386,82.3454437256,-154.2078094482,0.0272219777,0.0257052332,0.0207212567,26.8334102631,55.1797752380,-163.0694274902,0.0748539567,0.0077809691,0.0020149946,
2604.823,-3.2115557194,1.3339457512,-89.2489395142,0.0574593320,0.0403827243,-0.0020635724,-112.0978927612,75.6576919556,148.0319671631,0.0469580889,0.0513110757,0.0144910812,-3.2555480003,82.3440322876,-154.2057342529,0.0208710432,0.0198619664,0.0231393576,26.8352432251,55.1800804138,-163.0643005371,0.0753452778,0.0058135092,0.0030036569,
2604.833,-3.2109057903,1.3331859112,-89.2483444214,0.0603757575,0.0447659492,0.0033065081,-112.1064987183,75.6557083130,148.0295257568,0.0371838808,0.0576758683,0.0033078790,-3.2562496662,82.3394241333,-154.1969299316,0.0276962519,0.0223094821,0.0308734775,26.8338012695,55.1789016724,-163.0621337891,0.0782632232,0.0038655698,0.0020055771,
2604.843,-3.2119190693,1.3333455324,-89.2478256226,0.0594019815,0.0389242209,0.0062372684,-112.1050567627,75.6571960449,148.0367584229,0.0332840681,0.0605847538,0.0150113106,-3.2448563576,82.3391113281,-154.1762390137,0.0276955366,0.0286306441,0.0250075459,26.8331737518,55.1789131165,-163.0594940186,0.0748453736,0.0038713217,0.0044446588,
2604.853,-3.2105047703,1.3333600760,-89.2460479736,0.0598905161,0.0452472419,-0.0010886192,-112.1042480469,75.6561813354,148.0427093506,0.0352327824,0.0576722920,0.0130614638,-3.2423439026,82.3397598267,-154.1667938232,0.0257439017,0.0256944448,0.0176938176,26.8327503204,55.1777153015,-163.0561828613,0.0738568306,0.0053321719,0.0039389729,
2604.863,-3.2107949257,1.3333883286,-89.2448501587,0.0579378828,0.0413460433,0.0091662407,-112.1110229492,75.6547470093,148.0411834717,0.0347383022,0.0586602390,0.0087032914,-3.2517418861,82.3402709961,-154.1675720215,0.0311161876,0.0271808803,0.0274693370,26.8312397003,55.1773529053,-163.0527648926,0.0772712231,0.0053432286,0.0034388900,
2604.873,-3.2111272812,1.3340774775,-89.2437286377,0.0574616306,0.0413518175,-0.0001114607,-112.1215209961,75.6558837891,148.0340576172,0.0420674682,0.0615548491,0.0082499981,-3.2308626175,82.3391418457,-154.1397247314,0.0247659087,0.0276211947,0.0264705420,26.8318233490,55.1827354431,-163.0484313965,0.0700006485,0.0014666021,-0.0135791302,
2604.883,-3.2108273506,1.3361581564,-89.2432479858,0.0570096560,0.0413465388,0.0077022910,-112.1145706177,75.6551895142,148.0457153320,0.0391347408,0.0596241057,0.0140859485,-3.2305209637,82.3395996094,-154.1325225830,0.0311146379,0.0266433954,0.0215952992,26.8303852081,55.1832122803,-163.0456695557,0.0714702606,-0.0004706085,0.0074166059,
2604.893,-3.2104551792,1.3333499432,-89.2426071167,0.0633083135,0.0437815264,0.0047707558,-112.1000671387,75.6547470093,148.0636749268,0.0352265835,0.0577017963,0.0169599652,-3.2272984982,82.3405456543,-154.1216125488,0.0257457495,0.0222403556,0.0186818242,26.8303470612,55.1812438965,-163.0431976318,0.0797514319,0.0029349625,0.0010435581,
2604.903,-3.2096979618,1.3315045834,-89.2426452637,0.0642526746,0.0408386961,0.0086755753,-112.0909500122,75.6555709839,148.0781097412,0.0425543785,0.0620982051,0.0164297819,-3.2182700634,82.3414993286,-154.1069335938,0.0301424861,0.0280776173,0.0182083249,26.8302307129,55.1811943054,-163.0392150879,0.0787743330,-0.0019472241,0.0005539060,
2604.913,-3.2083048820,1.3314788342,-89.2414245605,0.0559514463,0.0408144258,0.0081859827,-112.0888748169,75.6540832520,148.0846099854,0.0366885662,0.0543120503,0.0047119856,-3.2190918922,82.3406219482,-154.1006317139,0.0252576470,0.0197796375,0.0250288248,26.8333606720,55.1826210022,-163.0333557129,0.0787885785,0.0014521480,-0.0067378879,
2604.923,-3.2069437504,1.3321536779,-89.2402496338,0.0554749370,0.0407906994,0.0028138757,-112.0821990967,75.6537399292,148.0955047607,0.0405933261,0.0592111647,0.0120115280,-3.2241504192,82.3387603760,-154.0986633301,0.0291595459,0.0217464268,0.0274392962,26.8323078156,55.1802520752,-163.0309143066,0.0792532563,0.0038876832,0.0078757405,
2604.933,-3.2070794106,1.3313984871,-89.2390441895,0.0583914444,0.0398165137,0.0047669411,-112.0784530640,75.6524810791,148.1015777588,0.0444941521,0.0587479174,0.0095630884,-3.2361524105,82.3375320435,-154.1036834717,0.0320863724,0.0227523744,0.0225373507,26.8325805664,55.1811027527,-163.0280609131,0.0758437514,-0.0000155568,0.0030049682,
2604.943,-3.2065427303,1.3309193850,-89.2390747070,0.0593596473,0.0422485843,0.0057427883,-112.0698089600,75.6514205933,148.1150207520,0.0396067500,0.0558497906,0.0129528642,-3.2409667969,82.3344573975,-154.1002502441,0.0228018761,0.0222783834,0.0263917446,26.8339271545,55.1846656799,-163.0227203369,0.0690433383,-0.0000045300,0.0001263022,
2604.953,-3.2063100338,1.3320177794,-89.2373504639,0.0584022552,0.0432210639,0.0033012629,-112.0708541870,75.6493148804,148.1181182861,0.0371562243,0.0578330159,0.0075994730,-3.2501497269,82.3347854614,-154.1011352539,0.0291503072,0.0208347589,0.0239585042,26.8341522217,55.1856422424,-163.0198516846,0.0763772726,0.0019529760,-0.0003480315,
2604.963,-3.2068130970,1.3324602842,-89.2374496460,0.0603630990,0.0407884121,0.0042788386,-112.0638198853,75.6483764648,148.1297149658,0.0361756086,0.0539547503,0.0070886016,-3.2383017540,82.3371658325,-154.0827941895,0.0242730379,0.0217812210,0.0166718960,26.8342380524,55.1865882874,-163.0161437988,0.0802929401,0.0024465919,-0.0037536025,
2604.973,-3.2043442726,1.3340425491,-89.2345352173,0.0613672659,0.0466047451,0.0072067380,-112.0686187744,75.6485824585,148.1300964355,0.0381296277,0.0578484833,0.0085716248,-3.2474479675,82.3352203369,-154.0848236084,0.0291513205,0.0198514909,0.0234757662,26.8321971893,55.1857910156,-163.0153045654,0.0754022002,0.0014829934,0.0064808726,
2604.983,-3.2019512653,1.3336226940,-89.2339706421,0.0613599494,0.0465630591,0.0042744279,-112.0675506592,75.6492843628,148.1342620850,0.0415506363,0.0563753247,0.0163753033,-3.2596340179,82.3365249634,-154.0875549316,0.0242715478,0.0223202109,0.0171535015,26.8329811096,55.1863479614,-163.0105285645,0.0817553997,0.0048975945,0.0030735731,
2604.993,-3.2017614841,1.3371288776,-89.2329101563,0.0540969037,0.0431417115,0.0013460517,-112.0707397461,75.6476745605,148.1358337402,0.0430085063,0.0588355958,0.0159100890,-3.2436487675,82.3382186890,-154.0627593994,0.0267168880,0.0266755372,0.0122971535,26.8383007050,55.1902465820,-163.0014495850,0.0705637932,0.0014575422,-0.0085712075,
2605.003,-3.2014267445,1.3358067274,-89.2317886353,0.0667691454,0.0436241813,0.0042747855,-112.0800323486,75.6479721069,148.1323394775,0.0317793489,0.0641870499,0.0027619600,-3.2525422573,82.3371658325,-154.0617523193,0.0247613192,0.0257209390,0.0235098600,26.8397521973,55.1885948181,-162.9964447021,0.0764067173,0.0087581873,0.0045976639,
2605.013,-3.2001295090,1.3368964195,-89.2312011719,0.0560459718,0.0470195338,0.0028091073,-112.0805816650,75.6474685669,148.1370697021,0.0405662060,0.0563825071,0.0110681653,-3.2463998795,82.3380889893,-154.0472106934,0.0247634649,0.0217993259,0.0147367120,26.8389301300,55.1852951050,-162.9920349121,0.0788152218,0.0023964643,0.0069932938,
2605.023,-3.2006940842,1.3367022276,-89.2306213379,0.0584839880,0.0426348411,0.0057392120,-112.0866241455,75.6471328735,148.1367492676,0.0410530567,0.0568651259,0.0096297264,-3.2323839664,82.3385009766,-154.0282440186,0.0262292624,0.0300667733,0.0186477900,26.8388538361,55.1860046387,-162.9889373779,0.0710098147,0.0048431754,0.0040724277,
2605.033,-3.2018620968,1.3387478590,-89.2295837402,0.0594962463,0.0382606089,0.0106242299,-112.0895462036,75.6492004395,148.1388549805,0.0361791849,0.0582932532,0.0140230060,-3.2439026833,82.3403167725,-154.0311889648,0.0237920880,0.0286272466,0.0157506466,26.8403015137,55.1818695068,-162.9841308594,0.0826873183,0.0057801008,0.0045142174,
2605.043,-3.2020668983,1.3367491961,-89.2289886475,0.0623910576,0.0397290662,-0.0010951757,-112.0845489502,75.6483535767,148.1493225098,0.0410583019,0.0578264892,0.0193794370,-3.2335863113,82.3385772705,-154.0117187500,0.0267177224,0.0320226401,0.0279266834,26.8363113403,55.1849975586,-162.9833831787,0.0739294291,-0.0029532909,-0.0018115640,
2605.053,-3.2016694546,1.3376637697,-89.2278594971,0.0589890480,0.0416752547,0.0052525997,-112.0866012573,75.6482925415,148.1515502930,0.0400815010,0.0607533455,0.0076691508,-3.2319042683,82.3353042603,-154.0018615723,0.0257335305,0.0251859426,0.0332409143,26.8349266052,55.1843528748,-162.9802703857,0.0768527389,-0.0019685626,0.0074513555,
2605.063,-3.2012605667,1.3371642828,-89.2272644043,0.0594686121,0.0460626632,0.0032985806,-112.0810928345,75.6505584717,148.1616210938,0.0381381512,0.0568207204,0.0144686699,-3.2359833717,82.3395538330,-153.9984436035,0.0272082686,0.0256797224,0.0176888704,26.8366279602,55.1825637817,-162.9749145508,0.0680458546,0.0102118254,0.0079244375,
2605.073,-3.2043168545,1.3372237682,-89.2267303467,0.0599579364,0.0402565375,0.0120905638,-112.0811691284,75.6490707397,148.1651458740,0.0430145264,0.0583094656,0.0091072917,-3.2304515839,82.3384475708,-153.9846343994,0.0247642994,0.0232263803,0.0259699821,26.8381729126,55.1835021973,-162.9703521729,0.0753793716,0.0009267926,-0.0013336539,
2605.083,-3.2036297321,1.3365617990,-89.2261810303,0.0623877905,0.0426859856,0.0091599226,-112.0880966187,75.6484298706,148.1627502441,0.0361758471,0.0597723126,0.0008385181,-3.2396399975,82.3378829956,-153.9869079590,0.0286692381,0.0242250413,0.0249860883,26.8363723755,55.1847763062,-162.9688720703,0.0753920674,-0.0034434497,0.0006276369,
2605.093,-3.2057490349,1.3350356817,-89.2249298096,0.0589431897,0.0393049717,0.0047673583,-112.0712814331,75.6492691040,148.1834106445,0.0356912017,0.0568567812,0.0207849741,-3.2557044029,82.3407287598,-153.9947814941,0.0252578855,0.0223069489,0.0162470937,26.8327903748,55.1841964722,-162.9670104980,0.0734331608,0.0014673769,0.0059745312,
2605.103,-3.2036032677,1.3343338966,-89.2231216431,0.0603957921,0.0456152596,0.0028114319,-112.0693359375,75.6492614746,148.1887817383,0.0376442671,0.0612560809,0.0056403279,-3.2647216320,82.3401412964,-153.9955291748,0.0189088583,0.0208638459,0.0225862265,26.8334712982,55.1831359863,-162.9633026123,0.0709812045,0.0043842196,0.0074293613,
2605.113,-3.2031943798,1.3332749605,-89.2231216431,0.0613538772,0.0460964441,0.0047637820,-112.0742111206,75.6497116089,148.1866455078,0.0342282653,0.0607513487,0.0085870624,-3.2948782444,82.3428268433,-154.0179290771,0.0257510543,0.0155609995,0.0162879825,26.8288402557,55.1845779419,-162.9654083252,0.0685541630,-0.0038660467,0.0059620738,
2605.123,-3.2028722763,1.3349052668,-89.2213287354,0.0545463860,0.0456025191,0.0076937675,-112.0794601440,75.6506652832,148.1851196289,0.0415565968,0.0651234090,0.0081138611,-3.3033638000,82.3410339355,-154.0170135498,0.0267234445,0.0233951956,0.0255358815,26.8249969482,55.1816673279,-162.9657287598,0.0753611326,0.0005438626,0.0078608394,
2605.133,-3.2024486065,1.3341248035,-89.2207641602,0.0603921413,0.0397357754,0.0018337965,-112.0750656128,75.6507034302,148.1936340332,0.0386270881,0.0568283498,0.0105373263,-3.2846827507,82.3381652832,-153.9913940430,0.0301347375,0.0282369107,0.0249965191,26.8204841614,55.1822776794,-162.9654235840,0.0758554339,-0.0023417473,0.0015007854,
2605.143,-3.2013933659,1.3328024149,-89.2201995850,0.0642753169,0.0441119559,-0.0015857816,-112.0687561035,75.6499938965,148.2046813965,0.0391123295,0.0514792204,0.0114927292,-3.2705726624,82.3381423950,-153.9703216553,0.0272049904,0.0267389119,0.0220647454,26.8220291138,55.1816482544,-162.9601593018,0.0719429255,0.0088709295,-0.0014301538,
2605.153,-3.2037043571,1.3350670338,-89.2191314697,0.0565023310,0.0407341979,0.0081830025,-112.0611190796,75.6504592896,148.2162322998,0.0366728902,0.0588080883,0.0153654814,-3.2586991787,82.3366012573,-153.9503326416,0.0213420391,0.0281773508,0.0239897966,26.8176689148,55.1837615967,-162.9592590332,0.0729405284,-0.0027954578,0.0049247146,
2605.163,-3.2036542892,1.3352354765,-89.2180709839,0.0638294965,0.0382919125,0.0076948404,-112.0590591431,75.6503601074,148.2225341797,0.0371607542,0.0607663989,0.0104749799,-3.2393178940,82.3380355835,-153.9234161377,0.0276930332,0.0276421160,0.0235234499,26.8152790070,55.1859779358,-162.9578857422,0.0661267042,0.0001698434,-0.0014054179,
2605.173,-3.2034568787,1.3345497847,-89.2181320190,0.0623526797,0.0431712940,0.0091590881,-112.0649719238,75.6487426758,148.2213897705,0.0391069055,0.0588286817,0.0070908666,-3.2463355064,82.3400344849,-153.9210510254,0.0276976824,0.0247270167,0.0147689581,26.8084735870,55.1838302612,-162.9601287842,0.0724529624,-0.0012483299,0.0141616464,
2605.183,-3.2052047253,1.3338913918,-89.2175521851,0.0579466671,0.0363658369,0.0052545071,-112.0603179932,75.6483306885,148.2300872803,0.0415465236,0.0598196387,0.0143989325,-3.2386248112,82.3385009766,-153.9035339355,0.0301355124,0.0310580283,0.0245074630,26.8086376190,55.1837043762,-162.9548950195,0.0734282732,0.0050970614,0.0083013773,
2605.193,-3.2052352428,1.3338633776,-89.2164001465,0.0603875816,0.0422257371,0.0120902658,-112.0680923462,75.6496963501,148.2278442383,0.0371578932,0.0578318834,0.0119803548,-3.2442624569,82.3399887085,-153.9022216797,0.0228147507,0.0242339224,0.0172089934,26.8037242889,55.1871185303,-162.9529724121,0.0729740262,-0.0055793226,0.0014870763,
2605.203,-3.2044243813,1.3365359306,-89.2146453857,0.0531099960,0.0451412424,0.0101374388,-112.0743103027,75.6475677490,148.2280120850,0.0391017795,0.0607855022,0.0032298565,-3.2538895607,82.3416748047,-153.9035797119,0.0301429033,0.0208369493,0.0152858496,26.8058452606,55.1887741089,-162.9482727051,0.0803147554,0.0032015443,-0.0023884177,
2605.213,-3.2044260502,1.3352179527,-89.2140579224,0.0604112148,0.0402584821,0.0096484423,-112.0733108521,75.6463623047,148.2336730957,0.0415380001,0.0544572175,0.0090928078,-3.2548120022,82.3401107788,-153.8963012695,0.0276978612,0.0242585838,0.0225837827,26.8048095703,55.1867218018,-162.9446411133,0.0837122798,0.0041741133,0.0049051046,
2605.223,-3.2038483620,1.3358477354,-89.2128906250,0.0599339232,0.0465960652,0.0037891865,-112.0832443237,75.6458053589,148.2319641113,0.0356761813,0.0573803186,0.0013238192,-3.2512831688,82.3409881592,-153.8871459961,0.0281881690,0.0276674032,0.0206452608,26.8011207581,55.1823730469,-162.9430541992,0.0841571689,0.0017374158,0.0126452446,
2605.233,-3.2039444447,1.3370449543,-89.2111358643,0.0560485646,0.0441563018,0.0072067976,-112.0760955811,75.6478347778,148.2431793213,0.0420326591,0.0627307892,0.0154423714,-3.2455201149,82.3399047852,-153.8726043701,0.0237911344,0.0257017612,0.0259976387,26.8008556366,55.1810302734,-162.9398040771,0.0777961612,0.0041725636,0.0067676306,
2605.243,-3.2046296597,1.3364915848,-89.2099380493,0.0575037524,0.0358674712,-0.0006044507,-112.0702133179,75.6477127075,148.2546081543,0.0332430601,0.0603018105,0.0120014548,-3.2627363205,82.3396759033,-153.8820953369,0.0218374729,0.0189065188,0.0186715722,26.8001079559,55.1795043945,-162.9376068115,0.0768043995,0.0027044713,0.0067447424,
2605.253,-3.2035191059,1.3385016918,-89.2082748413,0.0594919510,0.0441488549,0.0033011436,-112.0733184814,75.6471862793,148.2587585449,0.0395884514,0.0607921481,0.0085992813,-3.2520451546,82.3380889893,-153.8650970459,0.0257400274,0.0266954452,0.0254786611,26.7997817993,55.1754989624,-162.9336090088,0.0836004019,0.0036580861,0.0066919923,
2605.263,-3.2040915489,1.3365650177,-89.2076721191,0.0643409714,0.0426940285,-0.0001164675,-112.0738296509,75.6481399536,148.2623596191,0.0405691266,0.0612656772,0.0120132565,-3.2597565651,82.3365249634,-153.8638458252,0.0276895165,0.0193908364,0.0244770646,26.7976074219,55.1739196777,-162.9294891357,0.0728424788,0.0007375777,0.0100799799,
2605.273,-3.2046942711,1.3387567997,-89.2071990967,0.0546135902,0.0402630791,0.0120911002,-112.0687637329,75.6489028931,148.2724914551,0.0449669361,0.0597957969,0.0154061913,-3.2615511417,82.3341674805,-153.8562164307,0.0267074704,0.0242801756,0.0234602690,26.7923145294,55.1738357544,-162.9293518066,0.0738182068,-0.0031220913,0.0081020594,
2605.283,-3.2035484314,1.3411409855,-89.2078781128,0.0536786281,0.0421961844,0.0116033554,-112.0682525635,75.6509628296,148.2789916992,0.0337454081,0.0583013296,0.0129494667,-3.2742228508,82.3331222534,-153.8600158691,0.0227987766,0.0213813335,0.0214906335,26.7904376984,55.1725158691,-162.9271392822,0.0698987842,-0.0001842380,0.0080768466,
2605.293,-3.2036118507,1.3425329924,-89.2073364258,0.0551677570,0.0421972647,0.0086743236,-112.0702667236,75.6541595459,148.2826995850,0.0445014238,0.0631293356,0.0134257078,-3.2801253796,82.3327636719,-153.8565368652,0.0291455984,0.0248135030,0.0244157314,26.7851753235,55.1721343994,-162.9267883301,0.0738012195,0.0003484190,0.0090248585,
2605.303,-3.2028560638,1.3412187099,-89.2055206299,0.0605159178,0.0407192782,0.0062314868,-112.0746536255,75.6554031372,148.2823791504,0.0362060070,0.0645694435,0.0046463609,-3.2800004482,82.3345565796,-153.8470001221,0.0286614895,0.0238349140,0.0176097155,26.7885837555,55.1754608154,-162.9215087891,0.0787172318,0.0042458177,-0.0104485154,
2605.313,-3.2040569782,1.3407715559,-89.2036895752,0.0575784296,0.0402519330,0.0091621876,-112.0890655518,75.6557083130,148.2744293213,0.0430432558,0.0596567988,0.0047025681,-3.3001604080,82.3323059082,-153.8588867188,0.0257265568,0.0194899887,0.0268517137,26.7898807526,55.1753997803,-162.9166717529,0.0772517323,0.0027690232,0.0007867813,
2605.323,-3.2025105953,1.3408378363,-89.2012939453,0.0600209981,0.0455960743,0.0042778850,-112.0993423462,75.6555862427,148.2680053711,0.0406013131,0.0611078739,0.0027915239,-3.2847161293,82.3334350586,-153.8341979980,0.0301237106,0.0306830555,0.0200323462,26.7866001129,55.1755371094,-162.9130706787,0.0787179470,-0.0006188750,0.0002856255,
2605.333,-3.2049729824,1.3407549858,-89.2001800537,0.0605078265,0.0358733572,0.0101397634,-112.0953369141,75.6546249390,148.2751617432,0.0391323566,0.0562458634,0.0145002604,-3.2952897549,82.3321990967,-153.8347015381,0.0213317871,0.0228966177,0.0180599689,26.7830314636,55.1743125916,-162.9118804932,0.0831003189,-0.0045012534,0.0022071600,
2605.343,-3.2054901123,1.3396264315,-89.1983795166,0.0619529784,0.0427183323,0.0047687292,-112.0924987793,75.6573181152,148.2818603516,0.0371908545,0.0610913038,0.0164248943,-3.2968645096,82.3290786743,-153.8277282715,0.0247424841,0.0302276015,0.0326554775,26.7816181183,55.1739463806,-162.9117126465,0.0708896518,0.0008800924,0.0061023235,
2605.353,-3.2043461800,1.3400534391,-89.1971817017,0.0585424639,0.0485577658,0.0047676563,-112.0917663574,75.6569747925,148.2873077393,0.0425604582,0.0591453314,0.0120294690,-3.2935369015,82.3304901123,-153.8167114258,0.0257223248,0.0224058628,0.0234023929,26.7832698822,55.1710205078,-162.9067687988,0.0776963830,0.0057292879,0.0109550953,
2605.363,-3.2053012848,1.3428525925,-89.1967468262,0.0566381812,0.0412501171,0.0076994896,-112.0927581787,75.6606750488,148.2902221680,0.0391584635,0.0639671683,0.0129867792,-3.2881484032,82.3328933716,-153.8032073975,0.0281693339,0.0258088410,0.0200235248,26.7845249176,55.1677207947,-162.9009552002,0.0830345750,0.0061851144,0.0026178956,
2605.373,-3.2066574097,1.3437683582,-89.1974792480,0.0586072840,0.0378557518,0.0047714710,-112.1042022705,75.6583862305,148.2843322754,0.0376837254,0.0576384962,0.0042581558,-3.2820544243,82.3321456909,-153.7876892090,0.0193785429,0.0262834877,0.0234287977,26.7877368927,55.1683197021,-162.8945465088,0.0845053792,0.0046955049,-0.0032194853,
2605.383,-3.2068674564,1.3434313536,-89.1950836182,0.0595779642,0.0393242687,0.0125839710,-112.1017608643,75.6589050293,148.2915649414,0.0381742716,0.0566561222,0.0164522529,-3.2685306072,82.3321762085,-153.7648010254,0.0218200088,0.0277165174,0.0229386687,26.7852382660,55.1683044434,-162.8924713135,0.0762044787,-0.0026065409,0.0016518235,
2605.393,-3.2062151432,1.3410212994,-89.1932678223,0.0663718507,0.0446840525,0.0033050179,-112.1070785522,75.6572189331,148.2910003662,0.0367021561,0.0576521158,0.0091599226,-3.2798519135,82.3325881958,-153.7678070068,0.0237740874,0.0199302435,0.0205059052,26.7856369019,55.1697502136,-162.8898162842,0.0776837468,0.0027703047,-0.0027225018,
2605.403,-3.2056224346,1.3422278166,-89.1933364868,0.0556507185,0.0402791686,0.0072112679,-112.1013031006,75.6569519043,148.3014831543,0.0367009640,0.0591289103,0.0115799904,-3.2877016068,82.3327178955,-153.7661132813,0.0247509480,0.0199485868,0.0214855075,26.7805118561,55.1695327759,-162.8911743164,0.0767049789,-0.0045096278,0.0031111836,
2605.413,-3.2065541744,1.3426674604,-89.1928024292,0.0585880727,0.0412719548,0.0111185908,-112.1006546021,75.6559906006,148.3076782227,0.0366968513,0.0557287037,0.0091417432,-3.2823755741,82.3317413330,-153.7514038086,0.0237721205,0.0257963836,0.0214681625,26.7850627899,55.1699371338,-162.8835449219,0.0771973133,0.0052180588,0.0011838675,
2605.423,-3.2064740658,1.3426462412,-89.1922454834,0.0600525476,0.0427354053,0.0067239404,-112.0959701538,75.6572341919,148.3181457520,0.0352373719,0.0635279417,0.0154628158,-3.2897696495,82.3344268799,-153.7512054443,0.0286611915,0.0238579661,0.0161451101,26.7817420959,55.1712188721,-162.8823242188,0.0654913187,-0.0030450225,0.0026493669,
2605.433,-3.2065947056,1.3439058065,-89.1905670166,0.0600745231,0.0398077816,0.0062363744,-112.1014862061,75.6543502808,148.3187561035,0.0386428833,0.0581938326,0.0067142248,-3.2882838249,82.3346786499,-153.7415618896,0.0218258500,0.0258073807,0.0239611268,26.7804813385,55.1701354980,-162.8795471191,0.0713399053,-0.0001109540,0.0055605769,
2605.443,-3.2075459957,1.3439841270,-89.1907043457,0.0639821440,0.0412892029,0.0096551776,-112.1083984375,75.6532821655,148.3190765381,0.0430327654,0.0586875379,0.0072371960,-3.2639117241,82.3386535645,-153.7098083496,0.0213468075,0.0325821340,0.0118187070,26.7807483673,55.1725502014,-162.8766784668,0.0767350793,0.0042966604,-0.0031976104,
2605.453,-3.2080285549,1.3447692394,-89.1895523071,0.0571599007,0.0408093035,0.0008670092,-112.1070556641,75.6563720703,148.3232269287,0.0332804918,0.0625470877,0.0125833154,-3.2716684341,82.3386535645,-153.7099914551,0.0208585262,0.0233229995,0.0245154500,26.7815494537,55.1699562073,-162.8719177246,0.0815920234,0.0032963753,0.0070278049,
2605.463,-3.2087254524,1.3439887762,-89.1883926392,0.0605642498,0.0378917754,0.0033087134,-112.0893554688,75.6532669067,148.3454895020,0.0342436433,0.0499291420,0.0169261694,-3.2723500729,82.3415985107,-153.7030639648,0.0281895995,0.0228334963,0.0138225555,26.7844676971,55.1710510254,-162.8644866943,0.0723255873,0.0027891099,-0.0002698898,
2605.473,-3.2069747448,1.3450340033,-89.1878051758,0.0561879575,0.0486034453,0.0023306608,-112.0959625244,75.6534423828,148.3417205811,0.0425451994,0.0616347790,0.0096273422,-3.2751877308,82.3420639038,-153.6971435547,0.0198898911,0.0262576193,0.0231095552,26.7865447998,55.1722869873,-162.8598022461,0.0777090192,0.0022903383,-0.0041505098,
2605.483,-3.2083449364,1.3447626829,-89.1866912842,0.0630191639,0.0398382619,0.0023322701,-112.1081848145,75.6531982422,148.3344421387,0.0386378765,0.0586892664,0.0018657446,-3.2863314152,82.3430633545,-153.7014923096,0.0213570595,0.0257946253,0.0255676508,26.7869873047,55.1719322205,-162.8549804688,0.0718461275,0.0076552629,0.0056124926,
2605.493,-3.2077076435,1.3447105885,-89.1842956543,0.0605768487,0.0466630906,0.0081906319,-112.1190185547,75.6538619995,148.3284454346,0.0415704250,0.0596376657,0.0043464899,-3.2823846340,82.3428268433,-153.6907958984,0.0316104293,0.0301801115,0.0197038651,26.7882118225,55.1733856201,-162.8502349854,0.0757668614,-0.0021119416,-0.0011994839,
2605.503,-3.2080717087,1.3446122408,-89.1818313599,0.0561806038,0.0432514697,-0.0001093149,-112.1162948608,75.6520843506,148.3350830078,0.0400978923,0.0582041144,0.0131359696,-3.2664723396,82.3439331055,-153.6662292480,0.0281950235,0.0306299478,0.0182554722,26.7858905792,55.1712646484,-162.8479766846,0.0772105455,0.0037544072,0.0060870647,
2605.513,-3.2086741924,1.3445501328,-89.1800842285,0.0581326410,0.0403322726,0.0018433928,-112.1249008179,75.6530075073,148.3304290771,0.0401018858,0.0615947843,0.0116997361,-3.2644579411,82.3460311890,-153.6559906006,0.0242936611,0.0242755115,0.0192676783,26.7866096497,55.1702384949,-162.8429718018,0.0703644156,0.0022765994,0.0011946559,
2605.523,-3.2084195614,1.3453850746,-89.1789627075,0.0615651794,0.0432575122,0.0096567273,-112.1284484863,75.6510925293,148.3320159912,0.0420467257,0.0596652329,0.0112380385,-3.2709450722,82.3468017578,-153.6542968750,0.0233188868,0.0242899358,0.0192828774,26.7856998444,55.1716651917,-162.8406066895,0.0733082891,-0.0011241734,0.0031612515,
2605.533,-3.2086107731,1.3449870348,-89.1784591675,0.0635113567,0.0417960063,0.0067271590,-112.1229782104,75.6507186890,148.3440246582,0.0371623039,0.0601683855,0.0146363974,-3.2747466564,82.3450546265,-153.6493530273,0.0262445211,0.0252771378,0.0256011486,26.7899208069,55.1740074158,-162.8338165283,0.0757730603,0.0076425672,-0.0065543652,
2605.543,-3.2095990181,1.3443928957,-89.1798171997,0.0659423992,0.0413249508,0.0057512522,-112.1313095093,75.6509399414,148.3412933350,0.0386281013,0.0586869121,0.0039262176,-3.2640411854,82.3450546265,-153.6286621094,0.0203851461,0.0267168880,0.0275517106,26.7869606018,55.1767997742,-162.8330993652,0.0718946457,-0.0015905499,-0.0040918589,
2605.553,-3.2082545757,1.3429161310,-89.1780548096,0.0654283538,0.0427664071,0.0077022910,-112.1303710938,75.6496658325,148.3472595215,0.0386226177,0.0577302575,0.0132079124,-3.2731273174,82.3456954956,-153.6276550293,0.0223397613,0.0218547434,0.0177992582,26.7856788635,55.1758079529,-162.8278656006,0.0674901605,0.0062270761,0.0129806995,
2605.563,-3.2067601681,1.3438816071,-89.1762390137,0.0566561371,0.0476231724,0.0008652806,-112.1350097656,75.6491775513,148.3482818604,0.0395970345,0.0572441816,0.0059053898,-3.2781021595,82.3455963135,-153.6249694824,0.0301520228,0.0223547965,0.0192632079,26.7897968292,55.1736030579,-162.8208618164,0.0762572885,0.0139885843,0.0022279620,
2605.573,-3.2082872391,1.3413317204,-89.1756515503,0.0644241422,0.0393490456,0.0018424988,-112.1420288086,75.6494750977,148.3466339111,0.0425280333,0.0596676171,0.0054436326,-3.2890193462,82.3468780518,-153.6269073486,0.0247839093,0.0184729397,0.0153801441,26.7877407074,55.1747627258,-162.8184051514,0.0718743205,-0.0025870204,-0.0002068281,
2605.583,-3.2093577385,1.3404480219,-89.1738662720,0.0609907582,0.0408325642,0.0018430948,-112.1400070190,75.6501388550,148.3534545898,0.0435074568,0.0577091575,0.0122671127,-3.2840220928,82.3483428955,-153.6131134033,0.0242990255,0.0257840008,0.0173574090,26.7872371674,55.1760787964,-162.8147277832,0.0733522773,0.0018202364,0.0022478104,
2605.593,-3.2072036266,1.3409916162,-89.1720733643,0.0580705516,0.0456778333,-0.0006001592,-112.1243515015,75.6510620117,148.3730316162,0.0361872315,0.0557651818,0.0161046386,-3.2876191139,82.3488235474,-153.6067199707,0.0223470330,0.0243271738,0.0188298225,26.7817630768,55.1754493713,-162.8173217773,0.0757874250,-0.0010645986,0.0090520978,
2605.603,-3.2075779438,1.3398991823,-89.1703109741,0.0639108643,0.0432429761,0.0033058524,-112.1424026489,75.6509246826,148.3601226807,0.0439991355,0.0615988374,0.0000646710,-3.3055660725,82.3541412354,-153.6165466309,0.0331015587,0.0238757133,0.0125768185,26.7769794464,55.1756019592,-162.8175964355,0.0684646964,-0.0000445843,0.0114732981,
2605.613,-3.2067236900,1.3413640261,-89.1686248779,0.0595418960,0.0388335288,0.0116067529,-112.1462402344,75.6531982422,148.3612213135,0.0313136578,0.0586259961,0.0132493377,-3.2964129448,82.3532638550,-153.5999145508,0.0243104696,0.0287379324,0.0169548988,26.7809638977,55.1763801575,-162.8120574951,0.0723786950,0.0043195486,0.0002710819,
2605.623,-3.2072784901,1.3403698206,-89.1681213379,0.0653839186,0.0427494645,0.0013526678,-112.1499404907,75.6526031494,148.3634948730,0.0381470323,0.0605833828,0.0025256872,-3.2929840088,82.3541717529,-153.5896301270,0.0248008370,0.0282407254,0.0169696808,26.7828197479,55.1753692627,-162.8070983887,0.0787162781,0.0042965114,0.0056375265,
2605.633,-3.2080721855,1.3426120281,-89.1663589478,0.0522394478,0.0417866781,0.0018426180,-112.1450576782,75.6525344849,148.3712768555,0.0386350155,0.0566854775,0.0098307729,-3.2979519367,82.3501892090,-153.5862274170,0.0228384733,0.0199555010,0.0252034068,26.7834243774,55.1741409302,-162.8032989502,0.0772392154,0.0052597821,0.0036713481,
2605.643,-3.2074177265,1.3421986103,-89.1651840210,0.0615095831,0.0447049774,0.0057480931,-112.1429290771,75.6543960571,148.3763732910,0.0415727496,0.0576372445,0.0102986693,-3.2906157970,82.3493652344,-153.5708312988,0.0233248472,0.0282398909,0.0232349038,26.7835636139,55.1737365723,-162.7992095947,0.0777234435,0.0067207813,0.0075733066,
2605.653,-3.2093014717,1.3407735825,-89.1652145386,0.0605081543,0.0359487608,0.0052613020,-112.1517181396,75.6550979614,148.3726043701,0.0396226645,0.0668894351,0.0059350729,-3.2820582390,82.3503723145,-153.5547332764,0.0257685781,0.0267539769,0.0208095908,26.7795333862,55.1742134094,-162.7992095947,0.0684508681,-0.0000762045,0.0124440789,
2605.663,-3.2111508846,1.3409725428,-89.1641387939,0.0614881888,0.0359809771,0.0052629113,-112.1445693970,75.6521301270,148.3825531006,0.0366801023,0.0547403097,0.0117847323,-3.2937798500,82.3506469727,-153.5583190918,0.0247926712,0.0238514841,0.0227697492,26.7812690735,55.1738471985,-162.7932128906,0.0743066072,0.0043005049,0.0026814938,
2605.673,-3.2131676674,1.3428316116,-89.1629409790,0.0493135937,0.0374809131,0.0067306757,-112.1389923096,75.6523208618,148.3917999268,0.0317981243,0.0640234053,0.0127373934,-3.2960867882,82.3520889282,-153.5525512695,0.0238194466,0.0262969732,0.0218163133,26.7814083099,55.1744422913,-162.7901611328,0.0772421956,-0.0020445585,0.0026898980,
2605.683,-3.2135980129,1.3440663815,-89.1612625122,0.0600773245,0.0409063511,0.0038017631,-112.1342163086,75.6524276733,148.3999481201,0.0415642262,0.0615883470,0.0146707892,-3.2766611576,82.3509826660,-153.5250701904,0.0243051648,0.0316235423,0.0178890824,26.7876224518,55.1736259460,-162.7821197510,0.0816286206,0.0091253221,-0.0002223253,
2605.693,-3.2143714428,1.3450647593,-89.1601409912,0.0586299002,0.0418963619,0.0033146739,-112.1271896362,75.6513214111,148.4106292725,0.0386297703,0.0586870015,0.0107431412,-3.2878873348,82.3502120972,-153.5280456543,0.0208854079,0.0218849778,0.0291088820,26.7895832062,55.1737060547,-162.7766265869,0.0718637705,0.0008076131,0.0032054186,
2605.703,-3.2118155956,1.3453781605,-89.1583328247,0.0571705252,0.0447815135,0.0125896931,-112.1272506714,75.6491775513,148.4147644043,0.0425267220,0.0582318902,0.0088039041,-3.2923438549,82.3495254517,-153.5243682861,0.0291845798,0.0248258412,0.0237257481,26.7855453491,55.1754570007,-162.7758026123,0.0694398284,-0.0010983050,0.0036972761,
2605.713,-3.2137639523,1.3438714743,-89.1583786011,0.0649567395,0.0443272144,0.0023371577,-112.1273574829,75.6499481201,148.4198608398,0.0410652161,0.0645674169,0.0151470304,-3.2978506088,82.3498611450,-153.5210418701,0.0223494172,0.0228852928,0.0232443213,26.7884025574,55.1783256531,-162.7699737549,0.0758160949,0.0047542453,-0.0050410628,
2605.723,-3.2129712105,1.3455127478,-89.1572952271,0.0586377196,0.0408953950,0.0067315698,-112.1328506470,75.6493682861,148.4208984375,0.0410627127,0.0616379678,0.0102900863,-3.2894980907,82.3492889404,-153.5038757324,0.0286957622,0.0248193592,0.0256750584,26.7844562531,55.1790275574,-162.7677917480,0.0675222874,-0.0005773902,0.0100854635,
2605.733,-3.2131829262,1.3452913761,-89.1548919678,0.0586338565,0.0438287705,-0.0030341744,-112.1364822388,75.6485671997,148.4237518311,0.0449655056,0.0611561835,0.0117746592,-3.2879126072,82.3478317261,-153.4923400879,0.0267392397,0.0262819529,0.0290670991,26.7824668884,55.1772003174,-162.7644805908,0.0772697330,0.0004052520,0.0061479211,
2605.743,-3.2153692245,1.3469341993,-89.1557235718,0.0645218939,0.0414254218,0.0023402572,-112.1457977295,75.6483154297,148.4205017090,0.0420347452,0.0621218383,0.0074189901,-3.2698419094,82.3472137451,-153.4629364014,0.0301557779,0.0262400508,0.0256379247,26.7798614502,55.1795234680,-162.7610473633,0.0704569221,-0.0019981563,0.0032352209,
2605.753,-3.2150857449,1.3460006714,-89.1545257568,0.0591345131,0.0433736295,0.0081979036,-112.1481475830,75.6473007202,148.4253387451,0.0391006470,0.0567623377,0.0084117651,-3.2534627914,82.3504943848,-153.4372863770,0.0208860636,0.0296164304,0.0164132118,26.7801876068,55.1744537354,-162.7564849854,0.0821251273,0.0072437525,0.0109855533,
2605.763,-3.2153024673,1.3454647064,-89.1527633667,0.0620548502,0.0394711643,0.0057572722,-112.1524810791,75.6471328735,148.4281921387,0.0386116505,0.0577349365,0.0098949671,-3.2558429241,82.3523712158,-153.4284515381,0.0223552585,0.0257139504,0.0203517675,26.7771949768,55.1748695374,-162.7549743652,0.0748050809,0.0009253919,0.0016993880,
2605.773,-3.2141101360,1.3433501720,-89.1515960693,0.0678773299,0.0443332531,0.0155206919,-112.1600875854,75.6485137939,148.4272613525,0.0303168297,0.0562352836,0.0040575862,-3.2449359894,82.3540420532,-153.4106597900,0.0262653828,0.0276398808,0.0164722800,26.7766151428,55.1745643616,-162.7526550293,0.0689426661,0.0009285808,0.0099939108,
2605.783,-3.2136681080,1.3436415195,-89.1510848999,0.0610464774,0.0418841392,0.0052665472,-112.1604385376,75.6485290527,148.4331817627,0.0449653268,0.0625828803,0.0089415908,-3.2592761517,82.3548126221,-153.4156036377,0.0252906084,0.0232782215,0.0189292431,26.7782154083,55.1720809937,-162.7478790283,0.0825897455,0.0077342987,0.0060634017,
2605.793,-3.2138221264,1.3417953253,-89.1491394043,0.0580845736,0.0482345223,0.0057544708,-112.1606369019,75.6522064209,148.4386138916,0.0381453037,0.0586183071,0.0147786140,-3.2396640778,82.3547592163,-153.3872222900,0.0228490829,0.0281150490,0.0272271037,26.7781562805,55.1698646545,-162.7459716797,0.0698723793,0.0033259094,0.0118935704,
2605.803,-3.2133736610,1.3415626287,-89.1480560303,0.0629633293,0.0418790579,0.0042881370,-112.1555862427,75.6531143188,148.4493560791,0.0415672064,0.0591013730,0.0093811750,-3.2297916412,82.3568420410,-153.3686065674,0.0252953172,0.0280899405,0.0174947381,26.7768936157,55.1714477539,-162.7433929443,0.0703763962,-0.0025120080,-0.0007869005,
2605.813,-3.2124106884,1.3405621052,-89.1474227905,0.0614810251,0.0457685590,0.0106354952,-112.1633148193,75.6556243896,148.4470825195,0.0420663357,0.0580729842,0.0054901242,-3.2245461941,82.3556823730,-153.3564758301,0.0257809162,0.0266139060,0.0238219500,26.7737998962,55.1716957092,-162.7426147461,0.0767265558,-0.0034593940,0.0016438961,
2605.823,-3.2129101753,1.3399081230,-89.1456069946,0.0560985208,0.0384530574,0.0072166324,-112.1656341553,75.6593704224,148.4488983154,0.0371997356,0.0619162619,0.0098701715,-3.2196357250,82.3545532227,-153.3438720703,0.0208954811,0.0226971954,0.0223377347,26.7772312164,55.1725730896,-162.7365570068,0.0835712552,0.0013985336,-0.0007708669,
2605.833,-3.2119333744,1.3394896984,-89.1431579590,0.0595091879,0.0457602665,0.0023335814,-112.1738204956,75.6604461670,148.4442291260,0.0420871973,0.0604221523,0.0079431534,-3.2165341377,82.3563766479,-153.3333587646,0.0248059630,0.0285475701,0.0223678946,26.7786769867,55.1735038757,-162.7327270508,0.0757679939,0.0043213367,-0.0007525682,
2605.843,-3.2087464333,1.3395614624,-89.1425552368,0.0575573146,0.0471695885,0.0057480931,-112.1679000854,75.6605300903,148.4541320801,0.0391578674,0.0565237999,0.0137780905,-3.2051904202,82.3586044312,-153.3143310547,0.0248111486,0.0241243094,0.0189865232,26.7805023193,55.1775665283,-162.7269744873,0.0660429001,0.0009134114,-0.0002038479,
2605.853,-3.2092223167,1.3413362503,-89.1420135498,0.0536820367,0.0408301800,0.0037964582,-112.1689987183,75.6621627808,148.4572448730,0.0391649008,0.0633328557,0.0103542805,-3.1951701641,82.3591766357,-153.2961883545,0.0292069912,0.0275182277,0.0175303221,26.7786865234,55.1777572632,-162.7251739502,0.0733690262,-0.0000458360,0.0032078624,
2605.863,-3.2084977627,1.3417062759,-89.1402816772,0.0610127114,0.0427706763,0.0052607059,-112.1701660156,75.6597213745,148.4596099854,0.0401309133,0.0594626069,0.0089096427,-3.1903114319,82.3622283936,-153.2825775146,0.0223781466,0.0260390937,0.0185582638,26.7802200317,55.1801223755,-162.7196350098,0.0680214763,0.0028854907,-0.0026140809,
2605.873,-3.2098646164,1.3421463966,-89.1378784180,0.0566258579,0.0418179184,0.0057505369,-112.1679916382,75.6601333618,148.4665069580,0.0396444201,0.0584833026,0.0118279457,-3.2015402317,82.3617935181,-153.2845458984,0.0253068209,0.0265541226,0.0253877044,26.7833671570,55.1780090332,-162.7136230469,0.0792309046,0.0057735443,0.0032324791,
2605.883,-3.2096571922,1.3417241573,-89.1379013062,0.0590598956,0.0432791561,0.0028204918,-112.1842575073,75.6590957642,148.4546051025,0.0406165123,0.0643320382,0.0016460419,-3.1856019497,82.3607940674,-153.2600250244,0.0253044963,0.0323771089,0.0258566141,26.7867870331,55.1791076660,-162.7063903809,0.0724059343,0.0072150826,-0.0001559854,
2605.893,-3.2097628117,1.3412100077,-89.1361465454,0.0619806126,0.0398630425,0.0057501793,-112.1881103516,75.6584091187,148.4551391602,0.0396369696,0.0653133094,0.0075253844,-3.1848654747,82.3576278687,-153.2504730225,0.0252971649,0.0250541270,0.0262916088,26.7883472443,55.1795539856,-162.7014617920,0.0689923763,0.0047625899,-0.0055145025,
2605.903,-3.2116580009,1.3403143883,-89.1343688965,0.0614767075,0.0398960747,0.0140525103,-112.1920471191,75.6556930542,148.4578094482,0.0371838212,0.0580244958,0.0085348487,-3.1915013790,82.3558654785,-153.2488403320,0.0248047709,0.0216533989,0.0257741809,26.7902374268,55.1805534363,-162.6952819824,0.0738851428,0.0071935952,0.0003660321,
2605.913,-3.2105512619,1.3388265371,-89.1349334717,0.0585210547,0.0442713648,0.0067262650,-112.1962509155,75.6539993286,148.4583435059,0.0405944586,0.0643920302,0.0105158091,-3.1974618435,82.3580398560,-153.2435760498,0.0228567123,0.0241067111,0.0170229673,26.7863693237,55.1816101074,-162.6960906982,0.0704777241,0.0013754666,0.0047565103,
2605.923,-3.2084648609,1.3405525684,-89.1344223022,0.0580628887,0.0476529375,0.0018421412,-112.2097702026,75.6520080566,148.4515380859,0.0386327505,0.0614709854,0.0042350888,-3.2063553333,82.3610534668,-153.2435913086,0.0218871236,0.0197302997,0.0190251470,26.7871723175,55.1805458069,-162.6911621094,0.0787678957,0.0042912066,0.0032820106,
2605.933,-3.2095787525,1.3414008617,-89.1321029663,0.0595425367,0.0383949876,0.0077032447,-112.2090835571,75.6502380371,148.4569702148,0.0405781865,0.0585699081,0.0101031065,-3.2116580009,82.3619995117,-153.2399749756,0.0184713602,0.0231596231,0.0190460086,26.7836475372,55.1832580566,-162.6907196045,0.0646347404,0.0004337728,0.0037889481,
2605.943,-3.2100090981,1.3426998854,-89.1309661865,0.0556589514,0.0408438593,0.0101453066,-112.2188339233,75.6498336792,148.4532318115,0.0386233330,0.0653959513,0.0086799860,-3.2113399506,82.3624572754,-153.2315063477,0.0301911831,0.0251116604,0.0200282335,26.7855110168,55.1843338013,-162.6840820313,0.0856415629,0.0014007092,-0.0059545040,
2605.953,-3.2104589939,1.3411223888,-89.1309967041,0.0634439290,0.0408517271,0.0120984316,-112.2277374268,75.6497268677,148.4490814209,0.0352048874,0.0595239997,0.0062751770,-3.2179605961,82.3597412109,-153.2317047119,0.0277434587,0.0226882398,0.0258451104,26.7849826813,55.1864128113,-162.6817169189,0.0768731833,0.0014187992,0.0033470392,
2605.963,-3.2094576359,1.3429976702,-89.1304855347,0.0556641519,0.0437639356,0.0101448298,-112.2240982056,75.6509094238,148.4560241699,0.0405811071,0.0590229928,0.0150420070,-3.2043836117,82.3587951660,-153.2114257813,0.0233467221,0.0304700136,0.0224045515,26.7858009338,55.1895103455,-162.6796875000,0.0759274960,-0.0010099113,-0.0068635345,
2605.973,-3.2092571259,1.3437669277,-89.1287918091,0.0620252267,0.0408307277,0.0125865936,-112.2282028198,75.6515731812,148.4544677734,0.0420488119,0.0624239743,0.0057769418,-3.2028329372,82.3590469360,-153.2022399902,0.0204176307,0.0255832076,0.0214350224,26.7879390717,55.1885452271,-162.6757965088,0.0832421780,0.0053126216,0.0009465218,
2605.983,-3.2092261314,1.3439130783,-89.1282730103,0.0615394935,0.0447364375,0.0047737360,-112.2295455933,75.6577453613,148.4544982910,0.0352395773,0.0633021891,0.0155085921,-3.1926705837,82.3586654663,-153.1870422363,0.0326237679,0.0280011296,0.0180096030,26.7893638611,55.1896667480,-162.6699981689,0.0705580115,0.0048188567,-0.0024508834,
2605.993,-3.2093482018,1.3436554670,-89.1270599365,0.0566521883,0.0398557633,0.0047740936,-112.2293319702,75.6600341797,148.4564514160,0.0430619717,0.0622909963,0.0106104016,-3.1881737709,82.3602828979,-153.1762390137,0.0243267417,0.0265242159,0.0209661126,26.7903900146,55.1900482178,-162.6655578613,0.0754446387,0.0043238401,0.0034174323,
2606.003,-3.2069387436,1.3436886072,-89.1258773804,0.0595824532,0.0466497242,-0.0045055747,-112.2279586792,75.6612014771,148.4589691162,0.0362310410,0.0617858171,0.0091326237,-3.1892452240,82.3625869751,-153.1710205078,0.0306797624,0.0260362327,0.0131935477,26.7921524048,55.1894989014,-162.6611328125,0.0671383739,0.0062577426,0.0048835874,
2606.013,-3.2068269253,1.3451749086,-89.1235275269,0.0571669787,0.0427414961,0.0033073425,-112.2275543213,75.6621093750,148.4631652832,0.0342818499,0.0578661263,0.0057072639,-3.1958446503,82.3615875244,-153.1684112549,0.0267711878,0.0284940600,0.0165951848,26.7894306183,55.1894836426,-162.6593780518,0.0759272575,0.0043287873,0.0073124766,
2606.023,-3.2075417042,1.3440306187,-89.1234893799,0.0571470112,0.0422656797,-0.0020635128,-112.2260665894,75.6610717773,148.4686126709,0.0347656608,0.0554442704,0.0125437975,-3.2068727016,82.3612747192,-153.1705017090,0.0223759413,0.0202194303,0.0190326571,26.7898864746,55.1880111694,-162.6554107666,0.0749360323,-0.0005676448,0.0033894777,
2606.033,-3.2072093487,1.3414518833,-89.1234741211,0.0644262359,0.0437247977,0.0023297071,-112.2285308838,75.6600646973,148.4732666016,0.0411089659,0.0593611896,0.0106069446,-3.1996769905,82.3607101440,-153.1550750732,0.0233511925,0.0241093487,0.0307408571,26.7856082916,55.1885147095,-162.6541137695,0.0759176016,-0.0000379980,0.0058181882,
2606.043,-3.2087614536,1.3411098719,-89.1210784912,0.0590491779,0.0413104407,-0.0030400157,-112.2224197388,75.6591262817,148.4857635498,0.0445228815,0.0574334264,0.0169358850,-3.2026631832,82.3608169556,-153.1486511230,0.0321404934,0.0241162628,0.0268364549,26.7844810486,55.1869735718,-162.6520233154,0.0812733173,0.0033800304,0.0038403273,
2606.053,-3.2088391781,1.3408359289,-89.1193389893,0.0609975234,0.0378938355,0.0018427372,-112.2269287109,75.6593322754,148.4885711670,0.0362229943,0.0627931654,0.0081637502,-3.2047467232,82.3606185913,-153.1418457031,0.0292103291,0.0221682042,0.0219507217,26.7837486267,55.1829719543,-162.6473999023,0.0802569389,0.0062904358,0.0159928203,
2606.063,-3.2083487511,1.3401176929,-89.1181030273,0.0585435852,0.0461860858,0.0130723715,-112.2370681763,75.6567840576,148.4854278564,0.0410947800,0.0608642399,0.0023614168,-3.2104492188,82.3601226807,-153.1380310059,0.0311623216,0.0207172036,0.0204781294,26.7815227509,55.1840553284,-162.6442718506,0.0675724149,0.0004579127,-0.0001165271,
2606.073,-3.2073249817,1.3386260271,-89.1187438965,0.0648652166,0.0461682789,0.0042816401,-112.2248764038,75.6561279297,148.5052795410,0.0362091660,0.0628472269,0.0203829408,-3.1920447350,82.3613052368,-153.1102142334,0.0238408446,0.0279971510,0.0165897012,26.7779788971,55.1817321777,-162.6416931152,0.0797562599,0.0014509261,0.0047206283,
2606.083,-3.2083623409,1.3396987915,-89.1163787842,0.0565831512,0.0408152379,0.0067248344,-112.2207794189,75.6553649902,148.5151672363,0.0357175469,0.0594472587,0.0145121217,-3.1852648258,82.3605880737,-153.0935363770,0.0189563632,0.0289584994,0.0278071761,26.7735023499,55.1826934814,-162.6416931152,0.0768361688,-0.0014326572,-0.0001699924,
2606.093,-3.2106530666,1.3398593664,-89.1146240234,0.0575625114,0.0364606082,0.0081916451,-112.2192306519,75.6562576294,148.5227508545,0.0352331400,0.0609016120,0.0125469565,-3.1987922192,82.3605041504,-153.0982055664,0.0238389969,0.0211778134,0.0243889093,26.7717075348,55.1804199219,-162.6396789551,0.0802314878,0.0024749041,0.0022342801,
2606.103,-3.2100520134,1.3395113945,-89.1140670776,0.0614626929,0.0423095226,0.0140504837,-112.2240142822,75.6569747925,148.5237579346,0.0376776457,0.0569753349,0.0096319914,-3.2053644657,82.3607940674,-153.0949859619,0.0282341838,0.0290054679,0.0204879642,26.7695350647,55.1794700623,-162.6385040283,0.0724095106,-0.0014181137,0.0061186552,
2606.113,-3.2108898163,1.3390637636,-89.1122512817,0.0575486347,0.0393944383,0.0081918240,-112.2283477783,75.6573486328,148.5249176025,0.0391440988,0.0579397082,0.0072055459,-3.1999394894,82.3646697998,-153.0801849365,0.0321494341,0.0265475959,0.0161600709,26.7694492340,55.1787796021,-162.6344451904,0.0767971277,0.0024844110,0.0017149448,
2606.123,-3.2123522758,1.3393218517,-89.1123886108,0.0609711073,0.0374667868,0.0033103228,-112.2246170044,75.6608200073,148.5344543457,0.0362294316,0.0603330731,0.0154692531,-3.2020323277,82.3684005737,-153.0728302002,0.0287401080,0.0231310427,0.0132925510,26.7651748657,55.1805267334,-162.6341247559,0.0699785948,-0.0023491383,-0.0012117624,
2606.133,-3.2134366035,1.3389790058,-89.1118469238,0.0609651208,0.0409036502,0.0008699894,-112.2211685181,75.6648025513,148.5432739258,0.0362466574,0.0622294545,0.0134768486,-3.2134089470,82.3686370850,-153.0765380859,0.0233695507,0.0216925144,0.0250191689,26.7700252533,55.1823997498,-162.6252593994,0.0699973106,0.0025026500,-0.0031188726,
2606.143,-3.2130928040,1.3391218185,-89.1095275879,0.0619441755,0.0413859412,0.0057524443,-112.2281417847,75.6634826660,148.5421447754,0.0352643728,0.0549139678,0.0071657300,-3.2446184158,82.3698196411,-153.0997009277,0.0238605738,0.0212763697,0.0182029009,26.7724151611,55.1824798584,-162.6190032959,0.0802519917,0.0093178153,-0.0006658435,
2606.153,-3.2146306038,1.3408701420,-89.1078414917,0.0580684319,0.0414126888,-0.0025463104,-112.2191543579,75.6637191772,148.5558319092,0.0357536674,0.0549259186,0.0144522190,-3.2458772659,82.3718185425,-153.0926361084,0.0253300667,0.0227421075,0.0167752504,26.7715606689,55.1823120117,-162.6165924072,0.0773206353,0.0005352795,0.0061640143,
2606.163,-3.2141170502,1.3424303532,-89.1068038940,0.0610253438,0.0399388671,0.0057548881,-112.2062759399,75.6643676758,148.5719909668,0.0396627188,0.0544472635,0.0153730512,-3.2405791283,82.3715896606,-153.0811004639,0.0253295302,0.0285892785,0.0206773281,26.7701129913,55.1816329956,-162.6169433594,0.0778021812,0.0005438030,0.0081019402,
2606.173,-3.2122600079,1.3427193165,-89.1050109863,0.0590772629,0.0467424467,0.0028231144,-112.1969604492,75.6649322510,148.5815429688,0.0416182876,0.0603147149,0.0099606514,-3.2332482338,82.3671951294,-153.0674743652,0.0297138691,0.0266232491,0.0342727304,26.7737331390,55.1823196411,-162.6118469238,0.0729262233,0.0058871806,0.0032445788,
2606.183,-3.2127008438,1.3437302113,-89.1051025391,0.0586066209,0.0408907309,0.0111253858,-112.2098770142,75.6668777466,148.5688476563,0.0367438793,0.0651444197,-0.0017183423,-3.2476639748,82.3663940430,-153.0760955811,0.0258057714,0.0212866515,0.0240080953,26.7759132385,55.1836547852,-162.6082000732,0.0724511743,0.0092942119,-0.0021005273,
2606.193,-3.2118353844,1.3441364765,-89.1039733887,0.0586137027,0.0433170497,0.0047761798,-112.2151489258,75.6686706543,148.5667266846,0.0406578779,0.0655978024,0.0002443194,-3.2436265945,82.3639755249,-153.0638580322,0.0321478248,0.0242092162,0.0249428749,26.7771911621,55.1819229126,-162.6036987305,0.0778050423,0.0024358630,0.0042318702,
2606.203,-3.2111008167,1.3426510096,-89.1027221680,0.0610291921,0.0428160019,0.0072168112,-112.2064590454,75.6649093628,148.5761566162,0.0411298871,0.0534622967,0.0129289627,-3.2527663708,82.3629226685,-153.0661468506,0.0297039747,0.0261847824,0.0224845409,26.7769985199,55.1819610596,-162.6007385254,0.0782937407,0.0034142733,0.0017890334,
2606.213,-3.2112150192,1.3428426981,-89.1022338867,0.0615208149,0.0398883000,0.0086815357,-112.1981887817,75.6645889282,148.5888519287,0.0416167974,0.0627597272,0.0133857727,-3.2633075714,82.3623580933,-153.0677795410,0.0272612572,0.0203506500,0.0254060626,26.7774391174,55.1838722229,-162.5975646973,0.0763596296,0.0009813011,-0.0016021132,
2606.223,-3.2107820511,1.3426167965,-89.1022567749,0.0585871935,0.0418338850,0.0091696978,-112.2064132690,75.6620483398,148.5870819092,0.0367230177,0.0642488897,0.0095287561,-3.2602429390,82.3621826172,-153.0565185547,0.0282374024,0.0242499262,0.0244254470,26.7729568481,55.1826782227,-162.5973510742,0.0748829246,0.0010134876,-0.0011491776,
2606.233,-3.2112076283,1.3406053782,-89.1011276245,0.0668528751,0.0389116630,-0.0001083016,-112.2033615112,75.6597061157,148.5955810547,0.0440371037,0.0603851974,0.0119728446,-3.2579007149,82.3628768921,-153.0455169678,0.0204265118,0.0286383033,0.0205304623,26.7706813812,55.1808395386,-162.5947570801,0.0729114413,0.0029750168,0.0076061487,
2606.243,-3.2115795612,1.3422968388,-89.0994567871,0.0585816056,0.0389181003,0.0067286491,-112.2139053345,75.6582717896,148.5928192139,0.0386598110,0.0618551075,0.0081182122,-3.2640004158,82.3635406494,-153.0446472168,0.0292171240,0.0237691253,0.0146834850,26.7699394226,55.1806564331,-162.5909118652,0.0773041844,0.0034686923,0.0022293329,
2606.253,-3.2132606506,1.3420902491,-89.0989761353,0.0649256557,0.0409005135,0.0052656531,-112.2104263306,75.6544342041,148.6015167236,0.0440143347,0.0599674881,0.0144762397,-3.2741870880,82.3627929688,-153.0441284180,0.0253091455,0.0213522613,0.0283451080,26.7701911926,55.1783103943,-162.5851593018,0.0772807598,0.0014981925,0.0056183338,
2606.263,-3.2148654461,1.3438413143,-89.0966873169,0.0586085543,0.0409284383,0.0101507306,-112.2122879028,75.6517410278,148.6039123535,0.0415612459,0.0590291917,0.0066884160,-3.2666234970,82.3619995117,-153.0271911621,0.0292135477,0.0267064869,0.0224695206,26.7736873627,55.1764640808,-162.5785675049,0.0757975578,0.0078028440,0.0090284348,
2606.273,-3.2143442631,1.3423279524,-89.0943374634,0.0654180869,0.0399428308,0.0013603568,-112.2286453247,75.6492614746,148.5909576416,0.0420387983,0.0624592602,-0.0029954910,-3.2651562691,82.3632888794,-153.0187835693,0.0321462154,0.0252369046,0.0205392241,26.7746219635,55.1803932190,-162.5734863281,0.0641179085,0.0053784251,-0.0026359558,
2606.283,-3.2154085636,1.3426650763,-89.0936965942,0.0522403754,0.0409379229,0.0018498302,-112.2323608398,75.6518478394,148.5888366699,0.0400968790,0.0599713624,0.0096981525,-3.2616069317,82.3662948608,-153.0084381104,0.0258055329,0.0286436826,0.0161943436,26.7756652832,55.1762542725,-162.5696563721,0.0826313496,0.0063190460,0.0080583692,
2606.293,-3.2148089409,1.3437544107,-89.0913162231,0.0566539168,0.0443454199,0.0106387734,-112.2339172363,75.6551895142,148.5907592773,0.0391347408,0.0628465712,0.0116363168,-3.2447583675,82.3648529053,-152.9841766357,0.0301967263,0.0320235193,0.0220283866,26.7782268524,55.1787528992,-162.5641021729,0.0689843893,0.0048474371,-0.0036176443,
2606.303,-3.2149195671,1.3428703547,-89.0913238525,0.0605447441,0.0443473682,-0.0005918145,-112.2450485229,75.6575317383,148.5827941895,0.0410979986,0.0652339756,0.0048302412,-3.2241923809,82.3644409180,-152.9580688477,0.0297074914,0.0309992582,0.0234814882,26.7755641937,55.1759490967,-162.5616149902,0.0816517472,0.0038766861,0.0051248074,
2606.313,-3.2140460014,1.3429955244,-89.0889358521,0.0600586385,0.0453087091,0.0111259818,-112.2426910400,75.6574707031,148.5904846191,0.0371915102,0.0584028065,0.0116571188,-3.2197077274,82.3639755249,-152.9447631836,0.0282415748,0.0251297653,0.0229860544,26.7699871063,55.1742134094,-162.5633392334,0.0811461806,-0.0014560819,0.0036119223,
2606.323,-3.2130298615,1.3434404135,-89.0870971680,0.0542070307,0.0438261516,0.0008714199,-112.2515792847,75.6608505249,148.5870666504,0.0362295508,0.0641948283,0.0072767138,-3.2172195911,82.3651580811,-152.9335479736,0.0272677541,0.0265876651,0.0220288634,26.7705307007,55.1750373840,-162.5596008301,0.0684590936,0.0044037700,0.0021600127,
2606.333,-3.2148900032,1.3423796892,-89.0865173340,0.0615127385,0.0423937365,0.0057554841,-112.2536468506,75.6606445313,148.5913848877,0.0386700630,0.0593116879,0.0131455660,-3.2187905312,82.3646697998,-152.9251861572,0.0267783403,0.0270800740,0.0254391432,26.7696781158,55.1745414734,-162.5569763184,0.0772432089,0.0014784932,0.0021500587,
2606.343,-3.2156245708,1.3418971300,-89.0859909058,0.0615043193,0.0399651416,0.0023380518,-112.2585983276,75.6588058472,148.5929565430,0.0425683856,0.0578673184,0.0092710257,-3.2391359806,82.3651580811,-152.9354705811,0.0248263478,0.0207796097,0.0220322013,26.7654094696,55.1729278564,-162.5553283691,0.0733208656,0.0029709041,0.0074812770,
2606.353,-3.2159481049,1.3432353735,-89.0848617554,0.0576214232,0.0433887132,0.0086865425,-112.2570877075,75.6597900391,148.6009979248,0.0357366800,0.0612722635,0.0131649375,-3.2399907112,82.3656997681,-152.9264984131,0.0292221308,0.0295701176,0.0152063370,26.7623386383,55.1712913513,-162.5535583496,0.0825818777,-0.0023833811,0.0059819818,
2606.363,-3.2176318169,1.3416250944,-89.0843124390,0.0634526983,0.0365821496,0.0062462091,-112.2593154907,75.6616897583,148.6051940918,0.0386745930,0.0617272258,0.0136500597,-3.2313542366,82.3659820557,-152.9085845947,0.0253165364,0.0295496434,0.0235102177,26.7602386475,55.1692619324,-162.5508422852,0.0806085467,0.0034816265,0.0078995824,
2606.373,-3.2173924446,1.3417875767,-89.0826034546,0.0619906895,0.0409725010,0.0121054053,-112.2591400146,75.6617965698,148.6117706299,0.0376985073,0.0573309958,0.0131602883,-3.2378661633,82.3641510010,-152.9056396484,0.0258005857,0.0222424567,0.0259210467,26.7600765228,55.1667747498,-162.5468750000,0.0776540637,0.0054200590,0.0078665018,
2606.383,-3.2162117958,1.3437535763,-89.0814361572,0.0532359332,0.0443698615,0.0072221756,-112.2649307251,75.6634292603,148.6124572754,0.0352641344,0.0592495501,0.0102435946,-3.2361457348,82.3641052246,-152.8944549561,0.0297067165,0.0241916031,0.0215253830,26.7571353912,55.1685943604,-162.5451354980,0.0649768710,-0.0004012287,0.0078776479,
2606.393,-3.2162053585,1.3401477337,-89.0807876587,0.0663566142,0.0424167067,0.0111268759,-112.2757263184,75.6645278931,148.6049957275,0.0406399965,0.0592145324,0.0078386068,-3.2132248878,82.3636703491,-152.8621063232,0.0311705470,0.0275562853,0.0210266113,26.7544212341,55.1667251587,-162.5444030762,0.0835129619,0.0005873442,0.0049108267,
2606.403,-3.2161266804,1.3411709070,-89.0796508789,0.0585619621,0.0448567234,0.0038030744,-112.2722320557,75.6648788452,148.6132202148,0.0382000804,0.0597029328,0.0127050877,-3.2086532116,82.3629226685,-152.8494873047,0.0253094435,0.0290111154,0.0224783421,26.7573127747,55.1689071655,-162.5375976563,0.0762104392,0.0030170679,-0.0062783957,
2606.413,-3.2169036865,1.3411989212,-89.0796813965,0.0575858876,0.0419405624,0.0057570338,-112.2692642212,75.6639099121,148.6196289063,0.0391724706,0.0563052297,0.0117226839,-3.1955780983,82.3619766235,-152.8294525146,0.0267720819,0.0260517150,0.0190420151,26.7565460205,55.1668395996,-162.5347137451,0.0854672194,0.0044754744,0.0019927025,
2606.423,-3.2171347141,1.3409801722,-89.0772933960,0.0590469167,0.0414563157,0.0091750026,-112.2652359009,75.6649780273,148.6262359619,0.0391770601,0.0626425743,0.0082818270,-3.2023477554,82.3612289429,-152.8299255371,0.0228641033,0.0250917375,0.0204948783,26.7538871765,55.1618461609,-162.5335998535,0.0810228586,0.0030020773,0.0126590133,
2606.433,-3.2178719044,1.3418389559,-89.0761260986,0.0571087748,0.0419574194,0.0072233677,-112.2508850098,75.6649322510,148.6423492432,0.0440596938,0.0529012382,0.0209197402,-3.2098340988,82.3582992554,-152.8304595947,0.0267635584,0.0246236920,0.0267959833,26.7522277832,55.1619338989,-162.5321502686,0.0785823464,0.0000877976,0.0053284764,
2606.443,-3.2189297676,1.3403164148,-89.0755691528,0.0629415810,0.0409993194,0.0008756518,-112.2442932129,75.6677169800,148.6505889893,0.0362592340,0.0606811941,0.0135513544,-3.2050960064,82.3582992554,-152.8177032471,0.0296932459,0.0270541608,0.0263029933,26.7512454987,55.1619796753,-162.5290069580,0.0746765733,0.0025382042,0.0038599968,
2606.453,-3.2168858051,1.3395949602,-89.0730895996,0.0585344657,0.0473113805,0.0052679777,-112.2552185059,75.6642608643,148.6416320801,0.0367325544,0.0592524707,0.0004336834,-3.2164676189,82.3570175171,-152.8220672607,0.0243191719,0.0231757164,0.0257965326,26.7506809235,55.1593055725,-162.5269775391,0.0863686800,0.0010612011,-0.0005714297,
2606.463,-3.2175912857,1.3389447927,-89.0713577271,0.0648707747,0.0419525951,0.0125928521,-112.2567672729,75.6621093750,148.6422882080,0.0425826311,0.0592832565,0.0102192163,-3.2155513763,82.3568115234,-152.8128204346,0.0277366638,0.0212206542,0.0223746300,26.7556610107,55.1589622498,-162.5202789307,0.0780644417,0.0093153715,0.0018880963,
2606.473,-3.2175502777,1.3372558355,-89.0696029663,0.0643530264,0.0380456746,0.0160099864,-112.2525405884,75.6618957520,148.6500549316,0.0430700183,0.0651527643,0.0141097307,-3.2129886150,82.3556289673,-152.8026275635,0.0218745470,0.0236571729,0.0223543644,26.7540473938,55.1595230103,-162.5177917480,0.0692809820,0.0020091832,0.0038411617,
2606.483,-3.2198255062,1.3392440081,-89.0678939819,0.0555986539,0.0385735370,0.0130833387,-112.2459335327,75.6614151001,148.6613159180,0.0376968384,0.0622413754,0.0160393715,-3.2160830498,82.3550186157,-152.7975921631,0.0228496790,0.0256181210,0.0306455493,26.7506637573,55.1567077637,-162.5180816650,0.0780419707,-0.0004203022,0.0081839561,
2606.493,-3.2223370075,1.3387033939,-89.0667648315,0.0619368777,0.0400821492,0.0052728057,-112.2463150024,75.6597366333,148.6651611328,0.0381778479,0.0588492453,0.0087274313,-3.2213735580,82.3546524048,-152.7934570313,0.0184543133,0.0231894851,0.0242921114,26.7496643066,55.1542091370,-162.5153961182,0.0794818997,0.0044554472,0.0027775168,
2606.503,-3.2204496861,1.3397618532,-89.0655441284,0.0541428439,0.0468851849,0.0028300285,-112.2484512329,75.6579666138,148.6681060791,0.0371936560,0.0608261228,0.0141183138,-3.2236814499,82.3571701050,-152.7868957520,0.0194367170,0.0227042288,0.0165222883,26.7519493103,55.1533622742,-162.5104370117,0.0765437484,0.0073591471,0.0066820979,
2606.513,-3.2215912342,1.3390522003,-89.0661926270,0.0599898361,0.0386043079,0.0042962432,-112.2517929077,75.6562728882,148.6712646484,0.0362097621,0.0628004074,0.0121893883,-3.2360990047,82.3593826294,-152.7935638428,0.0272543430,0.0227311850,0.0199803114,26.7533550262,55.1562423706,-162.5053253174,0.0765724778,-0.0019119978,-0.0074339509,
2606.523,-3.2215075493,1.3397849798,-89.0644836426,0.0575612187,0.0405559540,0.0038071871,-112.2470932007,75.6568374634,148.6813659668,0.0415832996,0.0603579581,0.0126552582,-3.2239778042,82.3610534668,-152.7744750977,0.0262816548,0.0261191279,0.0185425282,26.7538280487,55.1567192078,-162.5008392334,0.0736475587,0.0049225986,0.0042918921,
2606.533,-3.2210698128,1.3389606476,-89.0638961792,0.0629179329,0.0439663157,0.0082017183,-112.2419586182,75.6581649780,148.6902770996,0.0371944904,0.0622990429,0.0101848841,-3.2176666260,82.3606872559,-152.7612152100,0.0272573829,0.0251281708,0.0190225244,26.7521343231,55.1568603516,-162.4980621338,0.0760903955,0.0034739673,0.0028225183,
2606.543,-3.2221686840,1.3389502764,-89.0620803833,0.0580349341,0.0449620262,0.0042965412,-112.2338790894,75.6609191895,148.7001342773,0.0406243801,0.0608047247,0.0213653445,-3.2211902142,82.3610534668,-152.7571105957,0.0257933736,0.0231828988,0.0224485397,26.7506675720,55.1553306580,-162.4973144531,0.0721688867,0.0039653182,0.0115842819,
2606.553,-3.2204194069,1.3409559727,-89.0604019165,0.0575816482,0.0420018211,0.0096664429,-112.2297210693,75.6624984741,148.7073211670,0.0406311750,0.0622515678,0.0115728974,-3.2194724083,82.3613357544,-152.7479095459,0.0272588730,0.0275731087,0.0185472965,26.7496509552,55.1542091370,-162.4952697754,0.0785053372,0.0059204102,0.0066837072,
2606.563,-3.2196409702,1.3413482904,-89.0585937500,0.0566119328,0.0429648124,0.0038067102,-112.2330017090,75.6641616821,148.7068786621,0.0377086997,0.0602669418,0.0096223354,-3.2127261162,82.3623123169,-152.7336883545,0.0209134817,0.0280446857,0.0175855756,26.7479400635,55.1584167480,-162.4935302734,0.0682933927,-0.0008733571,-0.0079197884,
2606.573,-3.2207474709,1.3409135342,-89.0574035645,0.0590457544,0.0429840907,-0.0054696798,-112.2284469604,75.6664886475,148.7150268555,0.0445547104,0.0587733090,0.0115422010,-3.2052741051,82.3618164063,-152.7187652588,0.0257951617,0.0280276984,0.0258769989,26.7513847351,55.1611442566,-162.4875640869,0.0727151036,0.0064379275,-0.0000560284,
2606.583,-3.2226676941,1.3390783072,-89.0555877686,0.0624317005,0.0420410261,0.0086913109,-112.2269363403,75.6673736572,148.7216339111,0.0411405563,0.0582735538,0.0144602060,-3.2009546757,82.3614349365,-152.7086486816,0.0311653614,0.0236233920,0.0244053602,26.7543849945,55.1589012146,-162.4801940918,0.0834349394,0.0073731542,-0.0005602837,
2606.593,-3.2221615314,1.3382217884,-89.0537948608,0.0609519109,0.0420322232,0.0033193827,-112.2297592163,75.6676254272,148.7233428955,0.0416299105,0.0641245544,0.0056809783,-3.1937563419,82.3622512817,-152.6917572021,0.0267727375,0.0333713740,0.0234416127,26.7558822632,55.1569862366,-162.4752960205,0.0809744596,0.0073475838,-0.0000892282,
2606.603,-3.2238507271,1.3360573053,-89.0538177490,0.0633555502,0.0386437401,0.0121092796,-112.2420043945,75.6688613892,148.7165069580,0.0435883999,0.0640850961,0.0066988468,-3.1910753250,82.3622055054,-152.6795654297,0.0262843370,0.0226229578,0.0200222731,26.7570266724,55.1571235657,-162.4689178467,0.0765812993,0.0083147883,-0.0010591149,
2606.613,-3.2217755318,1.3355841637,-89.0538177490,0.0594410449,0.0454435349,0.0086892843,-112.2499694824,75.6701889038,148.7146148682,0.0391995907,0.0640512705,0.0081871748,-3.1928207874,82.3600692749,-152.6711730957,0.0223731399,0.0226290822,0.0234041214,26.7550640106,55.1535568237,-162.4656066895,0.0809402466,0.0024499297,0.0101169348,
2606.623,-3.2215368748,1.3341504335,-89.0526809692,0.0652754009,0.0410448760,0.0106415153,-112.2697372437,75.6702651978,148.7010040283,0.0435944796,0.0605995953,-0.0000346303,-3.1992774010,82.3594284058,-152.6687927246,0.0296958685,0.0221565366,0.0253472924,26.7530612946,55.1517677307,-162.4631347656,0.0833637714,-0.0009617209,0.0027608871,
2606.633,-3.2197165489,1.3339630365,-89.0509109497,0.0608775988,0.0444311462,0.0067335367,-112.2757949829,75.6688079834,148.7034301758,0.0421233177,0.0586594045,0.0082998276,-3.1943571568,82.3586654663,-152.6532592773,0.0311589241,0.0260519981,0.0238684416,26.7551746368,55.1522789001,-162.4577789307,0.0755563974,0.0058586895,0.0018004775,
2606.643,-3.2216067314,1.3328595161,-89.0497360229,0.0598817840,0.0356750265,0.0125941634,-112.2855072021,75.6700363159,148.6996612549,0.0406637788,0.0625306666,0.0088191628,-3.1899135113,82.3595352173,-152.6376647949,0.0301843882,0.0284821391,0.0204650760,26.7610492706,55.1530189514,-162.4477539063,0.0750755072,0.0077642798,-0.0010933280,
2606.653,-3.2215278149,1.3316637278,-89.0498123169,0.0642554536,0.0405564979,0.0121053457,-112.2856216431,75.6696777344,148.7059478760,0.0367559791,0.0557002425,0.0122399330,-3.1700165272,82.3603820801,-152.6078796387,0.0272566676,0.0308760852,0.0151060820,26.7606372833,55.1536865234,-162.4435882568,0.0692227483,0.0077721775,0.0018428564,
2606.663,-3.2192177773,1.3320155144,-89.0486221313,0.0588904917,0.0483287498,0.0072203279,-112.2981262207,75.6707382202,148.7008056641,0.0352957249,0.0615224540,0.0049590468,-3.1753516197,82.3629226685,-152.6029357910,0.0228680372,0.0177026093,0.0200327039,26.7567291260,55.1555061340,-162.4426574707,0.0721706152,-0.0019468665,0.0013602376,
2606.673,-3.2219831944,1.3327523470,-89.0474624634,0.0554853827,0.0390995592,0.0101530552,-112.2924957275,75.6706161499,148.7109375000,0.0396897197,0.0537210703,0.0137264132,-3.1836729050,82.3638534546,-152.6041259766,0.0292178392,0.0186977834,0.0200496912,26.7568531036,55.1570014954,-162.4371185303,0.0726737976,0.0029445291,-0.0000846982,
2606.683,-3.2232162952,1.3319447041,-89.0475463867,0.0627955049,0.0381444991,0.0096656084,-112.2977752686,75.6714172363,148.7095947266,0.0372517705,0.0556532145,0.0098361969,-3.1861679554,82.3623886108,-152.5997009277,0.0282378793,0.0250526816,0.0263726711,26.7567138672,55.1547393799,-162.4331512451,0.0794871449,0.0043959022,0.0057443380,
2606.693,-3.2251510620,1.3292034864,-89.0475921631,0.0651890859,0.0357368588,0.0072249174,-112.3058319092,75.6705474854,148.7033996582,0.0396894217,0.0566301644,0.0020616055,-3.1844058037,82.3596420288,-152.5916595459,0.0257900953,0.0265160352,0.0292546153,26.7576370239,55.1536407471,-162.4280700684,0.0809410810,0.0063338876,0.0067123175,
2606.703,-3.2253577709,1.3294932842,-89.0470657349,0.0588464811,0.0396467075,0.0033192039,-112.2996520996,75.6748504639,148.7115936279,0.0372666121,0.0614560246,0.0176342130,-3.1841635704,82.3596115112,-152.5848846436,0.0243251920,0.0201678127,0.0263249874,26.7582397461,55.1535186768,-162.4239654541,0.0814281702,0.0024213493,-0.0059830546,
2606.713,-3.2267587185,1.3269339800,-89.0452499390,0.0622197948,0.0377180465,-0.0069347620,-112.3045196533,75.6766204834,148.7064514160,0.0406922102,0.0565369129,0.0064121485,-3.1864621639,82.3586883545,-152.5802001953,0.0331121087,0.0231037587,0.0258212686,26.7582607269,55.1545486450,-162.4199676514,0.0716727972,0.0034044385,0.0013554096,
2606.723,-3.2255976200,1.3262476921,-89.0452499390,0.0597664118,0.0445337668,-0.0030292869,-112.2963256836,75.6762619019,148.7152862549,0.0392258167,0.0614397228,0.0122408271,-3.1870496273,82.3597412109,-152.5744171143,0.0248137712,0.0240807235,0.0185145736,26.7631187439,55.1547698975,-162.4138793945,0.0746047497,0.0082453787,0.0028443336,
2606.733,-3.2263801098,1.3264136314,-89.0453414917,0.0592810288,0.0440591089,0.0067360997,-112.2907257080,75.6775588989,148.7229766846,0.0382548571,0.0628927350,0.0156280994,-3.1748142242,82.3591232300,-152.5566558838,0.0272537470,0.0313768089,0.0238742828,26.7631530762,55.1582145691,-162.4094238281,0.0658499599,-0.0005217791,-0.0015056729,
2606.743,-3.2261970043,1.3283516169,-89.0429000854,0.0515023470,0.0450324416,0.0096671581,-112.2931671143,75.6757431030,148.7236938477,0.0362939239,0.0590115190,0.0058837533,-3.1713724136,82.3572235107,-152.5456542969,0.0228548050,0.0259994268,0.0267714262,26.7615451813,55.1575584412,-162.4092712402,0.0692613721,-0.0005117357,0.0058022738,
2606.753,-3.2283318043,1.3274205923,-89.0417327881,0.0612517297,0.0392102823,0.0077156425,-112.2949066162,75.6740798950,148.7270050049,0.0343335867,0.0604993105,0.0059013367,-3.1701982021,82.3584289551,-152.5370330811,0.0282287002,0.0274603963,0.0175139904,26.7608985901,55.1577415466,-162.4054565430,0.0765874386,0.0053546727,0.0038496256,
2606.763,-3.2273766994,1.3267097473,-89.0399017334,0.0583096370,0.0435881950,0.0033198595,-112.2899856567,75.6699981689,148.7374420166,0.0391987562,0.0556882620,0.0088374615,-3.1830332279,82.3583450317,-152.5398864746,0.0272519588,0.0240725875,0.0258153677,26.7585487366,55.1559181213,-162.4035797119,0.0814520717,0.0009692013,-0.0025329590,
2606.773,-3.2284066677,1.3293876648,-89.0394287109,0.0549383909,0.0431177914,0.0082048774,-112.2872543335,75.6657714844,148.7456817627,0.0425984859,0.0586881638,0.0093416572,-3.1847672462,82.3587341309,-152.5323028564,0.0209051967,0.0270059854,0.0277751684,26.7542800903,55.1570854187,-162.4029083252,0.0707215071,-0.0033796430,-0.0000948310,
2606.783,-3.2269384861,1.3310812712,-89.0389709473,0.0583859123,0.0411390513,0.0082041025,-112.2875671387,75.6635818481,148.7522735596,0.0347765088,0.0640927851,0.0078921318,-3.1872205734,82.3587341309,-152.5229492188,0.0252997279,0.0255469084,0.0199626684,26.7502593994,55.1560935974,-162.4031982422,0.0770592690,0.0015324056,0.0047561526,
2606.793,-3.2257580757,1.3311012983,-89.0391235352,0.0642456338,0.0401419252,0.0111326575,-112.2795715332,75.6586303711,148.7662658691,0.0411027670,0.0563705564,0.0127744079,-3.1897497177,82.3603591919,-152.5160064697,0.0262800455,0.0226216018,0.0204790235,26.7513866425,55.1576728821,-162.3982086182,0.0717039108,-0.0004204512,0.0057590604,
2606.803,-3.2262251377,1.3303701878,-89.0379562378,0.0608149096,0.0406383574,0.0150389671,-112.2730026245,75.6568679810,148.7799835205,0.0435365438,0.0564093292,0.0147122741,-3.1964819431,82.3613357544,-152.5127410889,0.0209112167,0.0250778496,0.0170788169,26.7496833801,55.1602821350,-162.3955230713,0.0683119893,-0.0008768439,0.0018773675,
2606.813,-3.2265136242,1.3327250481,-89.0367736816,0.0496255308,0.0435730219,0.0028331280,-112.2723693848,75.6568145752,148.7864837646,0.0362120867,0.0588510334,0.0108039975,-3.2049026489,82.3609466553,-152.5125427246,0.0262814164,0.0275393575,0.0229326487,26.7501773834,55.1595191956,-162.3914794922,0.0785582662,0.0044849515,0.0057765245,
2606.823,-3.2271018028,1.3319050074,-89.0349960327,0.0608416870,0.0382121876,0.0038101673,-112.2788314819,75.6584091187,148.7855987549,0.0362190008,0.0637004375,0.0088666081,-3.2086882591,82.3625183105,-152.5099029541,0.0272616148,0.0226639360,0.0141705871,26.7520370483,55.1593322754,-162.3855285645,0.0824626684,0.0034906864,-0.0010533929,
2606.833,-3.2264337540,1.3332790136,-89.0326614380,0.0574476942,0.0425950512,-0.0000962019,-112.2786941528,75.6637344360,148.7915649414,0.0318474770,0.0626391172,0.0127384067,-3.2095692158,82.3633346558,-152.5012359619,0.0238455534,0.0212003142,0.0171157122,26.7538261414,55.1566352844,-162.3793182373,0.0834123492,0.0058988035,0.0072212219,
2606.843,-3.2289893627,1.3320446014,-89.0326614380,0.0579144433,0.0377567858,0.0116242170,-112.2816848755,75.6656341553,148.7950439453,0.0411330462,0.0601642132,0.0132263899,-3.1941268444,82.3612060547,-152.4780883789,0.0243288875,0.0231193602,0.0258646011,26.7531356812,55.1592063904,-162.3780670166,0.0770903230,-0.0018911064,-0.0049567223,
2606.853,-3.2294778824,1.3329597712,-89.0345077515,0.0540241599,0.0431363732,0.0023481846,-112.2727737427,75.6693344116,148.8069152832,0.0333365202,0.0557258725,0.0195149183,-3.2020528316,82.3600692749,-152.4790039063,0.0272559524,0.0226507187,0.0209639072,26.7539653778,55.1607398987,-162.3753662109,0.0722228289,0.0020177662,-0.0020026565,
2606.863,-3.2276031971,1.3329118490,-89.0338592529,0.0559764504,0.0489630923,0.0101587772,-112.2655487061,75.6726760864,148.8164062500,0.0421400070,0.0586173236,0.0155581236,-3.1859493256,82.3608703613,-152.4578399658,0.0282343626,0.0289598405,0.0190230012,26.7572708130,55.1610908508,-162.3704071045,0.0771090984,0.0049201548,0.0043634176,
2606.873,-3.2266576290,1.3308480978,-89.0326614380,0.0632646531,0.0391810350,0.0125984550,-112.2512817383,75.6761474609,148.8311309814,0.0382487774,0.0532132685,0.0198732018,-3.1886379719,82.3596878052,-152.4549255371,0.0262784958,0.0265258849,0.0194906592,26.7572498322,55.1612777710,-162.3674468994,0.0727164745,0.0024802685,0.0048545003,
2606.883,-3.2263386250,1.3300766945,-89.0314331055,0.0583683811,0.0435700342,0.0023438931,-112.2453994751,75.6769485474,148.8371887207,0.0426467657,0.0561417639,0.0076372623,-3.1838593483,82.3584289551,-152.4455413818,0.0321349502,0.0230978727,0.0228874683,26.7584285736,55.1617622375,-162.3628692627,0.0795571804,0.0029610991,-0.0000168085,
2606.893,-3.2271943092,1.3300442696,-89.0314941406,0.0578795373,0.0416318066,0.0082037449,-112.2556915283,75.6782608032,148.8291320801,0.0372813344,0.0575678647,0.0032759309,-3.1626396179,82.3607635498,-152.4186096191,0.0189567804,0.0279287398,0.0219477415,26.7642345428,55.1634330750,-162.3553314209,0.0751793385,0.0082912743,-0.0019224882,
2606.903,-3.2249884605,1.3299918175,-89.0296783447,0.0603200272,0.0479410440,0.0042957067,-112.2458496094,75.6851501465,148.8411560059,0.0387759209,0.0682205856,0.0217470527,-3.1268076897,82.3606872559,-152.3753356934,0.0282339454,0.0327276587,0.0248709321,26.7645721436,55.1632270813,-162.3520507813,0.0742007494,0.0082869828,0.0000295639,
2606.913,-3.2273015976,1.3296110630,-89.0266571045,0.0573836938,0.0406571254,0.0028327703,-112.2414321899,75.6871566772,148.8489532471,0.0358548760,0.0647769570,0.0143924356,-3.1263561249,82.3605880737,-152.3661346436,0.0292102695,0.0254024565,0.0258460045,26.7641525269,55.1645774841,-162.3473968506,0.0707961917,0.0043931305,-0.0072794557,
2606.923,-3.2295594215,1.3274798393,-89.0248260498,0.0612527579,0.0387433842,0.0067403316,-112.2409820557,75.6894073486,148.8559875488,0.0343997478,0.0671848953,0.0158410668,-3.1466090679,82.3617172241,-152.3751068115,0.0214003921,0.0215426385,0.0204964876,26.7680759430,55.1666908264,-162.3382415771,0.0737469792,0.0087663531,-0.0067465305,
2606.933,-3.2284822464,1.3265439272,-89.0236663818,0.0631895512,0.0440957397,0.0018560886,-112.2390747070,75.6870880127,148.8662261963,0.0373194218,0.0589227974,0.0129185915,-3.1485223770,82.3651123047,-152.3652343750,0.0248262286,0.0264267325,0.0210433602,26.7644844055,55.1668281555,-162.3349609375,0.0693538189,-0.0029195845,0.0044693351,
2606.943,-3.2293744087,1.3269257545,-89.0231323242,0.0563602746,0.0372753367,0.0023453832,-112.2451858521,75.6847076416,148.8724060059,0.0373091698,0.0618802607,0.0095402598,-3.1352269650,82.3678054810,-152.3391265869,0.0272738934,0.0337172747,0.0171814561,26.7571277618,55.1696281433,-162.3358459473,0.0669403076,-0.0082070827,-0.0018754005,
2606.953,-3.2287335396,1.3273416758,-89.0231933594,0.0583206639,0.0426352546,0.0042980313,-112.2489929199,75.6806640625,148.8800811768,0.0416862369,0.0551010370,0.0090930462,-3.1289002895,82.3679122925,-152.3216857910,0.0243444443,0.0293078423,0.0220650434,26.7548904419,55.1697998047,-162.3317413330,0.0693834424,0.0010913014,0.0034879446,
2606.963,-3.2284858227,1.3275457621,-89.0220489502,0.0593007877,0.0411660895,0.0042978525,-112.2572937012,75.6794738770,148.8812866211,0.0446107984,0.0624299645,0.0120635629,-3.1415503025,82.3688430786,-152.3219604492,0.0277645588,0.0254303813,0.0225700736,26.7541923523,55.1675682068,-162.3268890381,0.0727791786,0.0059659481,0.0093156099,
2606.973,-3.2277915478,1.3279453516,-89.0203704834,0.0627257228,0.0406657010,-0.0030266047,-112.2669525146,75.6795806885,148.8806915283,0.0446112156,0.0629004836,0.0081956387,-3.1352066994,82.3694305420,-152.3049316406,0.0287424922,0.0249266624,0.0216036439,26.7521820068,55.1659660339,-162.3234558105,0.0737397671,0.0015790164,0.0102627873,
2606.983,-3.2285647392,1.3282703161,-89.0179977417,0.0568720214,0.0397026017,0.0008803010,-112.2773437500,75.6804580688,148.8781127930,0.0363142490,0.0560344458,0.0067666769,-3.1401395798,82.3691711426,-152.3011169434,0.0302067399,0.0249384344,0.0176938772,26.7541942596,55.1655921936,-162.3165740967,0.0791071057,0.0044883490,0.0009897351,
2606.993,-3.2302513123,1.3270635605,-89.0180206299,0.0597806498,0.0387554504,0.0062525272,-112.2774200439,75.6816711426,148.8844757080,0.0407140255,0.0594324172,0.0126186609,-3.1543302536,82.3712539673,-152.3087768555,0.0180045366,0.0181337595,0.0177314281,26.7541179657,55.1653289795,-162.3128204346,0.0795927644,0.0025342405,-0.0014554262,
2607.003,-3.2303230762,1.3254469633,-89.0167770386,0.0592641644,0.0421747044,0.0047871470,-112.2848815918,75.6842269897,148.8805999756,0.0368188024,0.0554752052,0.0057963133,-3.1577620506,82.3725433350,-152.3039245605,0.0267965794,0.0215585828,0.0153117776,26.7545566559,55.1674461365,-162.3100433350,0.0669185519,-0.0018505752,0.0044330359,
2607.013,-3.2298719883,1.3260625601,-89.0174713135,0.0578100607,0.0397254266,0.0135760903,-112.2856750488,75.6858520508,148.8826446533,0.0407320857,0.0559357107,0.0077422857,-3.1445314884,82.3726425171,-152.2844085693,0.0141015053,0.0283634663,0.0216591954,26.7524719238,55.1685867310,-162.3089904785,0.0718127489,-0.0052426457,0.0039499402,
2607.023,-3.2280313969,1.3264809847,-89.0169525146,0.0607470497,0.0445761643,0.0091798306,-112.2743606567,75.6884841919,148.8950500488,0.0387902856,0.0529844463,0.0125628114,-3.1298441887,82.3704605103,-152.2633972168,0.0292331576,0.0283311009,0.0289450288,26.7532482147,55.1652374268,-162.3058624268,0.0727559328,0.0093773305,0.0102582574,
2607.033,-3.2265534401,1.3275864124,-89.0151367188,0.0519772768,0.0411324240,0.0033194423,-112.2746276855,75.6906738281,148.8964691162,0.0431942940,0.0583199263,0.0081555247,-3.1229267120,82.3712310791,-152.2514495850,0.0258169770,0.0268494189,0.0196782351,26.7577342987,55.1617813110,-162.3002166748,0.0854167938,0.0102916956,0.0068163276,
2607.043,-3.2262163162,1.3275455236,-89.0133743286,0.0602773428,0.0435679555,0.0042957664,-112.2809982300,75.6952133179,148.8912963867,0.0412607193,0.0606820285,0.0076636076,-3.1301996708,82.3705902100,-152.2529602051,0.0277686119,0.0224724412,0.0211344957,26.7581615448,55.1643753052,-162.2968902588,0.0737239122,0.0034686029,-0.0024260879,
2607.053,-3.2273461819,1.3270263672,-89.0122985840,0.0641745329,0.0362634361,0.0096678734,-112.2825622559,75.6948928833,148.8900909424,0.0437007546,0.0577529669,0.0071837902,-3.1314644814,82.3665542603,-152.2478790283,0.0258061290,0.0249205828,0.0313196778,26.7599201202,55.1656532288,-162.2918090820,0.0752014518,0.0039494932,-0.0004486442,
2607.063,-3.2282631397,1.3285672665,-89.0106277466,0.0568772033,0.0392090604,0.0038090944,-112.2900085449,75.6950759888,148.8830871582,0.0437015295,0.0606687367,0.0072125196,-3.1372025013,82.3661117554,-152.2472229004,0.0282465219,0.0234695971,0.0186175108,26.7606430054,55.1656455994,-162.2883148193,0.0776427984,0.0024780333,0.0093194246,
2607.073,-3.2286677361,1.3293662071,-89.0100708008,0.0568911396,0.0411692187,-0.0020488501,-112.2922363281,75.6926956177,148.8812866211,0.0436912775,0.0636317432,0.0101664066,-3.1308312416,82.3656463623,-152.2358245850,0.0253157616,0.0263848305,0.0195842981,26.7588310242,55.1649131775,-162.2861480713,0.0668933392,0.0020012856,0.0029546618,
2607.083,-3.2297492027,1.3309892416,-89.0083923340,0.0588725880,0.0406997316,0.0082069039,-112.2984695435,75.6909027100,148.8773040771,0.0392889977,0.0592543185,0.0067847967,-3.1404893398,82.3629760742,-152.2371215820,0.0321455002,0.0200621784,0.0312615037,26.7613143921,55.1664085388,-162.2814941406,0.0688613653,0.0049185157,0.0034734011,
2607.093,-3.2297294140,1.3294385672,-89.0077743530,0.0612869374,0.0446056835,0.0111358166,-112.2977981567,75.6833267212,148.8814544678,0.0441391468,0.0559560657,0.0102483034,-3.1246366501,82.3575286865,-152.2120361328,0.0233438015,0.0297959149,0.0336034894,26.7626323700,55.1635208130,-162.2769470215,0.0756685138,0.0053764582,0.0024660230,
2607.103,-3.2276811600,1.3292884827,-89.0059280396,0.0588429123,0.0494528115,0.0135753751,-112.3013000488,75.6808395386,148.8827362061,0.0421752930,0.0662423074,0.0102784038,-3.1255304813,82.3565826416,-152.2024993896,0.0267595649,0.0317519009,0.0287075639,26.7651100159,55.1615257263,-162.2693481445,0.0810196996,0.0082711279,0.0024510622,
2607.113,-3.2259969711,1.3295013905,-89.0053100586,0.0549403727,0.0440523699,0.0062493086,-112.3023910522,75.6759567261,148.8888702393,0.0392245054,0.0648519993,0.0127554536,-3.1229915619,82.3557586670,-152.1888275146,0.0287107825,0.0273522139,0.0286924243,26.7644081116,55.1591377258,-162.2641448975,0.0785545111,0.0048441291,0.0029061437,
2607.123,-3.2273392677,1.3283054829,-89.0034790039,0.0578491949,0.0377281308,0.0028322935,-112.3060073853,75.6711959839,148.8939666748,0.0440867543,0.0644317567,0.0167065859,-3.1332604885,82.3557357788,-152.1884765625,0.0272458792,0.0234700739,0.0257636309,26.7674427032,55.1587104797,-162.2562561035,0.0770853758,0.0048142970,-0.0009918809,
2607.133,-3.2281942368,1.3290517330,-89.0018157959,0.0622567497,0.0392078422,0.0165053010,-112.3068618774,75.6662902832,148.9024200439,0.0401593447,0.0601122975,0.0167413950,-3.1464488506,82.3565521240,-152.1903076172,0.0223649740,0.0205705166,0.0213856101,26.7672843933,55.1576156616,-162.2495574951,0.0692619681,-0.0010507703,0.0004574656,
2607.143,-3.2289698124,1.3285881281,-89.0012207031,0.0573658496,0.0397096500,0.0082052350,-112.3141860962,75.6623764038,148.9054718018,0.0347713232,0.0577200949,0.0070302486,-3.1425509453,82.3604812622,-152.1765136719,0.0223740935,0.0283702016,0.0155926347,26.7680892944,55.1591491699,-162.2448120117,0.0707421303,-0.0005596578,0.0068295598,
2607.153,-3.2280435562,1.3306541443,-89.0013580322,0.0569136180,0.0435997173,0.0067402124,-112.3121414185,75.6628646851,148.9144592285,0.0352616906,0.0572275817,0.0153197050,-3.1332442760,82.3620758057,-152.1577911377,0.0277488828,0.0259054899,0.0185482502,26.7683486938,55.1617889404,-162.2410430908,0.0722332597,-0.0024982393,0.0005156398,
2607.163,-3.2282772064,1.3305444717,-89.0014266968,0.0603296719,0.0416506641,0.0091817975,-112.3103637695,75.6660919189,148.9215240479,0.0386936069,0.0566918552,0.0113857388,-3.1357123852,82.3622817993,-152.1534118652,0.0287259221,0.0273759663,0.0165981054,26.7684078217,55.1623764038,-162.2373352051,0.0790750980,-0.0015181899,-0.0043581128,
2607.173,-3.2269432545,1.3336092234,-89.0009613037,0.0555003360,0.0450453237,0.0008810163,-112.3088912964,75.6697387695,148.9255371094,0.0382210612,0.0629852712,0.0094032884,-3.1369655132,82.3626174927,-152.1464691162,0.0267735720,0.0244488418,0.0161170959,26.7681732178,55.1638031006,-162.2344360352,0.0693235993,0.0014225245,0.0054234862,
2607.183,-3.2271323204,1.3344300985,-88.9998245239,0.0574677810,0.0416306332,0.0140649676,-112.3011322021,75.6729736328,148.9335784912,0.0396999121,0.0546460152,0.0122811198,-3.1530866623,82.3616943359,-152.1598052979,0.0209120512,0.0191164613,0.0234261751,26.7668972015,55.1639213562,-162.2336273193,0.0673717260,0.0024114251,0.0059086680,
2607.193,-3.2258341312,1.3343063593,-88.9986343384,0.0603953078,0.0469791181,0.0028334856,-112.2992095947,75.6780548096,148.9345245361,0.0358155966,0.0594545305,0.0063813925,-3.1546320915,82.3594055176,-152.1575164795,0.0301840901,0.0259581208,0.0243650079,26.7686004639,55.1634254456,-162.2302398682,0.0810386539,0.0092288256,0.0015141964,
2607.203,-3.2240867615,1.3343756199,-88.9981155396,0.0599082410,0.0420658551,0.0116204023,-112.3124389648,75.6825714111,148.9207000732,0.0407178998,0.0618020892,-0.0009183884,-3.1626560688,82.3597869873,-152.1591796875,0.0277435780,0.0225586593,0.0160704255,26.7747268677,55.1625289917,-162.2227172852,0.0800531507,0.0111217797,-0.0009100437,
2607.213,-3.2260589600,1.3318570852,-88.9962768555,0.0627939776,0.0396588668,0.0116214156,-112.3191757202,75.6875534058,148.9145355225,0.0397628546,0.0622028410,0.0073775053,-3.1352810860,82.3623123169,-152.1275177002,0.0243314505,0.0342108309,0.0161109567,26.7722377777,55.1626396179,-162.2239532471,0.0746831894,-0.0015508235,0.0083564520,
2607.223,-3.2262818813,1.3326817751,-88.9945526123,0.0593904033,0.0416158512,0.0042978525,-112.3171920776,75.6916198730,148.9212493896,0.0388038158,0.0616533756,0.0122262836,-3.1244988441,82.3651885986,-152.1112213135,0.0301975012,0.0312531888,0.0200650692,26.7716846466,55.1608924866,-162.2199096680,0.0771071315,0.0067437589,0.0078444481,
2607.233,-3.2283480167,1.3307348490,-88.9946060181,0.0642392412,0.0396987721,-0.0005837679,-112.3343200684,75.6893005371,148.9098968506,0.0392820835,0.0597092509,-0.0018503666,-3.1338231564,82.3635177612,-152.1115570068,0.0311701894,0.0185813010,0.0244318843,26.7730140686,55.1619567871,-162.2149200439,0.0810239911,0.0023441017,0.0015152097,
2607.243,-3.2279438972,1.3309036493,-88.9940414429,0.0574062504,0.0416448452,0.0116229057,-112.3319931030,75.6908416748,148.9192504883,0.0388004780,0.0611530542,0.0152202249,-3.1469650269,82.3627471924,-152.1157684326,0.0287269950,0.0191011131,0.0258849859,26.7700881958,55.1635894775,-162.2135162354,0.0673683882,-0.0015254021,0.0098247528,
2607.253,-3.2262196541,1.3292037249,-88.9922103882,0.0637242422,0.0484507866,-0.0010749102,-112.3404693604,75.6871414185,148.9192352295,0.0465970039,0.0553377867,0.0060007572,-3.1394677162,82.3641815186,-152.0983123779,0.0292186141,0.0273829699,0.0229790211,26.7763881683,55.1659431458,-162.2049560547,0.0639739037,0.0106406212,-0.0003715754,
2607.263,-3.2246809006,1.3278018236,-88.9904022217,0.0627232194,0.0435412005,-0.0001000166,-112.3399887085,75.6857833862,148.9281311035,0.0353606939,0.0597545505,0.0128433704,-3.1521477699,82.3619766235,-152.1003112793,0.0233541131,0.0220436752,0.0317317843,26.7753982544,55.1633911133,-162.2002716064,0.0751789212,0.0077033639,0.0064282417,
2607.273,-3.2247035503,1.3261549473,-88.9885940552,0.0617179275,0.0401236676,0.0072234869,-112.3462524414,75.6814193726,148.9282989502,0.0412012339,0.0563942790,0.0089901090,-3.1470971107,82.3604583740,-152.0840454102,0.0218857527,0.0264278054,0.0258455873,26.7776927948,55.1615066528,-162.1957702637,0.0790663958,0.0047409832,-0.0033521652,
2607.283,-3.2239179611,1.3236107826,-88.9880523682,0.0689977482,0.0430397280,0.0091747046,-112.3520126343,75.6789703369,148.9297485352,0.0392374992,0.0573997796,0.0080524683,-3.1513190269,82.3644104004,-152.0793914795,0.0228714943,0.0220394135,0.0171253681,26.7810802460,55.1622695923,-162.1895446777,0.0766326189,0.0042276680,-0.0008845329,
2607.293,-3.2238185406,1.3239246607,-88.9874954224,0.0587493181,0.0449911058,0.0028270483,-112.3527221680,75.6775283813,148.9352569580,0.0411844254,0.0598609447,0.0149005055,-3.1595652103,82.3662643433,-152.0781707764,0.0302000046,0.0220569968,0.0210642219,26.7827568054,55.1625175476,-162.1834411621,0.0746819377,0.0007961392,-0.0023398399,
2607.303,-3.2232146263,1.3260415792,-88.9869766235,0.0548800081,0.0444922596,0.0121046305,-112.3487091064,75.6739730835,148.9431915283,0.0367745161,0.0511357486,0.0134422183,-3.1480638981,82.3624114990,-152.0568389893,0.0287262201,0.0303344429,0.0327157974,26.7785148621,55.1607627869,-162.1827850342,0.0741761327,-0.0016186535,0.0108033419,
2607.313,-3.2247436047,1.3255090714,-88.9851684570,0.0578004010,0.0391478129,0.0067348480,-112.3464202881,75.6727294922,148.9511566162,0.0357925892,0.0545753241,0.0124645829,-3.1600959301,82.3643951416,-152.0594177246,0.0209183097,0.0225483179,0.0200550556,26.7764549255,55.1616439819,-162.1805725098,0.0639310479,0.0003583729,0.0117807388,
2607.323,-3.2256014347,1.3264605999,-88.9840621948,0.0587935746,0.0416041464,0.0033181310,-112.3521194458,75.6707382202,148.9521636963,0.0333425999,0.0555753112,0.0076171160,-3.1643362045,82.3653869629,-152.0548248291,0.0253151655,0.0235338211,0.0225151777,26.7800941467,55.1629409790,-162.1734771729,0.0761510134,0.0052172840,-0.0008805990,
2607.333,-3.2257924080,1.3282105923,-88.9829559326,0.0563826971,0.0416074321,0.0150377750,-112.3502349854,75.6670150757,148.9581604004,0.0401624441,0.0566113591,0.0081219077,-3.1570756435,82.3664932251,-152.0393981934,0.0243411660,0.0264454782,0.0186265707,26.7762165070,55.1653366089,-162.1727142334,0.0698272586,-0.0049867630,0.0010850430,
2607.343,-3.2260854244,1.3280706406,-88.9817657471,0.0583333820,0.0435656607,0.0033193827,-112.3586273193,75.6689300537,148.9532165527,0.0396824479,0.0585217774,0.0086315274,-3.1550102234,82.3667297363,-152.0299835205,0.0228768587,0.0298584104,0.0196061730,26.7710418701,55.1665840149,-162.1741027832,0.0669099689,-0.0039561093,0.0044956803,
2607.353,-3.2242527008,1.3254901171,-88.9805679321,0.0670774132,0.0445103571,0.0086874962,-112.3601760864,75.6678314209,148.9548187256,0.0338183045,0.0585364103,0.0052268505,-3.1567368507,82.3662948608,-152.0258789063,0.0243406892,0.0230268836,0.0191118121,26.7732105255,55.1653366089,-162.1675872803,0.0805694461,0.0048057139,0.0035132170,
2607.363,-3.2237787247,1.3251482248,-88.9787597656,0.0592589527,0.0440138280,0.0062456131,-112.3532791138,75.6691970825,148.9646148682,0.0426132679,0.0570608377,0.0115381479,-3.1594102383,82.3642120361,-152.0222778320,0.0306835175,0.0245001018,0.0244441628,26.7727718353,55.1652565002,-162.1649932861,0.0722678304,-0.0000737607,0.0015570521,
2607.373,-3.2224304676,1.3234224319,-88.9774932861,0.0597171187,0.0449669361,0.0067318678,-112.3468246460,75.6690216064,148.9729003906,0.0396828651,0.0560985208,0.0100483894,-3.1633336544,82.3610534668,-152.0203857422,0.0292113423,0.0235355794,0.0229289532,26.7744159698,55.1642913818,-162.1608734131,0.0732347965,0.0018584728,0.0025286078,
2607.383,-3.2217116356,1.3213104010,-88.9762649536,0.0630982369,0.0449544676,0.0038003325,-112.3352661133,75.6730651855,148.9856567383,0.0397002697,0.0619123578,0.0212067366,-3.1675021648,82.3600997925,-152.0164947510,0.0296974182,0.0269642174,0.0243781209,26.7747802734,55.1658477783,-162.1580657959,0.0732502937,0.0018653274,-0.0028206706,
2607.393,-3.2221662998,1.3222272396,-88.9751052856,0.0567665771,0.0430092365,0.0028249621,-112.3336257935,75.6719131470,148.9906311035,0.0392070413,0.0580283999,0.0060706139,-3.1518809795,82.3605041504,-151.9940185547,0.0331163406,0.0293686390,0.0155935884,26.7733097076,55.1673355103,-162.1556549072,0.0698471665,-0.0025065243,0.0001213551,
2607.403,-3.2226147652,1.3194305897,-88.9738922119,0.0655068457,0.0430171192,0.0042889714,-112.3481903076,75.6752929688,148.9799041748,0.0421513319,0.0677165091,0.0022013187,-3.1589355469,82.3618164063,-151.9941101074,0.0253068805,0.0235245526,0.0214766264,26.7732105255,55.1684951782,-162.1516113281,0.0801126361,0.0028728545,-0.0047476292,
2607.413,-3.2226901054,1.3185493946,-88.9708480835,0.0591438115,0.0420418866,0.0033121705,-112.3586425781,75.6743774414,148.9751281738,0.0362880230,0.0594136715,0.0027372837,-3.1527764797,82.3625411987,-151.9785919189,0.0257968307,0.0264391005,0.0258831382,26.7703456879,55.1681022644,-162.1499481201,0.0737610459,0.0004544854,0.0001176000,
2607.423,-3.2235529423,1.3164832592,-88.9708709717,0.0625257269,0.0396155566,-0.0005940795,-112.3510360718,75.6745376587,148.9897308350,0.0362886786,0.0608878434,0.0173543096,-3.1534259319,82.3621215820,-151.9692382813,0.0248193145,0.0254644752,0.0214810371,26.7670803070,55.1676177979,-162.1480102539,0.0761976242,-0.0019610226,0.0035147071,
2607.433,-3.2206120491,1.3169350624,-88.9690780640,0.0586273633,0.0483533740,0.0062391162,-112.3520278931,75.6716308594,148.9970092773,0.0382292867,0.0560485423,0.0120057464,-3.1458191872,82.3599929810,-151.9504241943,0.0277440548,0.0274017751,0.0312093496,26.7651920319,55.1680297852,-162.1450958252,0.0757134557,0.0009881556,0.0020467639,
2607.443,-3.2208082676,1.3160240650,-88.9679183960,0.0630059987,0.0439622849,-0.0005970597,-112.3536911011,75.6689758301,149.0033874512,0.0455420017,0.0624356568,0.0100762844,-3.1471724510,82.3629760742,-151.9406890869,0.0248212814,0.0283786952,0.0161240697,26.7625083923,55.1671447754,-162.1421813965,0.0771694779,0.0029594898,0.0083709955,
2607.453,-3.2198462486,1.3162117004,-88.9679718018,0.0591030233,0.0458986461,0.0037966371,-112.3538665771,75.6655960083,149.0107269287,0.0377148986,0.0566278994,0.0135166645,-3.1639540195,82.3606185913,-151.9493408203,0.0292103291,0.0230492055,0.0312214494,26.7600021362,55.1672477722,-162.1407775879,0.0771704912,0.0005410314,0.0088493228,
2607.463,-3.2199778557,1.3169331551,-88.9674606323,0.0576507673,0.0376001447,0.0125858784,-112.3499374390,75.6621322632,149.0203247070,0.0376999378,0.0493638813,0.0130347013,-3.1666939259,82.3619003296,-151.9438781738,0.0228656530,0.0240309238,0.0219675303,26.7554397583,55.1649742126,-162.1393585205,0.0781244040,0.0020318329,0.0068464875,
2607.473,-3.2192568779,1.3154506683,-88.9662246704,0.0610428676,0.0449118279,0.0077018738,-112.3599624634,75.6610336304,149.0161895752,0.0411131382,0.0596185625,0.0077109933,-3.1573662758,82.3625411987,-151.9271240234,0.0336093307,0.0288913250,0.0209994316,26.7582874298,55.1653442383,-162.1334533691,0.0766632557,0.0044503212,0.0034462214,
2607.483,-3.2216198444,1.3147494793,-88.9650650024,0.0600540712,0.0386053622,-0.0030380487,-112.3513183594,75.6608657837,149.0260467529,0.0376944542,0.0532876849,0.0174429417,-3.1517567635,82.3605346680,-151.9140167236,0.0306749940,0.0288799703,0.0234082341,26.7585735321,55.1642265320,-162.1297454834,0.0712810159,0.0044405758,0.0048981905,
2607.493,-3.2208096981,1.3158217669,-88.9645462036,0.0561665297,0.0410326272,0.0047737360,-112.3595962524,75.6596832275,149.0183868408,0.0411072969,0.0625699759,0.0047885180,-3.1600387096,82.3574523926,-151.9153594971,0.0296912789,0.0220665038,0.0257943869,26.7575454712,55.1623382568,-162.1273193359,0.0712621808,0.0059023201,0.0117046833,
2607.503,-3.2197496891,1.3157122135,-88.9633941650,0.0600708649,0.0419907235,-0.0045042634,-112.3636322021,75.6588897705,149.0161437988,0.0440335870,0.0625758171,0.0077394843,-3.1805112362,82.3545532227,-151.9286804199,0.0282196999,0.0186991394,0.0301457644,26.7569484711,55.1617431641,-162.1252899170,0.0839515328,0.0005327761,-0.0014886856,
2607.513,-3.2185671329,1.3152939081,-88.9628524780,0.0610401332,0.0424584150,-0.0040174127,-112.3604812622,75.6574401855,149.0180053711,0.0396327972,0.0626033843,0.0096892118,-3.1732738018,82.3526535034,-151.9151153564,0.0257738829,0.0250316858,0.0266927481,26.7568702698,55.1624870300,-162.1236877441,0.0732167959,0.0034679770,0.0014501214,
2607.523,-3.2185509205,1.3141889572,-88.9622497559,0.0615091324,0.0468526855,0.0013532639,-112.3661117554,75.6580734253,149.0136108398,0.0371941328,0.0664903820,0.0072662830,-3.1780941486,82.3511123657,-151.9133911133,0.0228406191,0.0196732879,0.0271570086,26.7600593567,55.1649322510,-162.1187286377,0.0698232055,0.0083380938,-0.0033872128,
2607.533,-3.2192046642,1.3131772280,-88.9617538452,0.0634446070,0.0380750373,0.0047712326,-112.3629837036,75.6584625244,149.0193481445,0.0391489267,0.0586768985,0.0150638819,-3.1864244938,82.3482360840,-151.9142303467,0.0203925371,0.0245784521,0.0241776109,26.7625198364,55.1633071899,-162.1132507324,0.0737132430,0.0107471347,0.0083221793,
2607.543,-3.2200984955,1.3130040169,-88.9606094360,0.0605118945,0.0415085815,0.0013543963,-112.3610153198,75.6558685303,149.0262298584,0.0415791273,0.0596980155,0.0101896524,-3.1772861481,82.3480834961,-151.8986358643,0.0325992107,0.0240688026,0.0212456584,26.7669830322,55.1623764038,-162.1053619385,0.0771219730,0.0082599819,0.0034468174,
2607.553,-3.2224798203,1.3136047125,-88.9595031738,0.0580809712,0.0361789614,0.0091691613,-112.3505477905,75.6546249390,149.0430145264,0.0381557941,0.0563153327,0.0174797773,-3.1733124256,82.3484420776,-151.8853302002,0.0242992640,0.0274771154,0.0232040882,26.7669563293,55.1605148315,-162.0999755859,0.0771033764,0.0023888052,0.0068413019,
2607.563,-3.2242214680,1.3168963194,-88.9584732056,0.0527673103,0.0342561007,0.0033130050,-112.3380432129,75.6573867798,149.0621948242,0.0420739651,0.0660603940,0.0203414559,-3.1735026836,82.3446731567,-151.8750762939,0.0286850333,0.0294342339,0.0299760699,26.7674274445,55.1596145630,-162.0951538086,0.0756295323,0.0023787916,0.0024373531,
2607.573,-3.2251787186,1.3163937330,-88.9568023682,0.0664304197,0.0411087237,0.0106378198,-112.3398818970,75.6578063965,149.0686035156,0.0430523157,0.0636079907,0.0139986873,-3.1716399193,82.3433685303,-151.8632507324,0.0228226185,0.0265014768,0.0250692368,26.7641677856,55.1555862427,-162.0930328369,0.0775425434,0.0018936396,0.0053010583,
2607.583,-3.2256791592,1.3168158531,-88.9568862915,0.0605784059,0.0450236872,0.0081972480,-112.3286895752,75.6595916748,149.0884246826,0.0445249081,0.0655524135,0.0178483725,-3.1671185493,82.3414993286,-151.8468933105,0.0198885798,0.0264925659,0.0313856006,26.7608947754,55.1566352844,-162.0919036865,0.0672990680,-0.0010000765,0.0048115849,
2607.593,-3.2275366783,1.3170043230,-88.9563827515,0.0591168478,0.0382201001,0.0008746982,-112.3299789429,75.6595230103,149.0976867676,0.0352472663,0.0616450906,0.0085767508,-3.1677136421,82.3436737061,-151.8379974365,0.0203819275,0.0216091573,0.0177494287,26.7571353912,55.1574287415,-162.0906982422,0.0692601204,-0.0009615421,0.0043165088,
2607.603,-3.2276804447,1.3187487125,-88.9547500610,0.0606121309,0.0396874137,0.0086879730,-112.3382034302,75.6574707031,149.0973663330,0.0347501040,0.0543390810,0.0047165155,-3.1603817940,82.3433151245,-151.8217926025,0.0208693743,0.0245219171,0.0196965933,26.7608375549,55.1601715088,-162.0829467773,0.0717288256,-0.0019533634,-0.0088153481,
2607.613,-3.2270979881,1.3172925711,-88.9541778564,0.0630281270,0.0401655845,0.0091754794,-112.3326950073,75.6583404541,149.1104583740,0.0479374528,0.0553114116,0.0159194469,-3.1519947052,82.3454742432,-151.8046722412,0.0252689123,0.0274299085,0.0192431211,26.7618694305,55.1590538025,-162.0786895752,0.0849013329,0.0009599328,0.0024054050,
2607.623,-3.2267575264,1.3181381226,-88.9524154663,0.0571835116,0.0435775965,0.0042926073,-112.3245315552,75.6608886719,149.1252136230,0.0381828547,0.0582148135,0.0144054890,-3.1479303837,82.3467788696,-151.7924041748,0.0277133584,0.0249777436,0.0173115730,26.7650279999,55.1582221985,-162.0727081299,0.0809867382,0.0028795004,0.0048501492,
2607.633,-3.2243583202,1.3189144135,-88.9525146484,0.0591501817,0.0445123464,0.0028256774,-112.3202590942,75.6635437012,149.1333312988,0.0416123271,0.0552498698,0.0138830543,-3.1518380642,82.3471603394,-151.7904052734,0.0257611275,0.0201036632,0.0222034454,26.7689132690,55.1623001099,-162.0664215088,0.0693086982,0.0033594668,-0.0004513264,
2607.643,-3.2229049206,1.3212074041,-88.9526672363,0.0582136251,0.0454635397,0.0052664280,-112.3211746216,75.6699829102,149.1344146729,0.0377338529,0.0600312948,0.0148221254,-3.1461751461,82.3452377319,-151.7785491943,0.0281980634,0.0283930004,0.0241217613,26.7697544098,55.1627044678,-162.0638122559,0.0756603479,-0.0020165145,0.0049287081,
2607.653,-3.2241911888,1.3227838278,-88.9522171021,0.0587294139,0.0401148200,0.0062448978,-112.3205947876,75.6711273193,149.1370849609,0.0431098938,0.0565962791,0.0118827820,-3.1509025097,82.3438796997,-151.7775268555,0.0262417793,0.0235225558,0.0240994096,26.7702274323,55.1643104553,-162.0601043701,0.0795826316,-0.0010337830,-0.0082321763,
2607.663,-3.2228078842,1.3217833042,-88.9504241943,0.0635947734,0.0493680835,0.0033133030,-112.3374862671,75.6718368530,149.1207885742,0.0396950245,0.0565572679,-0.0017258525,-3.1342663765,82.3434143066,-151.7553253174,0.0301469564,0.0312964022,0.0231128931,26.7701911926,55.1613273621,-162.0584716797,0.0824825764,0.0072480738,0.0088191628,
2607.673,-3.2256174088,1.3205528259,-88.9480361938,0.0625967383,0.0367217511,0.0091755390,-112.3532485962,75.6726150513,149.1057281494,0.0387217999,0.0643321574,0.0012621880,-3.1264257431,82.3451385498,-151.7407226563,0.0291743875,0.0302998126,0.0177702904,26.7678451538,55.1644210815,-162.0557403564,0.0761657953,0.0004530847,-0.0028701425,
2607.683,-3.2264301777,1.3219780922,-88.9469223022,0.0552973896,0.0416186824,0.0125939250,-112.3604736328,75.6708221436,149.1002960205,0.0401788950,0.0619065464,0.0056971312,-3.1118464470,82.3418350220,-151.7191314697,0.0277018547,0.0263623893,0.0289424658,26.7666816711,55.1626358032,-162.0520782471,0.0737065673,0.0048463345,0.0083316565,
2607.693,-3.2256016731,1.3205828667,-88.9457397461,0.0625972599,0.0411160029,0.0003861785,-112.3659515381,75.6707916260,149.0994567871,0.0406670570,0.0638512075,0.0115787387,-3.0983927250,82.3421630859,-151.6981506348,0.0247729421,0.0268187225,0.0211343765,26.7686614990,55.1663665771,-162.0464935303,0.0683726668,0.0053410828,-0.0028418899,
2607.703,-3.2266328335,1.3206483126,-88.9445571899,0.0577155873,0.0430870913,0.0062465072,-112.3610458374,75.6670684814,149.1113891602,0.0421158075,0.0609875023,0.0169538260,-3.0961484909,82.3445968628,-151.6847839355,0.0291731358,0.0277877748,0.0216637850,26.7674083710,55.1682395935,-162.0424346924,0.0722975731,0.0019463599,0.0079185963,
2607.713,-3.2256062031,1.3217285872,-88.9445953369,0.0543164685,0.0416043401,0.0194296837,-112.3629684448,75.6654891968,149.1183166504,0.0386909842,0.0644270778,0.0155070424,-3.0757527351,82.3475723267,-151.6550140381,0.0252737999,0.0292019844,0.0124346018,26.7647457123,55.1678771973,-162.0383758545,0.0708291531,-0.0009619594,0.0044841170,
2607.723,-3.2258126736,1.3223704100,-88.9428787231,0.0601870455,0.0416079238,0.0086878538,-112.3700408936,75.6600112915,149.1224212646,0.0401321650,0.0596187711,0.0062931180,-3.0726830959,82.3485488892,-151.6389312744,0.0252760649,0.0267525017,0.0231924653,26.7661724091,55.1678581238,-162.0304870605,0.0732703209,0.0029314458,0.0000957251,
2607.733,-3.2272038460,1.3219609261,-88.9416809082,0.0572502129,0.0396790355,0.0067359209,-112.3600692749,75.6533889771,149.1425628662,0.0371738672,0.0529006720,0.0048307180,-3.0835113525,82.3499069214,-151.6385955811,0.0257675052,0.0258001387,0.0193102360,26.7632465363,55.1697387695,-162.0258331299,0.0654765964,0.0005282462,0.0093840957,
2607.743,-3.2270100117,1.3207111359,-88.9410629272,0.0601580963,0.0430936515,0.0091766119,-112.3614196777,75.6541900635,149.1497650146,0.0362007618,0.0607003570,0.0121551156,-3.0841531754,82.3498306274,-151.6287231445,0.0306501389,0.0277548432,0.0193089247,26.7610588074,55.1691169739,-162.0222320557,0.0723063350,-0.0018976629,0.0074133277,
2607.753,-3.2251641750,1.3207812309,-88.9404907227,0.0596710332,0.0489208698,0.0047801733,-112.3638458252,75.6513900757,149.1540222168,0.0357003808,0.0509725809,0.0033938289,-3.0967164040,82.3500061035,-151.6317901611,0.0257677436,0.0219247043,0.0227336884,26.7597236633,55.1686363220,-162.0194091797,0.0766960979,-0.0053068101,-0.0028527975,
2607.763,-3.2225708961,1.3203438520,-88.9386749268,0.0596634001,0.0449694544,0.0081956387,-112.3506393433,75.6520843506,149.1696624756,0.0376564860,0.0558682680,0.0145667195,-3.1086502075,82.3490142822,-151.6363983154,0.0252771378,0.0273247957,0.0232048631,26.7619457245,55.1665382385,-162.0148468018,0.0791165829,0.0029605627,0.0098251700,
2607.773,-3.2222094536,1.3197056055,-88.9381179810,0.0601405501,0.0415452011,0.0086833239,-112.3475799561,75.6525497437,149.1745452881,0.0386350751,0.0573292673,0.0062507391,-3.1242291927,82.3467330933,-151.6469726563,0.0247835517,0.0263869762,0.0231671333,26.7594547272,55.1643295288,-162.0153656006,0.0761648417,0.0010153949,0.0049033165,
2607.783,-3.2227523327,1.3197931051,-88.9363632202,0.0596537925,0.0405781046,-0.0005935431,-112.3531188965,75.6559906006,149.1675872803,0.0425562263,0.0601978898,0.0091804862,-3.1122610569,82.3455963135,-151.6311950684,0.0252692103,0.0283130109,0.0216820836,26.7605609894,55.1643943787,-162.0132751465,0.0751889348,0.0024707615,-0.0029034019,
2607.793,-3.2222495079,1.3184779882,-88.9339599609,0.0630488098,0.0439873338,0.0130771995,-112.3454666138,75.6594009399,149.1729125977,0.0376881361,0.0640622377,0.0081514716,-3.1203494072,82.3458786011,-151.6340942383,0.0277112722,0.0219840705,0.0265713930,26.7572879791,55.1644210815,-162.0142517090,0.0727478266,-0.0004295111,-0.0004761815,
2607.803,-3.2207579613,1.3194180727,-88.9321441650,0.0547644347,0.0454261824,0.0057519078,-112.3331680298,75.6639785767,149.1833343506,0.0425907373,0.0625464618,0.0139321685,-3.1176674366,82.3414230347,-151.6257476807,0.0262360573,0.0263764262,0.0284484029,26.7596282959,55.1639938354,-162.0091857910,0.0800677538,0.0078476667,0.0000171065,
2607.813,-3.2214872837,1.3199495077,-88.9310073853,0.0562385544,0.0376263708,0.0111238360,-112.3366241455,75.6649780273,149.1823272705,0.0401536226,0.0649666488,0.0085685253,-3.1249303818,82.3424987793,-151.6265563965,0.0252619982,0.0210214257,0.0182132125,26.7590465546,55.1663970947,-162.0058441162,0.0717909336,0.0020089149,-0.0004431009,
2607.823,-3.2230257988,1.3181948662,-88.9297943115,0.0620673075,0.0391180515,0.0096600652,-112.3393859863,75.6682434082,149.1838378906,0.0430974364,0.0634464025,0.0178360343,-3.1141872406,82.3406066895,-151.6075134277,0.0233044624,0.0234393179,0.0289222598,26.7604217529,55.1708602905,-162.0019073486,0.0757416487,0.0005606115,-0.0062392354,
2607.833,-3.2229018211,1.3172905445,-88.9273834229,0.0610749722,0.0449752919,-0.0010825992,-112.3398284912,75.6673965454,149.1893005371,0.0362578630,0.0605295897,0.0129603744,-3.1156313419,82.3381958008,-151.6000366211,0.0286699533,0.0200270116,0.0318104029,26.7595119476,55.1744842529,-161.9965820313,0.0699183941,-0.0003845096,-0.0032673478,
2607.843,-3.2239286900,1.3152753115,-88.9262313843,0.0673874617,0.0430401005,0.0121011734,-112.3317337036,75.6665420532,149.2055358887,0.0357658863,0.0571374893,0.0173280239,-3.1263484955,82.3385772705,-151.6005401611,0.0149989724,0.0190753043,0.0264468789,26.7619457245,55.1742362976,-161.9895324707,0.0782167315,0.0049633384,0.0060177445,
2607.853,-3.2243380547,1.3171886206,-88.9251251221,0.0557020977,0.0430471897,0.0116139650,-112.3386917114,75.6666030884,149.2070465088,0.0367426872,0.0624973774,0.0110078454,-3.1381537914,82.3393173218,-151.6022491455,0.0267194510,0.0205672085,0.0274374485,26.7595939636,55.1751785278,-161.9883270264,0.0709018707,-0.0018455982,0.0001598597,
2607.863,-3.2253181934,1.3167246580,-88.9239501953,0.0596002564,0.0411111563,0.0072201490,-112.3380813599,75.6668167114,149.2164764404,0.0352787971,0.0605408847,0.0153984427,-3.1422424316,82.3375320435,-151.5961761475,0.0286684036,0.0215550065,0.0230141282,26.7562599182,55.1777343750,-161.9875640869,0.0679976940,-0.0022876859,-0.0007989407,
2607.873,-3.2244904041,1.3177003860,-88.9234542847,0.0586407147,0.0410967134,0.0047782660,-112.3464050293,75.6649169922,149.2149353027,0.0372236967,0.0576272309,0.0125144124,-3.1597096920,82.3379135132,-151.6036376953,0.0232982039,0.0220840275,0.0249750614,26.7533950806,55.1771812439,-161.9849853516,0.0743398666,0.0001756549,0.0094348788,
2607.883,-3.2229797840,1.3180378675,-88.9235153198,0.0586466044,0.0435117930,0.0057534575,-112.3605194092,75.6641235352,149.2061920166,0.0377085209,0.0634758770,0.0062285662,-3.1506056786,82.3382186890,-151.5869903564,0.0228106380,0.0269451141,0.0235151649,26.7542343140,55.1754226685,-161.9804077148,0.0811582208,-0.0008197725,0.0045332313,
2607.893,-3.2232270241,1.3195542097,-88.9217605591,0.0547668114,0.0415629335,0.0018481612,-112.3617401123,75.6635971069,149.2102203369,0.0342882872,0.0595761240,0.0120962858,-3.1457233429,82.3381652832,-151.5715789795,0.0228105187,0.0283985138,0.0205842853,26.7565803528,55.1785736084,-161.9750518799,0.0650763512,0.0021093488,-0.0007869601,
2607.903,-3.2217905521,1.3194359541,-88.9205856323,0.0606241226,0.0473972894,0.0096592307,-112.3729400635,75.6641998291,149.2046356201,0.0377088785,0.0649186075,0.0043248534,-3.1529111862,82.3391723633,-151.5694122314,0.0262308121,0.0245082378,0.0225549936,26.7572479248,55.1785964966,-161.9721984863,0.0670297146,0.0045450330,0.0070289373,
2607.913,-3.2201478481,1.3196572065,-88.9181213379,0.0552568883,0.0459038243,0.0057514310,-112.3794021606,75.6648559570,149.2035522461,0.0372234583,0.0570859611,0.0077643991,-3.1769773960,82.3430328369,-151.5846710205,0.0267280936,0.0211431682,0.0143235326,26.7548885345,55.1783332825,-161.9716491699,0.0675153732,0.0001697838,0.0050620437,
2607.923,-3.2191877365,1.3193055391,-88.9163436890,0.0591570064,0.0414925776,0.0023324490,-112.3760681152,75.6643295288,149.2135009766,0.0357562900,0.0580756962,0.0106843114,-3.1871640682,82.3483123779,-151.5862121582,0.0330880284,0.0255566537,0.0153906345,26.7545833588,55.1798057556,-161.9692687988,0.0680183172,0.0031116009,0.0041022301,
2607.933,-3.2193758488,1.3184540272,-88.9145660400,0.0610952675,0.0395427421,0.0077034235,-112.3615036011,75.6647949219,149.2334442139,0.0401528478,0.0585814118,0.0179470181,-3.1809208393,82.3471145630,-151.5691833496,0.0228313208,0.0226134658,0.0246462822,26.7576274872,55.1813087463,-161.9615020752,0.0768223405,0.0060240328,-0.0002583265,
2607.943,-3.2196474075,1.3192422390,-88.9128036499,0.0576910526,0.0434537083,0.0135633349,-112.3648452759,75.6653900146,149.2348937988,0.0386905670,0.0585667789,-0.0005980730,-3.1934580803,82.3475189209,-151.5736541748,0.0238088369,0.0255721807,0.0246553421,26.7575092316,55.1840667725,-161.9575042725,0.0651310682,0.0026247203,0.0022166967,
2607.953,-3.2211010456,1.3165564537,-88.9115905762,0.0654566959,0.0415259674,0.0125870705,-112.3689727783,75.6641998291,149.2350769043,0.0367323160,0.0551603436,0.0043088794,-3.1837906837,82.3478546143,-151.5572357178,0.0282041430,0.0309202671,0.0227065086,26.7589683533,55.1853332520,-161.9530181885,0.0788155794,0.0040848553,0.0051701665,
2607.963,-3.2208104134,1.3156905174,-88.9104309082,0.0630001798,0.0434740484,0.0033091903,-112.3530654907,75.6678161621,149.2550964355,0.0377244949,0.0639189482,0.0198467970,-3.1876194477,82.3480834961,-151.5517730713,0.0252749920,0.0279993415,0.0231994390,26.7608356476,55.1881370544,-161.9493865967,0.0724958777,-0.0007965863,-0.0025992393,
2607.973,-3.2216112614,1.3153002262,-88.9092483521,0.0590871163,0.0439762920,-0.0001083016,-112.3445205688,75.6670989990,149.2675018311,0.0411393642,0.0575968325,0.0085866451,-3.1857011318,82.3507537842,-151.5405731201,0.0213749409,0.0270157456,0.0242210627,26.7659015656,55.1880569458,-161.9432830811,0.0812841654,0.0064821243,0.0042593479,
2607.983,-3.2228970528,1.3157607317,-88.9081497192,0.0605599955,0.0400924310,0.0047760606,-112.3432693481,75.6691970825,149.2745819092,0.0372421741,0.0590312481,0.0139393806,-3.1825768948,82.3544464111,-151.5281524658,0.0331022739,0.0274932086,0.0189123750,26.7690143585,55.1899604797,-161.9367370605,0.0754437447,0.0010954440,0.0082027912,
2607.993,-3.2231554985,1.3147041798,-88.9075775146,0.0615181215,0.0415617973,0.0062407255,-112.3374252319,75.6690521240,149.2856292725,0.0387064219,0.0595304370,0.0144051313,-3.1905326843,82.3571472168,-151.5268096924,0.0262725949,0.0265327394,0.0209126472,26.7718067169,55.1919593811,-161.9303588867,0.0818113089,0.0005953610,0.0009179711,
2608.003,-3.2200412750,1.3131453991,-88.9062957764,0.0590495169,0.0468786694,0.0042840242,-112.3445663452,75.6697769165,149.2841949463,0.0406626463,0.0580434501,0.0036868453,-3.2051537037,82.3591766357,-151.5313873291,0.0194413662,0.0216822922,0.0199722648,26.7751312256,55.1938972473,-161.9254455566,0.0681587458,0.0000898838,0.0097457767,
2608.013,-3.2172842026,1.3149073124,-88.9057846069,0.0581036955,0.0478071682,0.0067233443,-112.3458251953,75.6693878174,149.2891845703,0.0426141024,0.0634179413,0.0076008439,-3.2166936398,82.3599929810,-151.5352935791,0.0218846798,0.0217085779,0.0194991231,26.7810344696,55.1925926208,-161.9165344238,0.0803527832,0.0073531866,0.0014553070,
2608.023,-3.2180986404,1.3159743547,-88.9040832520,0.0586105958,0.0395205542,0.0062362552,-112.3471984863,75.6680068970,149.2939758301,0.0367487669,0.0570901632,0.0076149702,-3.2017433643,82.3601989746,-151.5128784180,0.0272562504,0.0294858217,0.0234071612,26.7858581543,55.1948699951,-161.9084167480,0.0828168988,0.0009773672,0.0024826527,
2608.033,-3.2168903351,1.3125928640,-88.9027709961,0.0609930009,0.0424292609,0.0003743172,-112.3569030762,75.6672744751,149.2888641357,0.0421167016,0.0634326041,0.0096118450,-3.2274069786,82.3631286621,-151.5309295654,0.0218919516,0.0197775066,0.0180901885,26.7860183716,55.1995162964,-161.9044952393,0.0677264333,0.0005175769,0.0010777712,
2608.043,-3.2161705494,1.3105300665,-88.9021911621,0.0648632571,0.0429050475,0.0018376112,-112.3571929932,75.6664886475,149.2921295166,0.0406484604,0.0580739081,0.0096179843,-3.2327463627,82.3623352051,-151.5287017822,0.0262846351,0.0241853297,0.0244246721,26.7857513428,55.2024459839,-161.9007873535,0.0755681396,-0.0019024909,-0.0003508925,
2608.053,-3.2151362896,1.3087233305,-88.9010009766,0.0643434525,0.0438636392,0.0081834793,-112.3585205078,75.6662902832,149.2935028076,0.0401593447,0.0605161190,0.0130425692,-3.2249603271,82.3617401123,-151.5128326416,0.0204238892,0.0285621583,0.0249022841,26.7894306183,55.2082405090,-161.8932037354,0.0790438056,-0.0004329681,-0.0070961118,
2608.063,-3.2148220539,1.3086087704,-88.8991622925,0.0565289557,0.0433698818,0.0125777721,-112.3572235107,75.6649627686,149.2992858887,0.0396652818,0.0595625341,0.0149990320,-3.2197241783,82.3616104126,-151.4976348877,0.0272595286,0.0261086524,0.0288046598,26.7950973511,55.2085647583,-161.8848419189,0.0761172771,0.0073311627,0.0066052079,
2608.073,-3.2163043022,1.3093266487,-88.8986740112,0.0594711676,0.0394894406,0.0028139353,-112.3566360474,75.6632995605,149.3067016602,0.0333104730,0.0610540211,0.0174486637,-3.2152884007,82.3650054932,-151.4846038818,0.0248259902,0.0300012529,0.0190963745,26.7997608185,55.2123641968,-161.8761901855,0.0790848732,-0.0019630492,-0.0035790205,
2608.083,-3.2161724567,1.3094816208,-88.8981399536,0.0594738722,0.0429051071,0.0076963902,-112.3693771362,75.6600799561,149.3024139404,0.0406207442,0.0571767986,0.0048251152,-3.2075898647,82.3667297363,-151.4669494629,0.0292245150,0.0275401175,0.0240085125,26.8020038605,55.2137908936,-161.8692779541,0.0776342154,0.0068152845,0.0106095672,
2608.093,-3.2163231373,1.3089191914,-88.8981323242,0.0594640598,0.0463257097,0.0003727674,-112.3675384521,75.6573333740,149.3123474121,0.0406088829,0.0581991374,0.0165541768,-3.1755762100,82.3668823242,-151.4268188477,0.0253186226,0.0313712656,0.0244947672,26.8055458069,55.2136726379,-161.8620147705,0.0766564608,0.0058063865,0.0115998387,
2608.103,-3.2165195942,1.3093850613,-88.8975296021,0.0541010946,0.0438877195,0.0076968670,-112.3878555298,75.6565704346,149.3009948730,0.0381641984,0.0645250976,0.0063868165,-3.1881761551,82.3678588867,-151.4289093018,0.0321568251,0.0245639384,0.0279302597,26.8090190887,55.2145347595,-161.8549346924,0.0825244784,0.0013867021,0.0013735294,
2608.113,-3.2166802883,1.3110841513,-88.8970260620,0.0560838655,0.0419373512,0.0037914515,-112.3853378296,75.6543960571,149.3107757568,0.0445024371,0.0587036610,0.0112733841,-3.2007274628,82.3688659668,-151.4319763184,0.0209286809,0.0221509337,0.0230672359,26.8139038086,55.2204704285,-161.8475646973,0.0703765154,-0.0005716383,-0.0014590621,
2608.123,-3.2166640759,1.3104075193,-88.8964614868,0.0599783100,0.0404722467,0.0003733039,-112.3975372314,75.6560058594,149.3040313721,0.0420680046,0.0567052364,0.0030113459,-3.1997213364,82.3701248169,-151.4235229492,0.0228847265,0.0275184512,0.0201591253,26.8155956268,55.2234344482,-161.8422241211,0.0738239884,0.0018739402,-0.0009249449,
2608.133,-3.2168271542,1.3096210957,-88.8946609497,0.0609411448,0.0438930690,0.0096505284,-112.3847427368,75.6575317383,149.3206481934,0.0371917486,0.0542611778,0.0102743506,-3.2161149979,82.3703002930,-151.4312591553,0.0248382688,0.0260918438,0.0211404562,26.8197517395,55.2268104553,-161.8357696533,0.0743458271,0.0008822083,0.0010899901,
2608.143,-3.2173404694,1.3101184368,-88.8941116333,0.0560670123,0.0385309123,0.0057449341,-112.3687973022,75.6583328247,149.3403625488,0.0352420807,0.0567171872,0.0136231184,-3.2128596306,82.3731384277,-151.4217071533,0.0287510753,0.0260815322,0.0182582736,26.8212604523,55.2283554077,-161.8320922852,0.0728964210,-0.0010742843,0.0016049743,
2608.153,-3.2190051079,1.3108546734,-88.8935394287,0.0531501696,0.0366067737,0.0077002048,-112.3573074341,75.6633529663,149.3542175293,0.0406349301,0.0625169873,0.0150097013,-3.2191855907,82.3725128174,-151.4207000732,0.0243551135,0.0300031900,0.0241076350,26.8235301971,55.2336044312,-161.8260040283,0.0705072284,-0.0020371079,-0.0002709627,
2608.163,-3.2197239399,1.3102546930,-88.8917236328,0.0580225140,0.0419903994,0.0062355995,-112.3424224854,75.6652221680,149.3727569580,0.0338070393,0.0542107224,0.0120082498,-3.2092778683,82.3704833984,-151.4038848877,0.0233738422,0.0265639722,0.0294427276,26.8247051239,55.2352142334,-161.8233947754,0.0793123245,0.0018691123,0.0007312894,
2608.173,-3.2190215588,1.3114281893,-88.8893585205,0.0585312732,0.0468609519,0.0111182332,-112.3314056396,75.6690750122,149.3858032227,0.0372416377,0.0624707341,0.0124276280,-3.2264676094,82.3712539673,-151.4147186279,0.0243521929,0.0226971507,0.0250652432,26.8230590820,55.2336425781,-161.8227233887,0.0773435831,0.0018734932,0.0007032752,
2608.183,-3.2183060646,1.3136556149,-88.8876571655,0.0566170141,0.0448953062,0.0037940741,-112.3258056641,75.6723403931,149.3930511475,0.0362792015,0.0585217178,0.0114076138,-3.2357313633,82.3715133667,-151.4170532227,0.0302121639,0.0222303867,0.0245807171,26.8262214661,55.2307662964,-161.8178100586,0.0807328820,0.0042683184,0.0036115646,
2608.193,-3.2196524143,1.3131992817,-88.8864746094,0.0595387407,0.0419890881,0.0062369108,-112.3265151978,75.6744384766,149.3939514160,0.0406827927,0.0594654381,0.0113970637,-3.2406177521,82.3705902100,-151.4162139893,0.0228857994,0.0256606638,0.0231015086,26.8269519806,55.2313842773,-161.8156127930,0.0709733963,0.0008477867,0.0080163479,
2608.203,-3.2207982540,1.3128648996,-88.8847656250,0.0634391606,0.0405442119,0.0042845607,-112.3271026611,75.6744689941,149.3941955566,0.0397063494,0.0575098991,0.0104227662,-3.2435157299,82.3667526245,-151.4140777588,0.0282480121,0.0256711245,0.0342673659,26.8301486969,55.2298011780,-161.8116455078,0.0704693794,0.0110630691,0.0070342422,
