Time(sec),Gyr1_X(deg/sec),Gyr1_Y(deg/sec),Gyr1_Z(deg/sec),Acc1_X(m/s^2),Acc1_Y(m/s^2),Acc1_Z(m/s^2),Gyr2_X(deg/sec),Gyr2_Y(deg/sec),Gyr2_Z(deg/sec),Acc2_X(m/s^2),Acc2_Y(m/s^2),Acc2_Z(m/s^2),Gyr_X(deg/sec),Gyr_Y(deg/sec),Gyr_Z(deg/sec),Acc_X(m/s^2),Acc_Y(m/s^2),Acc_Z(m/s^2),Gyr_X(deg/sec),Gyr_Y(deg/sec),Gyr_Z(deg/sec),Acc_X(m/s^2),Acc_Y(m/s^2),Acc_Z(m/s^2),
1956.383,-3.2063329220,1.3419535160,-156.3245239258,0.0575990528,0.0427329615,-0.0020651817,-105.5543518066,77.0819091797,40.6721000671,0.0537922382,0.0655995458,0.0143595338,-10.0699911118,83.0278778076,59.5428276062,0.0287381411,0.0215301216,0.0154835582,24.0085716248,56.2315635681,-48.6740837097,0.0793377161,0.0081318915,0.0076810122,
1956.393,-3.2090926170,1.3389192820,-156.3233642578,0.0663351715,0.0349686034,0.0042831302,-105.2073135376,77.1166610718,40.9964179993,0.0514862537,0.0668561608,0.0158221126,-10.1550540924,83.0298461914,59.4662246704,0.0258126259,0.0202393532,0.0223844349,24.0171089172,56.2305145264,-48.6592025757,0.0788391829,0.0026788712,-0.0001116991,
1956.403,-3.2080211639,1.3395500183,-156.3228149414,0.0580453947,0.0417858586,0.0150251389,-104.8488693237,77.1582489014,41.3227272034,0.0536009669,0.0699560493,0.0118457675,-10.2044029236,83.0299911499,59.4260787964,0.0306957364,0.0237614810,0.0243570805,24.0242519379,56.2278099060,-48.6469917297,0.0841840506,0.0079707205,-0.0001192689,
1956.413,-3.2075846195,1.3390439749,-156.3235015869,0.0614545345,0.0398251377,0.0052588582,-104.4780197144,77.2014160156,41.6599578857,0.0591391921,0.0696133971,0.0097754598,-10.2369928360,83.0271987915,59.4012565613,0.0267835855,0.0223735571,0.0287204087,24.0273704529,56.2290000916,-48.6393852234,0.0793128014,0.0059970021,-0.0020438433,
1956.423,-3.2074449062,1.3379617929,-156.3229064941,0.0594825298,0.0407992899,0.0067226887,-104.1026000977,77.2469253540,41.9987716675,0.0588265657,0.0667824596,0.0154977441,-10.2584018707,83.0259017944,59.3899269104,0.0292222500,0.0263295472,0.0213787556,24.0298023224,56.2292785645,-48.6333770752,0.0822452307,0.0059769154,-0.0015435815,
1956.433,-3.2071914673,1.3409106731,-156.3217926025,0.0541628897,0.0432362221,0.0101422668,-103.7502593994,77.2938537598,42.3186912537,0.0511945486,0.0751270354,0.0032415390,-10.2811470032,83.0242156982,59.3774337769,0.0218944550,0.0239409506,0.0267334580,24.0257015228,56.2319145203,-48.6316566467,0.0676223040,0.0026109517,0.0058001876,
1956.443,-3.2081685066,1.3406950235,-156.3218688965,0.0585536584,0.0369055830,0.0091656446,-103.4201812744,77.3347167969,42.6219367981,0.0474449396,0.0659621209,-0.0005991459,-10.3089427948,83.0243072510,59.3596420288,0.0238477588,0.0225348771,0.0272322595,24.0320682526,56.2370338440,-48.6213874817,0.0745079517,0.0040496588,-0.0033841133,
1956.453,-3.2085795403,1.3373229504,-156.3199310303,0.0633776337,0.0452136099,0.0047708750,-103.1232147217,77.3687210083,42.9000320435,0.0495280027,0.0661501437,-0.0042834282,-10.3156833649,83.0218887329,59.3620529175,0.0282371640,0.0274393260,0.0340302885,24.0390071869,56.2398071289,-48.6081466675,0.0701403022,0.0054693520,0.0005862713,
1956.463,-3.2080030441,1.3396142721,-156.3195037842,0.0585348010,0.0422738269,0.0111184716,-102.8746795654,77.3956451416,43.1350517273,0.0545134544,0.0605474114,-0.0121504664,-10.3614826202,83.0216369629,59.3264541626,0.0218889713,0.0255837739,0.0311149061,24.0509586334,56.2409629822,-48.5921173096,0.0764991641,0.0043937266,-0.0052106380,
1956.473,-3.2081737518,1.3392434120,-156.3195648193,0.0614580177,0.0417885222,0.0150250196,-102.6620330811,77.4151077271,43.3383598328,0.0589820743,0.0613810718,-0.0056927204,-10.4237518311,83.0219116211,59.2776527405,0.0257958174,0.0203435719,0.0257725120,24.0603961945,56.2410659790,-48.5788688660,0.0750353336,0.0082169473,-0.0027303696,
1956.483,-3.2092998028,1.3384447098,-156.3171844482,0.0609558001,0.0383901894,0.0057480931,-102.4995880127,77.4291076660,43.4932479858,0.0600118637,0.0642140657,-0.0136746168,-10.4843368530,83.0244979858,59.2293472290,0.0243364573,0.0219285786,0.0204680562,24.0613956451,56.2404632568,-48.5719604492,0.0794240236,-0.0020494163,0.0026361346,
1956.493,-3.2083191872,1.3365193605,-156.3159484863,0.0623870529,0.0437442474,0.0023285151,-102.3476486206,77.4400863647,43.6346282959,0.0664011836,0.0602493584,0.0052501559,-10.4976711273,83.0259552002,59.2278785706,0.0238512754,0.0239054561,0.0195207298,24.0635299683,56.2370071411,-48.5652885437,0.0749959946,0.0057238340,0.0089470148,
1956.503,-3.2088372707,1.3356074095,-156.3141174316,0.0570000410,0.0383822024,0.0072116852,-102.2306289673,77.4544372559,43.7388610840,0.0664556026,0.0625482500,-0.0006089211,-10.5036325455,83.0268325806,59.2306060791,0.0297124982,0.0253799260,0.0205159485,24.0586681366,56.2342300415,-48.5648651123,0.0783869624,-0.0015737712,0.0098674297,
1956.513,-3.2094836235,1.3331961632,-156.3129730225,0.0662353113,0.0359521136,0.0028167963,-102.1242523193,77.4739913940,43.8271179199,0.0601820350,0.0667039007,0.0013664365,-10.4919452667,83.0243301392,59.2494964600,0.0262892246,0.0214571357,0.0258379281,24.0569572449,56.2361869812,-48.5623779297,0.0759645700,0.0028474331,-0.0003677607,
1956.523,-3.2090861797,1.3321229219,-156.3117675781,0.0618220568,0.0437577069,0.0096519589,-102.0158309937,77.4960021973,43.9099960327,0.0578238964,0.0630072355,0.0008849502,-10.4497871399,83.0200042725,59.2987022400,0.0292097330,0.0247989893,0.0286808610,24.0531444550,56.2371826172,-48.5652580261,0.0769507885,0.0102114379,0.0074438453,
1956.533,-3.2078697681,1.3311609030,-156.3112335205,0.0632701144,0.0403185710,0.0047675371,-101.8928451538,77.5215377808,44.0051918030,0.0549905896,0.0621911287,0.0096161366,-10.4002523422,83.0183410645,59.3555831909,0.0179757476,0.0251879394,0.0208188295,24.0469436646,56.2403984070,-48.5700912476,0.0784468055,0.0024727285,0.0025775433,
1956.543,-3.2075195313,1.3309911489,-156.3099822998,0.0539898090,0.0437304452,-0.0025571585,-101.7834854126,77.5525054932,44.0878524780,0.0502244234,0.0685983598,0.0017785430,-10.3663530350,83.0182342529,59.3965187073,0.0277411342,0.0280458927,0.0164114237,24.0486602783,56.2497558594,-48.5652999878,0.0677953959,0.0049543381,-0.0094978809,
1956.553,-3.2084832191,1.3324528933,-156.3077239990,0.0618278123,0.0388643853,0.0116046667,-101.6713180542,77.5837097168,44.1769104004,0.0386229157,0.0691413581,0.0119984150,-10.3434333801,83.0218582153,59.4272270203,0.0214011669,0.0279865563,0.0174379647,24.0493946075,56.2540092468,-48.5618896484,0.0707663298,0.0049729645,0.0061864853,
1956.563,-3.2080867290,1.3349407911,-156.3066711426,0.0579649732,0.0437402353,0.0111169815,-101.5927200317,77.6109313965,44.2398300171,0.0440960526,0.0667960048,0.0008728504,-10.3378753662,83.0215759277,59.4413223267,0.0184708834,0.0274868011,0.0286654830,24.0562763214,56.2547264099,-48.5518493652,0.0732146502,0.0063810349,0.0091527700,
1956.573,-3.2067439556,1.3371752501,-156.3049316406,0.0545859933,0.0427402221,0.0081868172,-101.5030288696,77.6312942505,44.3214912415,0.0529612899,0.0596894771,0.0097503066,-10.3714790344,83.0261840820,59.4164619446,0.0155509710,0.0285209417,0.0238687098,24.0617771149,56.2541122437,-48.5436553955,0.0683258772,0.0014458299,0.0140488148,
1956.583,-3.2047305107,1.3408540487,-156.3032531738,0.0536736213,0.0451464653,0.0033035278,-101.4390487671,77.6440734863,44.3858261108,0.0608215332,0.0634309500,0.0050770044,-10.4078693390,83.0264053345,59.3903427124,0.0184811354,0.0256672204,0.0263298750,24.0700302124,56.2532691956,-48.5314636230,0.0717356801,0.0013678372,0.0038168430,
1956.593,-3.2066652775,1.3406454325,-156.3020935059,0.0585527942,0.0378559604,0.0028170943,-101.3755950928,77.6508026123,44.4513931274,0.0559638739,0.0614120364,0.0038444400,-10.4432744980,83.0249481201,59.3653221130,0.0292202234,0.0208636522,0.0326677561,24.0812110901,56.2524795532,-48.5172882080,0.0702632070,0.0081000924,0.0004327297,
1956.603,-3.2082083225,1.3407578468,-156.3016052246,0.0595313162,0.0349531583,0.0052600503,-101.2998657227,77.6547317505,44.5282135010,0.0628144741,0.0638445467,0.0079469085,-10.4671401978,83.0267486572,59.3501739502,0.0321537256,0.0287215710,0.0229379833,24.0845603943,56.2505798340,-48.5103378296,0.0736627579,0.0017115176,0.0038387775,
1956.613,-3.2085039616,1.3416043520,-156.3009643555,0.0527101494,0.0457004756,0.0057490468,-101.1883697510,77.6618652344,44.6358909607,0.0633293390,0.0662477911,0.0172789097,-10.4554538727,83.0286331177,59.3692932129,0.0219038129,0.0286904573,0.0107618868,24.0834732056,56.2495231628,-48.5071144104,0.0682814121,0.0017148852,0.0052852631,
1956.623,-3.2084076405,1.3420991898,-156.3003692627,0.0561367534,0.0427691005,0.0077021718,-101.0516052246,77.6719512939,44.7595787048,0.0550661683,0.0642255396,0.0177192092,-10.4585399628,83.0273361206,59.3753089905,0.0253190398,0.0189357698,0.0209925175,24.0855064392,56.2493820190,-48.5031127930,0.0843933225,0.0114616454,0.0004085898,
1956.633,-3.2064557076,1.3412593603,-156.2998046875,0.0629580319,0.0471296422,0.0076999664,-100.8866271973,77.6902923584,44.9042091370,0.0595290065,0.0689191371,0.0151005387,-10.4287567139,83.0257644653,59.4127044678,0.0243391395,0.0257133842,0.0258388817,24.0804157257,56.2512702942,-48.5055274963,0.0746459961,0.0032171309,0.0077375770,
1956.643,-3.2062797546,1.3431484699,-156.2974395752,0.0537136532,0.0407788754,0.0062357187,-100.6963653564,77.7122726440,45.0676689148,0.0522865057,0.0672203600,0.0197028518,-10.4095487595,83.0243301392,59.4389991760,0.0248243809,0.0232357681,0.0267840922,24.0763607025,56.2532653809,-48.5076522827,0.0707590580,0.0071710348,0.0048181415,
1956.653,-3.2071840763,1.3433125019,-156.2950286865,0.0576227680,0.0412829071,0.0067245960,-100.5088958740,77.7336807251,45.2288322449,0.0509011149,0.0679675192,0.0091828108,-10.4049396515,83.0256271362,59.4512672424,0.0253154039,0.0232220292,0.0228977799,24.0729465485,56.2545661926,-48.5064964294,0.0654006004,0.0018379092,0.0053105354,
1956.663,-3.2064638138,1.3430720568,-156.2926483154,0.0610365421,0.0427352116,0.0028178096,-100.3151092529,77.7587814331,45.3991584778,0.0412284732,0.0754919648,0.0108368397,-10.4137096405,83.0245819092,59.4519729614,0.0131061673,0.0232440531,0.0277646780,24.0747642517,56.2571067810,-48.5004882813,0.0688431859,0.0013485253,-0.0034382939,
1956.673,-3.2070674896,1.3408856392,-156.2920532227,0.0634397939,0.0403043739,0.0091653466,-100.1296386719,77.7726440430,45.5688819885,0.0422562957,0.0621984601,0.0076746345,-10.4496564865,83.0284957886,59.4262275696,0.0189738274,0.0301436782,0.0224748254,24.0794372559,56.2552108765,-48.4893798828,0.0737076402,0.0003194809,0.0048564672,
1956.683,-3.2080714703,1.3410286903,-156.2896728516,0.0575829186,0.0388570093,0.0033066273,-99.9695358276,77.7805480957,45.7216110229,0.0500980020,0.0607050955,0.0026707649,-10.4945850372,83.0318756104,59.3914489746,0.0209341049,0.0302281082,0.0298733115,24.0846900940,56.2558746338,-48.4764060974,0.0644367337,-0.0021645725,0.0048857927,
1956.693,-3.2089116573,1.3401480913,-156.2891387939,0.0653800517,0.0437544882,0.0111197829,-99.8703079224,77.7815856934,45.8249206543,0.0637736917,0.0612385124,-0.0064842701,-10.5585613251,83.0327148438,59.3401184082,0.0267952681,0.0259661376,0.0299119651,24.0926685333,56.2524986267,-48.4622192383,0.0741696358,-0.0007903874,0.0097551942,
1956.703,-3.2089219093,1.3418921232,-156.2867736816,0.0541800112,0.0422897823,0.0047729015,-99.8166351318,77.7717285156,45.8929748535,0.0637372732,0.0604610145,-0.0086054206,-10.6293315887,83.0386886597,59.2809791565,0.0238782167,0.0217021704,0.0188098550,24.0994453430,56.2470893860,-48.4491958618,0.0809531212,-0.0043003261,0.0136169791,
1956.713,-3.2069089413,1.3423646688,-156.2862548828,0.0605359189,0.0451843925,0.0086774230,-99.8263320923,77.7506103516,45.9045448303,0.0734247565,0.0608079582,-0.0148565173,-10.6848993301,83.0427474976,59.2370452881,0.0258399248,0.0247362256,0.0135286450,24.1112899780,56.2471008301,-48.4339447021,0.0775352716,0.0019424558,-0.0009844303,
1956.723,-3.2066166401,1.3437447548,-156.2857666016,0.0595834367,0.0412730165,0.0111191273,-99.9007492065,77.7197418213,45.8538322449,0.0747751594,0.0593233109,-0.0208409429,-10.7158393860,83.0460739136,59.2160644531,0.0229172707,0.0233260691,0.0223856270,24.1207809448,56.2468261719,-48.4208412170,0.0760677457,0.0057630539,-0.0019270182,
1956.733,-3.2073307037,1.3444049358,-156.2846679688,0.0620363615,0.0442151278,0.0057489276,-100.0179214478,77.6789093018,45.7580566406,0.0697405338,0.0501644313,-0.0139419436,-10.7319269180,83.0464706421,59.2087402344,0.0243829489,0.0209172964,0.0287463069,24.1276206970,56.2447624207,-48.4108123779,0.0799540281,0.0110613704,0.0024673343,
1956.743,-3.2065653801,1.3420882225,-156.2828369141,0.0663904697,0.0471315384,0.0116066337,-100.1850280762,77.6302413940,45.6071510315,0.0763948560,0.0513560027,-0.0205039978,-10.7194566727,83.0468063354,59.2296409607,0.0204774141,0.0199134648,0.0297232270,24.1303939819,56.2452926636,-48.4080467224,0.0755646229,0.0081102550,0.0024855137,
1956.753,-3.2066404819,1.3435499668,-156.2835083008,0.0546972230,0.0422499999,0.0091660023,-100.3884735107,77.5788192749,45.4128532410,0.0708311200,0.0554958880,-0.0132464170,-10.6744766235,83.0475387573,59.2794151306,0.0282914639,0.0237226486,0.0272762477,24.1182136536,56.2416610718,-48.4180946350,0.0823652744,0.0018489659,0.0150845051,
1956.763,-3.2069392204,1.3440872431,-156.2817840576,0.0605659708,0.0412786268,0.0091664791,-100.6329803467,77.5247955322,45.1706390381,0.0686747432,0.0576938838,-0.0092402101,-10.6130170822,83.0488967896,59.3470993042,0.0224349499,0.0231005847,0.0189742446,24.1048545837,56.2403564453,-48.4290695190,0.0823526382,-0.0014584363,0.0047602654,
1956.773,-3.2057120800,1.3427000046,-156.2800292969,0.0649362952,0.0402807221,0.0033053756,-100.9050827026,77.4673004150,44.8941001892,0.0660160780,0.0638303012,-0.0046242476,-10.5507755280,83.0487213135,59.4143905640,0.0248759985,0.0219933987,0.0194354355,24.1041488647,56.2457008362,-48.4295616150,0.0750802755,0.0107864738,-0.0068905354,
1956.783,-3.2070703506,1.3415592909,-156.2794036865,0.0575921759,0.0398161262,0.0081890225,-101.2297821045,77.4107971191,44.5664901733,0.0604305267,0.0703933090,-0.0076187849,-10.4601774216,83.0471420288,59.5086555481,0.0234078169,0.0281549990,0.0306043029,24.0940723419,56.2498359680,-48.4374237061,0.0746321082,0.0006462634,-0.0005279779,
1956.793,-3.2067768574,1.3420435190,-156.2782135010,0.0580889061,0.0456703790,-0.0025533438,-101.5860977173,77.3535003662,44.2100715637,0.0597237945,0.0715652853,-0.0060878992,-10.3929710388,83.0488128662,59.5796394348,0.0273175836,0.0245903432,0.0154689252,24.0889282227,56.2537040710,-48.4421958923,0.0756461620,0.0021796525,0.0043855906,
1956.803,-3.2095606327,1.3413352966,-156.2764739990,0.0605179556,0.0369298309,0.0057497621,-101.9676055908,77.2945480347,43.8339233398,0.0516855121,0.0683372319,0.0009255409,-10.3162565231,83.0497131348,59.6614341736,0.0258546472,0.0244258642,0.0188724697,24.0797061920,56.2572898865,-48.4485855103,0.0742160678,-0.0001589656,0.0029316545,
1956.813,-3.2086236477,1.3403286934,-156.2746429443,0.0595238283,0.0413080640,0.0086782575,-102.3789978027,77.2331924438,43.4374313354,0.0558439493,0.0685314536,0.0070949197,-10.2637720108,83.0500793457,59.7200889587,0.0190194845,0.0208959877,0.0217893124,24.0714683533,56.2583351135,-48.4561767578,0.0781324506,0.0004085004,0.0107258558,
1956.823,-3.2089910507,1.3398784399,-156.2734375000,0.0595159717,0.0432675928,0.0062370896,-102.8028869629,77.1711578369,43.0353279114,0.0516978502,0.0711538196,0.0123496652,-10.2049837112,83.0500793457,59.7851333618,0.0224374533,0.0232136250,0.0276248753,24.0580234528,56.2587471008,-48.4673080444,0.0688591003,-0.0028880239,0.0101894140,
1956.833,-3.2088270187,1.3391674757,-156.2722625732,0.0604801290,0.0408233404,0.0077010393,-103.2680511475,77.1028137207,42.6013145447,0.0533854365,0.0660125613,-0.0012437105,-10.1354217529,83.0500564575,59.8612823486,0.0243905187,0.0279496610,0.0256462693,24.0489692688,56.2564620972,-48.4758682251,0.0756728649,0.0020615160,0.0057291985,
1956.843,-3.2111659050,1.3409434557,-156.2699890137,0.0580697097,0.0364695191,-0.0030374527,-103.7606735229,77.0301895142,42.1471061707,0.0521251559,0.0667591542,-0.0059114695,-10.0522232056,83.0484466553,59.9477119446,0.0234105587,0.0248494446,0.0280280411,24.0402431488,56.2591056824,-48.4830436707,0.0693508387,-0.0012635589,-0.0069659948,
1956.853,-3.2102742195,1.3406684399,-156.2687988281,0.0609945990,0.0476844609,0.0047735572,-104.2560882568,76.9544219971,41.6951675415,0.0508509874,0.0641139001,0.0065512061,-9.9890928268,83.0487823486,60.0133781433,0.0209698677,0.0237386227,0.0158034861,24.0339717865,56.2581062317,-48.4903411865,0.0830130577,0.0026923716,-0.0001676083,
1956.863,-3.2102901936,1.3414628506,-156.2676849365,0.0595436171,0.0423136316,0.0091686249,-104.7693939209,76.8688812256,41.2296676636,0.0568605661,0.0547520965,0.0040055513,-9.8993396759,83.0479125977,60.1074562073,0.0287805200,0.0264811814,0.0225932598,24.0213718414,56.2554130554,-48.5025367737,0.0795689821,-0.0006300807,0.0080463886,
1956.873,-3.2078588009,1.3420037031,-156.2671051025,0.0580882132,0.0466657840,0.0067251325,-105.2975769043,76.7823562622,40.7532157898,0.0530983806,0.0614793599,0.0054482818,-9.8113956451,83.0485839844,60.1993446350,0.0268288255,0.0262938440,0.0245230198,24.0117092133,56.2531890869,-48.5133285522,0.0800356865,0.0057902336,0.0045619011,
1956.883,-3.2086033821,1.3422732353,-156.2659606934,0.0590694770,0.0398428179,0.0042844415,-105.8537826538,76.6912841797,40.2502975464,0.0463860631,0.0579695106,0.0041119456,-9.7215137482,83.0487823486,60.2908134460,0.0209698677,0.0324506760,0.0196141899,24.0009059906,56.2493438721,-48.5245285034,0.0819515586,0.0048867166,0.0147221684,
1956.893,-3.2105784416,1.3409867287,-156.2654266357,0.0624650009,0.0354827233,0.0101453066,-106.4317626953,76.6022567749,39.7245559692,0.0499334335,0.0631599724,-0.0005442500,-9.6394348145,83.0481872559,60.3758277893,0.0287811160,0.0205608010,0.0239649117,23.9899272919,56.2465515137,-48.5360298157,0.0750885010,0.0093620420,0.0058526993,
1956.903,-3.2093806267,1.3430652618,-156.2649536133,0.0571301728,0.0422977395,0.0111215115,-107.0342864990,76.5117874146,39.1739997864,0.0476132631,0.0629436225,-0.0065400600,-9.5438308716,83.0443267822,60.4724578857,0.0277963877,0.0281815827,0.0258235633,23.9775257111,56.2440910339,-48.5482444763,0.0779943466,0.0089692473,0.0082128048,
1956.913,-3.2078373432,1.3439480066,-156.2656555176,0.0586104169,0.0437356867,0.0013543367,-107.6208496094,76.4247436523,38.6414413452,0.0443280935,0.0650966763,0.0123096108,-9.4311599731,83.0432281494,60.5874710083,0.0209581256,0.0264821053,0.0203897655,23.9607238770,56.2429084778,-48.5641784668,0.0794477463,0.0012988150,0.0008070469,
1956.923,-3.2083714008,1.3446655273,-156.2656707764,0.0552049689,0.0427684039,0.0067269206,-108.2158355713,76.3358688354,38.1012763977,0.0449393988,0.0647954643,0.0068086982,-9.3321838379,83.0399780273,60.6876678467,0.0297403336,0.0257929862,0.0217685401,23.9434356689,56.2426033020,-48.5824966431,0.0730971098,0.0043799281,0.0041524172,
1956.933,-3.2098932266,1.3451960087,-156.2638854980,0.0561907850,0.0413300619,0.0057515502,-108.7993774414,76.2477188110,37.5792922974,0.0411568284,0.0659271926,0.0193469524,-9.2295961380,83.0340118408,60.7942466736,0.0267980099,0.0226626694,0.0304194987,23.9264221191,56.2433395386,-48.5983428955,0.0770105124,-0.0008359253,0.0001892447,
1956.943,-3.2106339931,1.3424093723,-156.2608337402,0.0639546663,0.0374367833,0.0111223459,-109.3964004517,76.1554641724,37.0496788025,0.0393079519,0.0646310151,0.0090327859,-9.1340522766,83.0306930542,60.8924026489,0.0228847265,0.0249105692,0.0254478455,23.9176273346,56.2431678772,-48.6092262268,0.0740791559,0.0090066791,-0.0013124347,
1956.953,-3.2089829445,1.3431229591,-156.2591552734,0.0644553974,0.0437556580,0.0145390034,-109.9841690063,76.0541763306,36.5438461304,0.0359537601,0.0580833554,0.0148689747,-9.0394620895,83.0307998657,60.9901313782,0.0248380899,0.0266624093,0.0215138197,23.9048614502,56.2446289063,-48.6223182678,0.0731167793,-0.0001488328,0.0001214743,
1956.963,-3.2108216286,1.3401167393,-156.2579650879,0.0663560703,0.0359752551,0.0072153807,-110.5618743896,75.9452590942,36.0555763245,0.0271930695,0.0540771782,0.0163399577,-8.9757900238,83.0275878906,61.0568008423,0.0292258263,0.0265358984,0.0219262838,23.8929729462,56.2428970337,-48.6332397461,0.0740765333,0.0018995702,0.0093291998,
1956.973,-3.2100679874,1.3411784172,-156.2555999756,0.0566089675,0.0427980423,0.0062385201,-111.1392898560,75.8292922974,35.5691757202,0.0413479805,0.0506333858,0.0076243281,-8.9158096313,83.0259552002,61.1222534180,0.0228747129,0.0269011855,0.0174838901,23.8885612488,56.2420997620,-48.6383476257,0.0735805035,0.0073050857,0.0010004044,
1956.983,-3.2103736401,1.3423582315,-156.2550354004,0.0556529947,0.0457330272,0.0003800988,-111.7040634155,75.7071990967,35.0946426392,0.0427772403,0.0531267226,0.0042946935,-8.8646402359,83.0251693726,61.1776390076,0.0179902315,0.0253296793,0.0208719969,23.8830337524,56.2415237427,-48.6437988281,0.0750397444,0.0034444928,0.0043891668,
1956.993,-3.2107653618,1.3424590826,-156.2544250488,0.0551664680,0.0432984456,0.0008683205,-112.2708282471,75.5821762085,34.6247329712,0.0397948027,0.0546471179,0.0049264431,-8.8063812256,83.0241088867,61.2383575439,0.0243356228,0.0252088308,0.0193690062,23.8788700104,56.2420997620,-48.6488494873,0.0828578472,0.0049496591,0.0019387007,
1957.003,-3.2088479996,1.3429930210,-156.2545776367,0.0644531250,0.0427767523,0.0077033043,-112.8285140991,75.4496078491,34.1644096375,0.0411692262,0.0430772454,0.0119471550,-8.7794456482,83.0209579468,61.2689933777,0.0248172283,0.0158824027,0.0261433125,23.8717517853,56.2414932251,-48.6579246521,0.0765042901,0.0030562282,0.0092275143,
1957.013,-3.2097315788,1.3449287415,-156.2523040771,0.0600923747,0.0413272455,0.0096576214,-113.3854217529,75.3144683838,33.6925506592,0.0381326079,0.0471332669,-0.0024721026,-8.7250165939,83.0177536011,61.3241615295,0.0296932459,0.0177279711,0.0270488858,23.8706626892,56.2457275391,-48.6623115540,0.0736156702,0.0030906498,-0.0034164190,
1957.023,-3.2095146179,1.3430820704,-156.2498474121,0.0605484322,0.0408352315,0.0116097927,-113.8934860229,75.1856231689,33.2454185486,0.0404897332,0.0545591116,0.0160990357,-8.6571626663,83.0144729614,61.3912467957,0.0243151784,0.0268694162,0.0269714594,23.8629627228,56.2478904724,-48.6706809998,0.0755897760,0.0026833415,-0.0009765625,
1957.033,-3.2097921371,1.3431777954,-156.2493133545,0.0595735386,0.0393752269,0.0047742724,-114.3569564819,75.0666198730,32.8286819458,0.0355620384,0.0604161918,0.0237029195,-8.5907278061,83.0114135742,61.4551010132,0.0282149315,0.0277122855,0.0273871124,23.8538494110,56.2499160767,-48.6821556091,0.0760977268,0.0037527680,0.0019446611,
1957.043,-3.2089910507,1.3431127071,-156.2475585938,0.0605489686,0.0408261120,0.0096562505,-114.7732925415,74.9652252197,32.4477844238,0.0243623257,0.0689951628,0.0241740346,-8.5356950760,83.0082931519,61.5082664490,0.0267434716,0.0232084990,0.0209686756,23.8419437408,56.2548103333,-48.6950683594,0.0639381409,-0.0000192523,0.0083100796,
1957.053,-3.2088172436,1.3423373699,-156.2475585938,0.0605354421,0.0452176370,0.0096557140,-115.1115341187,74.8911666870,32.1371841431,0.0230496526,0.0802161992,0.0544167161,-8.4798116684,83.0037155151,61.5604248047,0.0272220373,0.0221243501,0.0277095437,23.8377971649,56.2555732727,-48.7007408142,0.0820119381,0.0156470239,0.0000035763,
1957.063,-3.2085740566,1.3421536684,-156.2469940186,0.0585791096,0.0432602763,0.0096555948,-115.3858184814,74.8457565308,31.8856887817,0.0228427649,0.0979494005,0.0583186150,-8.4328517914,83.0018157959,61.6059875488,0.0228234529,0.0249584615,0.0208280981,23.8312931061,56.2598266602,-48.7075347900,0.0708227158,0.0064522922,0.0005223751,
1957.073,-3.2079310417,1.3407888412,-156.2458343506,0.0668560788,0.0447139479,0.0028184652,-115.5915069580,74.8254852295,31.6996231079,0.0198205113,0.0944334120,0.0593163967,-8.3882064819,82.9973297119,61.6496810913,0.0237904787,0.0312222540,0.0319666564,23.8297100067,56.2633094788,-48.7110137939,0.0742744207,0.0059984624,0.0030042529,
1957.083,-3.2075188160,1.3402926922,-156.2446594238,0.0595232025,0.0417770892,0.0018408895,-115.7322082520,74.8301849365,31.5828437805,0.0169122815,0.1004307866,0.0554696321,-8.3667106628,82.9966583252,61.6760177612,0.0267187357,0.0302011967,0.0295096934,23.8363304138,56.2648468018,-48.7060165405,0.0801486969,0.0122964382,0.0010974407,
1957.093,-3.2083139420,1.3399362564,-156.2446899414,0.0609818287,0.0461854860,0.0033070445,-115.8096466064,74.8612823486,31.5308284760,0.0116831064,0.1032244414,0.0628861785,-8.3549861908,82.9955978394,61.6935501099,0.0218336582,0.0282259881,0.0319266617,23.8416175842,56.2681808472,-48.6992530823,0.0699270964,0.0064096749,0.0021383762,
1957.103,-3.2059988976,1.3411729336,-156.2435607910,0.0575854369,0.0441919975,-0.0030430555,-115.8301544189,74.9108352661,31.5433616638,0.0192328095,0.0980402231,0.0547958612,-8.3758878708,82.9957046509,61.6812438965,0.0208573341,0.0248521268,0.0275426805,23.8573398590,56.2665634155,-48.6817855835,0.0747942328,0.0150498152,0.0075500607,
1957.113,-3.2064108849,1.3407175541,-156.2424011230,0.0595306158,0.0388280898,0.0062348843,-115.7953720093,74.9763793945,31.6138744354,0.0161120296,0.0844230056,0.0492913127,-8.4123229980,82.9963226318,61.6569061279,0.0267180204,0.0283464491,0.0309819281,23.8692989349,56.2658424377,-48.6654281616,0.0723458529,0.0046856701,-0.0007134676,
1957.123,-3.2072622776,1.3403879404,-156.2406463623,0.0614779890,0.0393312201,0.0096535683,-115.7201614380,75.0557250977,31.7268714905,0.0154935122,0.0770234764,0.0401040316,-8.4686193466,82.9948654175,61.6169891357,0.0218321085,0.0250523388,0.0334165692,23.8819293976,56.2642784119,-48.6475524902,0.0698893070,0.0074941516,0.0051747561,
1957.133,-3.2054665089,1.3429559469,-156.2401428223,0.0551751405,0.0466240905,0.0033047795,-115.6223068237,75.1436767578,31.8650035858,0.0246772766,0.0729527622,0.0307655334,-8.5269222260,82.9952011108,61.5745468140,0.0286687613,0.0227345526,0.0261167288,23.8922443390,56.2622718811,-48.6291542053,0.0811003447,0.0059261322,0.0061654449,
1957.143,-3.2045497894,1.3426244259,-156.2395324707,0.0571224764,0.0412370376,0.0150228143,-115.5147628784,75.2358398438,32.0127372742,0.0372955203,0.0688315034,0.0155017972,-8.5791301727,82.9927368164,61.5406074524,0.0232924223,0.0228523314,0.0348806381,23.9060783386,56.2622184753,-48.6076469421,0.0815880895,0.0111742318,-0.0040349960,
1957.153,-3.2049808502,1.3446371555,-156.2384490967,0.0595990047,0.0451507531,0.0101412535,-115.4039230347,75.3280410767,32.1584587097,0.0386809111,0.0578784943,0.0168308616,-8.6267280579,82.9947280884,61.5114021301,0.0247614980,0.0249020159,0.0178396106,23.9140071869,56.2628555298,-48.5931396484,0.0752465725,0.0003654361,-0.0010657310,
1957.163,-3.2048597336,1.3454749584,-156.2367095947,0.0596136227,0.0427072085,0.0120944977,-115.3036575317,75.4191970825,32.2891654968,0.0356646776,0.0542412400,0.0084488392,-8.6635847092,82.9949188232,61.4936714172,0.0223205090,0.0225388408,0.0271316469,23.9239368439,56.2613029480,-48.5769157410,0.0791378021,0.0085690618,0.0004174709,
1957.173,-3.2049694061,1.3443804979,-156.2354888916,0.0595945269,0.0441739969,0.0052582622,-115.2280197144,75.5026168823,32.3906250000,0.0370067358,0.0379765928,-0.0012404919,-8.7225484848,82.9972457886,61.4508399963,0.0223254561,0.0172875524,0.0203541815,23.9322681427,56.2588386536,-48.5620002747,0.0742310882,0.0065275431,0.0033468008,
1957.183,-3.2062096596,1.3445879221,-156.2350158691,0.0615512729,0.0358948149,0.0111191273,-115.1735687256,75.5797500610,32.4663314819,0.0417373776,0.0417859852,0.0009205341,-8.7645330429,82.9979476929,61.4261360168,0.0203738213,0.0178634226,0.0291702449,23.9383735657,56.2577705383,-48.5485610962,0.0712910891,0.0045140982,0.0038456321,
1957.193,-3.2052741051,1.3450913429,-156.2338562012,0.0605834946,0.0456441306,0.0096535683,-115.1254959106,75.6428909302,32.5285606384,0.0449409485,0.0360289663,-0.0046038032,-8.7828998566,82.9977798462,61.4258613586,0.0301390886,0.0232743621,0.0242885649,23.9430122375,56.2614288330,-48.5372390747,0.0708382130,-0.0023414791,-0.0063421726,
1957.203,-3.2043733597,1.3429292440,-156.2326507568,0.0634754524,0.0412339494,0.0091634393,-115.1066970825,75.6907958984,32.5567016602,0.0461244583,0.0289845765,-0.0089263916,-8.7873239517,82.9993515015,61.4362373352,0.0242830515,0.0266974866,0.0194353461,23.9489173889,56.2591056824,-48.5244483948,0.0805813074,0.0073581338,0.0053695440,
1957.213,-3.2043447495,1.3427722454,-156.2315216064,0.0610313080,0.0358623639,0.0174641609,-115.1099624634,75.7230453491,32.5561408997,0.0462634563,0.0265336931,-0.0159801245,-8.8026895523,82.9973602295,61.4359092712,0.0242788196,0.0223411322,0.0291704834,23.9491519928,56.2587814331,-48.5205802917,0.0698360205,-0.0009466112,0.0058543086,
1957.223,-3.2042186260,1.3427598476,-156.2303924561,0.0600545295,0.0407429822,0.0042803288,-115.1130752563,75.7457504272,32.5484199524,0.0448962450,0.0286233127,-0.0102708936,-8.7843523026,83.0005187988,61.4648017883,0.0208675861,0.0310825706,0.0135949850,23.9481201172,56.2576599121,-48.5166435242,0.0815439224,-0.0004558265,0.0082767010,
1957.233,-3.2041809559,1.3446614742,-156.2280273438,0.0537400544,0.0402540043,0.0086756945,-115.1397323608,75.7582092285,32.5093421936,0.0469028950,0.0337558091,-0.0068379045,-8.7599420547,82.9995727539,61.4980430603,0.0247718096,0.0285916626,0.0233360231,23.9478263855,56.2567405701,-48.5139617920,0.0746990442,0.0010062754,0.0033808947,
1957.243,-3.2055599689,1.3461582661,-156.2268829346,0.0547427312,0.0397897065,0.0028181672,-115.1759948730,75.7564468384,32.4569892883,0.0464070439,0.0302978754,-0.0081483722,-8.7460384369,82.9994659424,61.5208702087,0.0262364149,0.0246561170,0.0238174200,23.9458446503,56.2559013367,-48.5139350891,0.0727377534,-0.0014225543,-0.0005446672,
1957.253,-3.2050802708,1.3441478014,-156.2263183594,0.0669146851,0.0441759229,0.0042818785,-115.2286758423,75.7478332520,32.3864555359,0.0449051857,0.0361923128,-0.0049511790,-8.7286796570,83.0014266968,61.5426902771,0.0247757435,0.0294967592,0.0189625919,23.9378414154,56.2553253174,-48.5194778442,0.0707790852,-0.0028197765,0.0072289705,
1957.263,-3.2040231228,1.3435543776,-156.2238922119,0.0581152663,0.0417161174,0.0062333345,-115.2934646606,75.7277832031,32.3031692505,0.0438424349,0.0368671119,-0.0021125674,-8.6988697052,83.0018692017,61.5781822205,0.0233118534,0.0323617756,0.0253077447,23.9347877502,56.2546882629,-48.5210189819,0.0820033550,0.0020863414,0.0037904978,
1957.273,-3.2062499523,1.3409434557,-156.2244873047,0.0644173622,0.0412666872,0.0023288727,-115.3691406250,75.7068328857,32.2127609253,0.0369162560,0.0521822572,0.0071235895,-8.6910715103,83.0007476807,61.5937614441,0.0233094692,0.0211175382,0.0228450894,23.9332199097,56.2522926331,-48.5200271606,0.0810035467,0.0030626953,0.0061939955,
1957.283,-3.2061607838,1.3414891958,-156.2234039307,0.0624737665,0.0427299701,0.0067226291,-115.4552841187,75.6776885986,32.1160774231,0.0406967998,0.0529552102,-0.0011177063,-8.6434431076,83.0020370483,61.6473159790,0.0262418985,0.0298017561,0.0189448595,23.9345245361,56.2528800964,-48.5191268921,0.0736850500,0.0098905265,0.0052304268,
1957.293,-3.2059266567,1.3401415348,-156.2216186523,0.0629385337,0.0388196707,0.0106288195,-115.5425338745,75.6423110962,32.0247230530,0.0366376638,0.0567471981,0.0038754344,-8.6051244736,83.0008621216,61.6902580261,0.0252628326,0.0263050497,0.0286785662,23.9379863739,56.2544250488,-48.5144767761,0.0859070420,0.0049860775,-0.0001069903,
1957.303,-3.2065379620,1.3402857780,-156.2210845947,0.0595230833,0.0402951576,0.0081880093,-115.6178436279,75.6048202515,31.9509334564,0.0359869003,0.0561993420,0.0200689435,-8.5858869553,83.0015869141,61.7142791748,0.0277057886,0.0213793218,0.0228254795,23.9441127777,56.2578697205,-48.5073204041,0.0712920427,0.0064168870,0.0028928518,
1957.313,-3.2068574429,1.3386059999,-156.2205200195,0.0638882965,0.0412773304,0.0111168623,-115.6848449707,75.5641860962,31.8896331787,0.0279978514,0.0513186157,0.0157459378,-8.5683441162,83.0050125122,61.7363891602,0.0262482166,0.0281692743,0.0204352140,23.9485225677,56.2619552612,-48.5036277771,0.0767027140,0.0064019263,-0.0048480630,
1957.323,-3.2067487240,1.3366847038,-156.2205505371,0.0643430650,0.0407871902,0.0042803884,-115.7278060913,75.5244140625,31.8529338837,0.0278245807,0.0533056557,0.0210884213,-8.5510702133,83.0039443970,61.7595977783,0.0223397017,0.0222756863,0.0252950788,23.9571113586,56.2659530640,-48.4949874878,0.0703938007,0.0039078891,-0.0023202896,
1957.333,-3.2059564590,1.3368068933,-156.2212371826,0.0594623759,0.0388202593,0.0111156106,-115.7663726807,75.4852294922,31.8169803619,0.0305830836,0.0577318221,0.0122501850,-8.5342140198,83.0082931519,61.7813186646,0.0238137841,0.0241821110,0.0136422515,23.9641113281,56.2704048157,-48.4883918762,0.0733666420,0.0028955340,-0.0066279173,
1957.343,-3.2067766190,1.3361810446,-156.2206726074,0.0599397421,0.0417642593,0.0042802095,-115.7715377808,75.4449691772,31.8124275208,0.0352895260,0.0475911200,0.0184248090,-8.5522470474,83.0100936890,61.7694473267,0.0233293176,0.0217740834,0.0254012048,23.9629573822,56.2699737549,-48.4882736206,0.0748273134,0.0048563480,0.0114283562,
1957.353,-3.2062768936,1.3349444866,-156.2194976807,0.0643126965,0.0441969857,0.0037908554,-115.7496490479,75.4117126465,31.8299713135,0.0278192759,0.0554607362,0.0244403481,-8.5574769974,83.0119705200,61.7683906555,0.0243098736,0.0217809379,0.0249423385,23.9579372406,56.2645988464,-48.4922027588,0.0762400627,0.0043808222,0.0176845789,
1957.363,-3.2045254707,1.3370682001,-156.2184143066,0.0589786544,0.0485609546,0.0033018589,-115.7271499634,75.3853988647,31.8457717896,0.0350277424,0.0598090291,0.0172186494,-8.5607290268,83.0126495361,61.7689819336,0.0218698978,0.0242272615,0.0220274031,23.9530334473,56.2624588013,-48.4940185547,0.0786607265,0.0049000382,0.0068951845,
1957.373,-3.2054948807,1.3364325762,-156.2166748047,0.0623855367,0.0368591137,0.0052557588,-115.6835937500,75.3644790649,31.8785648346,0.0320058465,0.0631391406,0.0235453248,-8.5738162994,83.0134887695,61.7573318481,0.0208951235,0.0232765377,0.0235098302,23.9478435516,56.2595748901,-48.4976730347,0.0752148032,0.0059055686,0.0087895393,
1957.383,-3.2085714340,1.3382540941,-156.2156372070,0.0580227859,0.0359361060,0.0072121024,-115.6321029663,75.3489837646,31.9203510284,0.0324257612,0.0659145415,0.0239406824,-8.6009531021,83.0130920410,61.7345046997,0.0272419453,0.0243118703,0.0279065371,23.9491729736,56.2601623535,-48.4936523438,0.0771735907,0.0054089427,-0.0024284124,
1957.393,-3.2109699249,1.3378077745,-156.2138061523,0.0575267188,0.0403724238,0.0077033043,-115.5772552490,75.3384170532,31.9694671631,0.0323790908,0.0617845803,0.0203800201,-8.6078395844,83.0138244629,61.7319145203,0.0199192762,0.0292074978,0.0308505595,23.9529361725,56.2641830444,-48.4878730774,0.0718414783,0.0024695992,-0.0057780743,
1957.403,-3.2121162415,1.3350635767,-156.2138366699,0.0633382052,0.0340448022,0.0145383477,-115.5247879028,75.3348541260,32.0194435120,0.0284571052,0.0736579001,0.0245903730,-8.6245517731,83.0165710449,61.7214584351,0.0267610550,0.0267947018,0.0162535012,23.9580421448,56.2659568787,-48.4803771973,0.0811360478,0.0043879747,-0.0003629923,
1957.413,-3.2110414505,1.3344236612,-156.2132873535,0.0643036067,0.0462331213,0.0052603483,-115.4697494507,75.3359680176,32.0769195557,0.0284620523,0.0727694631,0.0185024738,-8.6473426819,83.0155639648,61.7049484253,0.0257823467,0.0224511921,0.0221036673,23.9640083313,56.2645187378,-48.4743194580,0.0796572566,0.0048148334,0.0064767599,
1957.423,-3.2118175030,1.3357720375,-156.2121887207,0.0574911982,0.0418520831,0.0057494044,-115.4225006104,75.3383865356,32.1300392151,0.0362852216,0.0694044977,0.0178073645,-8.6644601822,83.0154495239,61.6934356689,0.0316414833,0.0249294043,0.0250364542,23.9710330963,56.2606658936,-48.4662132263,0.0791316032,0.0057064593,0.0088949203,
1957.433,-3.2104291916,1.3379980326,-156.2110137939,0.0546003506,0.0471989401,0.0116089582,-115.3885803223,75.3482894897,32.1724739075,0.0402352214,0.0678537190,0.0102756619,-8.6782636642,83.0153350830,61.6876564026,0.0252935886,0.0274004042,0.0240629315,23.9761371613,56.2580299377,-48.4589996338,0.0742232800,0.0105285645,0.0010679960,
1957.443,-3.2075486183,1.3398795128,-156.2092132568,0.0536566153,0.0481252782,0.0072119236,-115.3534622192,75.3595046997,32.2149734497,0.0407729745,0.0638424903,0.0144486427,-8.6991786957,83.0139389038,61.6753349304,0.0301734209,0.0240304470,0.0250236690,23.9765949249,56.2564964294,-48.4546165466,0.0786029100,0.0066092610,-0.0009036064,
1957.453,-3.2100985050,1.3399183750,-156.2081451416,0.0643994808,0.0398689136,0.0106325150,-115.3412780762,75.3779067993,32.2373275757,0.0330415964,0.0684705675,0.0142673254,-8.7106714249,83.0157318115,61.6734085083,0.0262709856,0.0235622227,0.0182196796,23.9755191803,56.2583389282,-48.4512825012,0.0747145414,0.0027233660,0.0000929832,
1957.463,-3.2114031315,1.3386511803,-156.2057189941,0.0604711212,0.0398916677,0.0062388182,-115.3472824097,75.3965835571,32.2427291870,0.0350769758,0.0681739151,0.0019498467,-8.6989870071,83.0131149292,61.6942863464,0.0228474736,0.0269617140,0.0298936367,23.9719104767,56.2582435608,-48.4483528137,0.0727605224,0.0032431185,0.0064252615,
1957.473,-3.2109427452,1.3361840248,-156.2044830322,0.0623811968,0.0418368354,0.0086787343,-115.3655090332,75.4128646851,32.2376022339,0.0366134048,0.0605681688,-0.0034657121,-8.7040061951,83.0169448853,61.6998481750,0.0262735486,0.0318456888,0.0162850916,23.9749221802,56.2564697266,-48.4415588379,0.0820206404,0.0061356425,0.0078785419,
1957.483,-3.2118928432,1.3335361481,-156.2020263672,0.0633115619,0.0389237553,0.0101435781,-115.3792495728,75.4348754883,32.2401809692,0.0391514897,0.0631373972,0.0174264312,-8.6935892105,83.0166244507,61.7221565247,0.0282260180,0.0264531374,0.0260427296,23.9787826538,56.2564620972,-48.4329109192,0.0800673962,0.0075661838,0.0034990311,
1957.493,-3.2100019455,1.3345245123,-156.1990661621,0.0613756813,0.0467032976,0.0091655850,-115.3985977173,75.4558715820,32.2379531860,0.0314310789,0.0583867729,0.0178402662,-8.6816911697,83.0192718506,61.7448043823,0.0282316208,0.0259327590,0.0226652324,23.9817123413,56.2568397522,-48.4265174866,0.0742117167,0.0016830266,0.0030270219,
1957.503,-3.2120223045,1.3347816467,-156.1985931396,0.0613801666,0.0374611355,0.0111207962,-115.4247970581,75.4751586914,32.2301826477,0.0383514762,0.0604857951,0.0158519745,-8.6787919998,83.0179824829,61.7602615356,0.0257874727,0.0210469365,0.0270384252,23.9831466675,56.2560272217,-48.4226226807,0.0702975988,0.0045953393,0.0098583698,
1957.513,-3.2109234333,1.3340965509,-156.1973876953,0.0603916496,0.0462310761,0.0077013969,-115.4635467529,75.4951171875,32.2101554871,0.0408802032,0.0591331571,0.0139082670,-8.6549663544,83.0132598877,61.7978057861,0.0306602716,0.0263794959,0.0289039612,23.9831714630,56.2534332275,-48.4193611145,0.0746669769,0.0075094104,0.0117765665,
1957.523,-3.2108321190,1.3340936899,-156.1962280273,0.0599033199,0.0428115129,0.0008649826,-115.5034408569,75.5087280273,32.1858177185,0.0384982824,0.0534797460,0.0095733404,-8.6414289474,83.0114135742,61.8228530884,0.0301680565,0.0204961002,0.0249616504,23.9827480316,56.2527580261,-48.4170303345,0.0766135454,0.0040912926,-0.0009288788,
1957.533,-3.2109999657,1.3346927166,-156.1938629150,0.0579606444,0.0418378636,-0.0015756488,-115.5390625000,75.5203475952,32.1651077271,0.0385490060,0.0522594452,0.0115832090,-8.6298265457,83.0103988647,61.8452644348,0.0243065357,0.0219388604,0.0249405205,23.9837646484,56.2555618286,-48.4135704041,0.0751758814,0.0036104321,-0.0087007284,
1957.543,-3.2111480236,1.3357468843,-156.1921081543,0.0565141961,0.0418404192,0.0062374473,-115.5766601563,75.5300064087,32.1402626038,0.0376145840,0.0476472527,0.0033608675,-8.6030406952,83.0091629028,61.8803024292,0.0218625069,0.0292091966,0.0205163658,23.9772510529,56.2560768127,-48.4158554077,0.0785988569,-0.0026763976,0.0073941946,
1957.553,-3.2131419182,1.3352274895,-156.1897888184,0.0643176287,0.0374806374,0.0072157979,-115.6133880615,75.5362091064,32.1130561829,0.0381299257,0.0484601855,0.0049256682,-8.5924854279,83.0056838989,61.8991050720,0.0238082409,0.0213829279,0.0243618190,23.9751071930,56.2559471130,-48.4150848389,0.0766444802,0.0002714992,0.0059187412,
1957.563,-3.2127254009,1.3357770443,-156.1880645752,0.0604209714,0.0438210256,0.0062389374,-115.6432266235,75.5367736816,32.0893211365,0.0405737758,0.0430237353,-0.0003316998,-8.5744705200,83.0087127686,61.9254684448,0.0272326469,0.0296378732,0.0200102627,23.9726276398,56.2588996887,-48.4123840332,0.0722785592,0.0003108978,-0.0018639565,
1957.573,-3.2135016918,1.3342944384,-156.1874389648,0.0608833842,0.0418814570,0.0067273974,-115.6659851074,75.5353622437,32.0727844238,0.0347082615,0.0473984480,0.0056278706,-8.5695838928,83.0088806152,61.9383392334,0.0228384733,0.0291385055,0.0244081318,23.9716987610,56.2612800598,-48.4103507996,0.0674188137,0.0013097227,-0.0033009052,
1957.583,-3.2142598629,1.3352035284,-156.1875305176,0.0565047152,0.0399415232,0.0013573170,-115.6793975830,75.5299682617,32.0623626709,0.0371261239,0.0464769304,0.0071850419,-8.5519714355,83.0125274658,61.9624557495,0.0199165344,0.0290919244,0.0166497827,23.9684085846,56.2631568909,-48.4089088440,0.0747612715,-0.0035328567,0.0040351152,
1957.593,-3.2143020630,1.3353571892,-156.1857910156,0.0618784875,0.0443367809,0.0081935525,-115.6814727783,75.5227890015,32.0622787476,0.0351417065,0.0490238369,0.0121283531,-8.5500144958,83.0112152100,61.9719619751,0.0272379518,0.0227433145,0.0244406462,23.9737720490,56.2649192810,-48.4019355774,0.0689189434,0.0047307014,0.0084736943,
1957.603,-3.2111017704,1.3361444473,-156.1851806641,0.0550562926,0.0472107008,0.0057492852,-115.6736984253,75.5109939575,32.0706901550,0.0306956768,0.0477524400,0.0073007941,-8.5563936234,83.0111312866,61.9725646973,0.0306557417,0.0237336457,0.0215118229,23.9814720154,56.2683029175,-48.3922576904,0.0757876635,0.0076121986,-0.0046338439,
1957.613,-3.2126779556,1.3353970051,-156.1840209961,0.0604143403,0.0369842686,0.0023325682,-115.6689224243,75.4942245483,32.0744094849,0.0345286727,0.0475275964,0.0030096173,-8.5585279465,83.0114135742,61.9762802124,0.0164961815,0.0252025425,0.0229800940,23.9859066010,56.2721748352,-48.3872909546,0.0699658394,0.0041776001,-0.0031015873,
1957.623,-3.2129445076,1.3366438150,-156.1828918457,0.0555532835,0.0394302867,0.0008685589,-115.6505203247,75.4776458740,32.0894241333,0.0349444151,0.0502554178,0.0079404712,-8.5607633591,83.0144424438,61.9783477783,0.0233385563,0.0281289518,0.0118045211,23.9837627411,56.2718582153,-48.3893203735,0.0758221149,0.0022416711,0.0022578239,
1957.633,-3.2116861343,1.3374763727,-156.1817626953,0.0589857772,0.0447794385,-0.0030390620,-115.6293563843,75.4626846313,32.1051521301,0.0373203158,0.0573587865,0.0152897239,-8.5793743134,83.0153121948,61.9643135071,0.0287114978,0.0242604017,0.0181703269,23.9857635498,56.2702484131,-48.3852844238,0.0772713423,0.0066089630,0.0081033707,
1957.643,-3.2103483677,1.3357571363,-156.1798553467,0.0574909374,0.0428030528,0.0013541579,-115.5896911621,75.4452133179,32.1375656128,0.0445679426,0.0533046424,0.0211186409,-8.5688314438,83.0124740601,61.9809837341,0.0228461027,0.0271745920,0.0347228348,23.9885215759,56.2717247009,-48.3824081421,0.0733794570,0.0075699091,0.0027631521,
1957.653,-3.2087500095,1.3330266476,-156.1786346436,0.0652557909,0.0437518321,0.0037922859,-115.5610733032,75.4317092896,32.1586036682,0.0308368206,0.0608876199,0.0147552490,-8.5642776489,83.0134048462,61.9914169312,0.0213832259,0.0261862576,0.0205745697,23.9887390137,56.2691078186,-48.3794708252,0.0836079717,0.0090173185,0.0085883141,
1957.663,-3.2093377113,1.3338580132,-156.1780548096,0.0550163947,0.0403440818,0.0096528530,-115.5194778442,75.4206390381,32.1957359314,0.0356709957,0.0650416315,0.0249239802,-8.5321331024,83.0116043091,62.0305328369,0.0252856612,0.0285637081,0.0283468664,23.9910888672,56.2685585022,-48.3742179871,0.0792081356,0.0114347339,0.0017547607,
1957.673,-3.2098371983,1.3331799507,-156.1762542725,0.0584225282,0.0383996740,0.0101413727,-115.4967422485,75.4063949585,32.2160453796,0.0321904421,0.0633472204,0.0112646222,-8.5336141586,83.0131454468,62.0359535217,0.0223592520,0.0266098380,0.0239788592,23.9935550690,56.2668952942,-48.3687744141,0.0743091702,0.0104264617,0.0090664625,
1957.683,-3.2079191208,1.3341462612,-156.1738586426,0.0569745488,0.0447138958,0.0072101355,-115.4817047119,75.3943710327,32.2290306091,0.0306726694,0.0640470088,0.0127565861,-8.5423536301,83.0146026611,62.0348014832,0.0282217264,0.0217417479,0.0205899179,23.9945316315,56.2661476135,-48.3640632629,0.0708839893,0.0084602833,0.0085720420,
1957.693,-3.2102885246,1.3321735859,-156.1739044189,0.0623112246,0.0364544392,0.0023288727,-115.4709396362,75.3888397217,32.2441024780,0.0238124132,0.0695225447,0.0127536058,-8.5342588425,83.0171356201,62.0506591797,0.0257856846,0.0270895064,0.0191625953,23.9941482544,56.2676887512,-48.3615150452,0.0713872313,0.0026134253,0.0066379309,
1957.703,-3.2110357285,1.3348330259,-156.1716308594,0.0574748144,0.0418384820,0.0072131753,-115.4620361328,75.3810729980,32.2571640015,0.0286610126,0.0579390526,0.0083796978,-8.5557165146,83.0180892944,62.0359954834,0.0194400549,0.0222495496,0.0182123482,23.9952526093,56.2676620483,-48.3573760986,0.0728517771,0.0079745650,0.0076184869,
1957.713,-3.2103884220,1.3354554176,-156.1698913574,0.0579739548,0.0403623506,0.0047717690,-115.4618835449,75.3768768311,32.2633171082,0.0359667540,0.0623975396,0.0069445968,-8.5452957153,83.0193786621,62.0561256409,0.0257904530,0.0261307657,0.0216450989,23.9984664917,56.2679824829,-48.3510513306,0.0757845640,0.0035535097,0.0022643805,
1957.723,-3.2098886967,1.3356287479,-156.1681213379,0.0618832298,0.0462130159,0.0101423860,-115.4591217041,75.3779373169,32.2726402283,0.0374362469,0.0609216839,0.0088790655,-8.5224676132,83.0184326172,62.0863265991,0.0213938951,0.0275490582,0.0313908160,23.9971466064,56.2675285339,-48.3481025696,0.0738270283,0.0035624802,0.0095773935,
1957.733,-3.2111933231,1.3378366232,-156.1677093506,0.0589920655,0.0398880430,0.0160040259,-115.4531402588,75.3833618164,32.2839279175,0.0389249921,0.0632920861,0.0210229158,-8.5226831436,83.0196609497,62.0938339233,0.0257910490,0.0251051486,0.0206679702,23.9963607788,56.2658653259,-48.3459587097,0.0767406225,0.0128369629,0.0129702091,
1957.743,-3.2104325294,1.3389878273,-156.1678161621,0.0580355898,0.0408513173,0.0086795092,-115.4666900635,75.3909149170,32.2791824341,0.0384699702,0.0611982197,0.0053974390,-8.4955663681,83.0194702148,62.1291198730,0.0160250068,0.0299307704,0.0284685194,23.9925575256,56.2635536194,-48.3444023132,0.0806244612,0.0040679872,0.0031590462,
1957.753,-3.2072007656,1.3381050825,-156.1665344238,0.0589967482,0.0515372269,0.0091639161,-115.4824981689,75.4004211426,32.2729682922,0.0326524377,0.0644419044,0.0127159953,-8.4922513962,83.0167999268,62.1412696838,0.0326209068,0.0230945647,0.0264688432,23.9904880524,56.2662925720,-48.3422241211,0.0747916102,0.0060555339,-0.0095083714,
1957.763,-3.2067635059,1.3387062550,-156.1635437012,0.0585189573,0.0437170975,0.0116053224,-115.5087661743,75.4122543335,32.2583312988,0.0317279100,0.0661657751,0.0073639154,-8.4877185822,83.0127029419,62.1537132263,0.0233348608,0.0289544463,0.0303058624,23.9855804443,56.2680702209,-48.3425254822,0.0752971172,-0.0021913052,0.0007496476,
1957.773,-3.2085518837,1.3397158384,-156.1630554199,0.0585365705,0.0383771360,0.0052598119,-115.5321273804,75.4224700928,32.2469406128,0.0337259173,0.0625482649,0.0015234947,-8.4835729599,83.0144119263,62.1661109924,0.0262681842,0.0294298232,0.0151946545,23.9856243134,56.2661476135,-48.3385353088,0.0830910206,0.0026799142,0.0002365112,
1957.783,-3.2086608410,1.3384100199,-156.1612396240,0.0604669154,0.0398439057,0.0057477951,-115.5357589722,75.4348754883,32.2547378540,0.0332921147,0.0599114299,0.0175612569,-8.4598884583,83.0127029419,62.2015037537,0.0233348608,0.0313365757,0.0215079188,23.9842147827,56.2657318115,-48.3390274048,0.0694150925,0.0026898384,0.0031545162,
1957.793,-3.2080104351,1.3371100426,-156.1600341797,0.0623973571,0.0447154194,0.0037934780,-115.5504531860,75.4486465454,32.2495346069,0.0328642726,0.0626036823,0.0136135817,-8.4664440155,83.0122528076,62.2038764954,0.0257753134,0.0201211870,0.0215024650,23.9815597534,56.2625808716,-48.3387489319,0.0732908249,0.0026948154,0.0123798847,
1957.803,-3.2068614960,1.3354480267,-156.1581115723,0.0574855432,0.0442071594,0.0072097182,-115.5577926636,75.4582824707,32.2506027222,0.0407189727,0.0551203936,0.0130844116,-8.4669809341,83.0105361938,62.2122840881,0.0247951150,0.0240331590,0.0224480033,23.9835968018,56.2608795166,-48.3340606689,0.0688797832,0.0104792714,0.0060179234,
1957.813,-3.2079746723,1.3341474533,-156.1575775146,0.0642987862,0.0408086143,0.0008626580,-115.5717544556,75.4669113159,32.2456245422,0.0314794779,0.0530082434,0.0062412024,-8.4639587402,83.0105361938,62.2227478027,0.0238185525,0.0259793997,0.0180561841,23.9796428680,56.2576255798,-48.3336639404,0.0795904398,0.0036591887,0.0084006786,
1957.823,-3.2077250481,1.3327332735,-156.1569671631,0.0608561449,0.0432456993,0.0125805140,-115.5866699219,75.4709777832,32.2381668091,0.0329620838,0.0563382208,0.0057826042,-8.4724845886,83.0091094971,62.2226371765,0.0306514502,0.0225837529,0.0268190503,23.9766960144,56.2579078674,-48.3324584961,0.0737338066,0.0036869347,0.0035098791,
1957.833,-3.2084949017,1.3315392733,-156.1557769775,0.0623001568,0.0417942926,0.0111159086,-115.6066665649,75.4752502441,32.2251281738,0.0363987684,0.0601404607,0.0087605715,-8.4690256119,83.0090484619,62.2347412109,0.0301630497,0.0245291889,0.0194967091,23.9772300720,56.2604293823,-48.3280220032,0.0688754320,0.0056501329,0.0054981709,
1957.843,-3.2087044716,1.3305232525,-156.1557464600,0.0569113344,0.0417979695,0.0042796731,-115.6087417603,75.4793930054,32.2313842773,0.0315340757,0.0576329827,0.0165511966,-8.4654855728,83.0063247681,62.2485313416,0.0262510180,0.0215990841,0.0301893353,23.9862937927,56.2637672424,-48.3164787292,0.0713492036,0.0080310106,-0.0007688999,
1957.853,-3.2089171410,1.3298079967,-156.1558227539,0.0622699447,0.0418016873,0.0042798519,-115.6245117188,75.4764328003,32.2249183655,0.0393336415,0.0527644753,0.0097993612,-8.4712409973,83.0080413818,62.2515220642,0.0243015289,0.0216066837,0.0224108100,23.9936370850,56.2656593323,-48.3069114685,0.0747855306,0.0055356324,0.0041672587,
1957.863,-3.2091686726,1.3279035091,-156.1552581787,0.0646781176,0.0393647105,0.0111151338,-115.6221160889,75.4732437134,32.2342224121,0.0402962565,0.0567233860,0.0195785165,-8.4633255005,83.0084838867,62.2684288025,0.0262556076,0.0264719427,0.0263182819,23.9952926636,56.2667617798,-48.2998771667,0.0752844214,0.0016211569,0.0115125179,
1957.873,-3.2082161903,1.3267310858,-156.1528320313,0.0602631308,0.0413012728,0.0096489787,-115.6159820557,75.4679641724,32.2482070923,0.0329489112,0.0533975810,0.0151982307,-8.4596300125,83.0097503662,62.2814331055,0.0223520398,0.0235307515,0.0268306136,23.9979534149,56.2657356262,-48.2941322327,0.0694151521,0.0064744651,0.0095569491,
1957.883,-3.2093634605,1.3262697458,-156.1523132324,0.0617199279,0.0383915789,0.0101379156,-115.5946731567,75.4610824585,32.2723464966,0.0304773450,0.0506126583,0.0205347538,-8.4567012787,83.0107345581,62.2927894592,0.0277252197,0.0264522135,0.0156117082,23.9958477020,56.2642173767,-48.2922706604,0.0723301172,0.0035544336,0.0080632567,
1957.893,-3.2087869644,1.3247557878,-156.1518096924,0.0670646057,0.0403346978,-0.0015817881,-115.5870666504,75.4524841309,32.2827568054,0.0358107686,0.0556404442,0.0078716874,-8.4619884491,83.0083770752,62.2956237793,0.0272319317,0.0215862989,0.0272946954,23.9910793304,56.2630233765,-48.2930908203,0.0732951164,-0.0027579367,0.0085175037,
1957.903,-3.2074999809,1.3250951767,-156.1500701904,0.0612111501,0.0447067991,0.0076944232,-115.5886383057,75.4421920776,32.2840347290,0.0333242416,0.0513988286,0.0001402497,-8.4607324600,83.0087966919,62.3051605225,0.0262562633,0.0235357285,0.0253479481,23.9827785492,56.2622795105,-48.2978935242,0.0684050918,-0.0002474785,0.0089625716,
1957.913,-3.2101702690,1.3273539543,-156.1490173340,0.0563677512,0.0374290459,0.0033034086,-115.5815048218,75.4369735718,32.2903099060,0.0347661972,0.0568627119,0.0157747269,-8.4479198456,83.0095520020,62.3248977661,0.0272344351,0.0259477496,0.0243816972,23.9795703888,56.2647705078,-48.2980384827,0.0689175129,-0.0060636997,0.0045887828,
1957.923,-3.2094621658,1.3279026747,-156.1472015381,0.0563773252,0.0447409153,0.0135568380,-115.5674667358,75.4279632568,32.3042259216,0.0327734947,0.0482377410,0.0138311386,-8.4631881714,83.0096130371,62.3143959045,0.0223517418,0.0210977495,0.0180361867,23.9824790955,56.2654113770,-48.2926483154,0.0742948055,0.0090509951,0.0080262423,
1957.933,-3.2085840702,1.3294202089,-156.1460571289,0.0549389608,0.0432607345,0.0116034150,-115.5494155884,75.4213256836,32.3196525574,0.0356740355,0.0556964129,0.0084365606,-8.4726915359,83.0106506348,62.3117370605,0.0243070722,0.0230681896,0.0180596709,23.9856891632,56.2677726746,-48.2882537842,0.0738294125,0.0041536689,-0.0021833181,
1957.943,-3.2073304653,1.3293110132,-156.1448822021,0.0603081472,0.0447037518,0.0018365979,-115.5264434814,75.4178771973,32.3422203064,0.0307760835,0.0596986115,0.0181357265,-8.4762783051,83.0075912476,62.3150024414,0.0252771378,0.0255249143,0.0282631218,23.9806556702,56.2648124695,-48.2898712158,0.0723358989,-0.0011902750,0.0065467358,
1957.953,-3.2079207897,1.3294047117,-156.1437377930,0.0598215014,0.0403195024,0.0081847310,-115.5287399292,75.4149703979,32.3410263062,0.0346695185,0.0646212250,0.0049823523,-8.4631090164,83.0059356689,62.3331756592,0.0267384648,0.0323371887,0.0267640054,23.9814434052,56.2606506348,-48.2869491577,0.0781549215,0.0104970038,0.0030767918,
1957.963,-3.2086420059,1.3292384148,-156.1431427002,0.0583537593,0.0442383215,0.0047674775,-115.5220947266,75.4146804810,32.3467178345,0.0361331105,0.0680570006,0.0142354369,-8.4718170166,83.0056610107,62.3302688599,0.0262495875,0.0201492310,0.0223691463,23.9790554047,56.2606048584,-48.2862052917,0.0737599134,0.0031936765,-0.0023043156,
1957.973,-3.2078874111,1.3309942484,-156.1408081055,0.0564312711,0.0427602828,0.0096502900,-115.5156097412,75.4122772217,32.3544349670,0.0346577168,0.0588276684,0.0127621293,-8.4945993423,83.0049591064,62.3157272339,0.0291777849,0.0192229450,0.0165057182,23.9768562317,56.2574157715,-48.2847404480,0.0737290382,0.0075888336,0.0137575269,
1957.983,-3.2067668438,1.3300356865,-156.1376953125,0.0573911071,0.0461587571,0.0067191124,-115.5130538940,75.4118347168,32.3604621887,0.0341674685,0.0607940555,0.0098254085,-8.5025701523,83.0052871704,62.3152694702,0.0286902189,0.0255867839,0.0204199553,23.9783725739,56.2573890686,-48.2807350159,0.0747053027,0.0070869625,0.0064393282,
1957.993,-3.2090253830,1.3300685883,-156.1359405518,0.0559268333,0.0300848186,0.0101392865,-115.5101852417,75.4109268188,32.3679847717,0.0380697250,0.0578823984,0.0151916742,-8.4906425476,83.0083770752,62.3368186951,0.0243022442,0.0236004293,0.0194919109,23.9768562317,56.2556724548,-48.2780761719,0.0800597668,0.0080668628,0.0103168488,
1958.003,-3.2085018158,1.3299437761,-156.1341400146,0.0583660640,0.0442358591,0.0023261905,-115.5169448853,75.4151840210,32.3675460815,0.0341821909,0.0631760657,0.0181174278,-8.5032644272,83.0110168457,62.3337097168,0.0189367533,0.0255740881,0.0185614526,23.9735412598,56.2587394714,-48.2772178650,0.0756949782,0.0003018379,-0.0028392076,
1958.013,-3.2079551220,1.3291240931,-156.1342163086,0.0627462938,0.0422732234,0.0072082281,-115.5348434448,75.4142150879,32.3576087952,0.0375959277,0.0577850342,0.0035473704,-8.4813776016,83.0121917725,62.3661956787,0.0208923817,0.0294305682,0.0205289721,23.9734592438,56.2596931458,-48.2725105286,0.0674034357,0.0066558123,0.0020558834,
1958.023,-3.2061755657,1.3299818039,-156.1337280273,0.0612964183,0.0422421992,0.0076951981,-115.5290908813,75.4160079956,32.3727607727,0.0356506705,0.0563045442,0.0225543380,-8.4729747772,83.0104522705,62.3840141296,0.0204004049,0.0259990990,0.0234265029,23.9666805267,56.2573585510,-48.2724876404,0.0751932859,0.0003544688,0.0107871890,
1958.033,-3.2060320377,1.3268365860,-156.1330871582,0.0646595061,0.0407749340,0.0091586113,-115.5375366211,75.4183273315,32.3735618591,0.0385905504,0.0577178001,0.0084110498,-8.4616136551,83.0125808716,62.4061088562,0.0243111849,0.0254810452,0.0161363184,23.9644718170,56.2553901672,-48.2699737549,0.0751742125,0.0120812058,0.0097758770,
1958.043,-3.2061307430,1.3255772591,-156.1318664551,0.0602429993,0.0441946499,0.0072047114,-115.5545272827,75.4208145142,32.3656997681,0.0371366143,0.0610658824,0.0079724193,-8.4569921494,83.0125808716,62.4197158813,0.0267525911,0.0269365907,0.0234545171,23.9659309387,56.2572059631,-48.2652282715,0.0693324804,0.0047547817,0.0024815798,
1958.053,-3.2062661648,1.3258584738,-156.1313476563,0.0612244681,0.0398024693,0.0091587305,-115.5614013672,75.4229507446,32.3683586121,0.0356811285,0.0536967218,0.0133553147,-8.4585847855,83.0114898682,62.4255065918,0.0262619853,0.0235242844,0.0209992528,23.9648952484,56.2566604614,-48.2632446289,0.0781162381,0.0076903999,0.0029585361,
1958.063,-3.2078046799,1.3258938789,-156.1301727295,0.0553657115,0.0393409878,-0.0035356283,-115.5687179565,75.4268646240,32.3682136536,0.0381397605,0.0526454300,0.0079848766,-8.4468097687,83.0092697144,62.4444427490,0.0262572765,0.0239932835,0.0287684202,23.9703025818,56.2561607361,-48.2557525635,0.0776231289,0.0066630542,0.0005319118,
1958.073,-3.2069306374,1.3287390471,-156.1278228760,0.0524856709,0.0432319455,0.0052539110,-115.5760574341,75.4274902344,32.3669586182,0.0308182836,0.0516464114,0.0075212717,-8.4396305084,83.0100555420,62.4583625793,0.0257706642,0.0298351347,0.0219456255,23.9728145599,56.2570381165,-48.2505035400,0.0717722178,0.0066458881,0.0064128637,
1958.083,-3.2055029869,1.3285596371,-156.1284637451,0.0583419129,0.0432070866,0.0101352334,-115.5673675537,75.4289855957,32.3798942566,0.0332662463,0.0496869087,0.0118705034,-8.4469461441,83.0098953247,62.4587783813,0.0291882753,0.0235037506,0.0224310458,23.9738826752,56.2560806274,-48.2457733154,0.0766457915,0.0046777129,0.0078693628,
1958.093,-3.2057390213,1.3278071880,-156.1290283203,0.0558873750,0.0417463668,0.0047641397,-115.5636825562,75.4334793091,32.3867340088,0.0371922255,0.0554856360,0.0118230581,-8.4492692947,83.0117721558,62.4632301331,0.0277274251,0.0264333189,0.0151424706,23.9790573120,56.2575607300,-48.2376480103,0.0747069716,0.0080584586,-0.0028332472,
1958.103,-3.2075264454,1.3272818327,-156.1291046143,0.0592961758,0.0364064239,-0.0006054640,-115.5657806396,75.4339752197,32.3896331787,0.0298702121,0.0540084541,0.0064567924,-8.4489831924,83.0107879639,62.4723091125,0.0233308077,0.0288769007,0.0287948847,23.9760227203,56.2565574646,-48.2384529114,0.0703027248,0.0027083457,0.0049538612,
1958.113,-3.2078518867,1.3266202211,-156.1285705566,0.0641674474,0.0456894524,-0.0001171827,-115.5630493164,75.4358215332,32.3961181641,0.0328080058,0.0530092418,0.0093622208,-8.4417476654,83.0071945190,62.4869308472,0.0262528658,0.0259405077,0.0301991701,23.9743442535,56.2545051575,-48.2379913330,0.0780953169,0.0046642423,0.0049201250,
1958.123,-3.2068138123,1.3257509470,-156.1255035400,0.0592694655,0.0437182635,0.0081822276,-115.5545425415,75.4358444214,32.4101943970,0.0376908779,0.0559548438,0.0151874423,-8.4621877670,83.0042495728,62.4747467041,0.0242934823,0.0211089849,0.0296649635,23.9712715149,56.2532501221,-48.2356147766,0.0834542513,0.0007779002,0.0039150715,
1958.133,-3.2074911594,1.3250821829,-156.1224822998,0.0582812354,0.0378707089,-0.0001181364,-115.5561294556,75.4329605103,32.4141960144,0.0371899605,0.0569721907,0.0093554258,-8.4471664429,83.0023193359,62.4971084595,0.0272190571,0.0279174149,0.0291421711,23.9736175537,56.2539749146,-48.2308120728,0.0776019096,0.0066207349,0.0034456849,
1958.143,-3.2073152065,1.3244106770,-156.1212921143,0.0602226444,0.0451918691,0.0042760372,-115.5549240112,75.4285507202,32.4202728271,0.0337526202,0.0550884604,0.0020584464,-8.4427843094,83.0023193359,62.5116691589,0.0223362446,0.0274201334,0.0218133926,23.9729309082,56.2543296814,-48.2279510498,0.0683280230,0.0061405897,0.0054004192,
1958.153,-3.2088661194,1.3258509636,-156.1215057373,0.0612243377,0.0349649563,0.0062313080,-115.5428314209,75.4278640747,32.4380264282,0.0332613587,0.0619581044,0.0186166763,-8.4353723526,83.0041122437,62.5283012390,0.0208752155,0.0273994505,0.0213564336,23.9709873199,56.2559547424,-48.2256813049,0.0751796961,0.0007963479,0.0039498806,
1958.163,-3.2077789307,1.3258996010,-156.1203613281,0.0622017495,0.0461764820,0.0101364255,-115.5361785889,75.4238662720,32.4489822388,0.0337320566,0.0547060370,0.0108069777,-8.4432106018,83.0073089600,62.5294303894,0.0267413855,0.0254552066,0.0135987401,23.9722347260,56.2564964294,-48.2215881348,0.0786029100,0.0003001690,-0.0033624172,
1958.173,-3.2099380493,1.3254339695,-156.1204528809,0.0612170622,0.0393781662,-0.0006042719,-115.5301437378,75.4203491211,32.4589462280,0.0361580253,0.0567246825,0.0108083487,-8.4649019241,83.0055160522,62.5171737671,0.0218547583,0.0196466446,0.0257819593,23.9730625153,56.2559623718,-48.2168273926,0.0727383494,0.0051724911,0.0039579868,
1958.183,-3.2108209133,1.3257614374,-156.1199188232,0.0587813705,0.0393935405,0.0052564740,-115.5277633667,75.4163665771,32.4652252197,0.0356522202,0.0587428808,0.0093629360,-8.4726285934,83.0058746338,62.5176048279,0.0218555331,0.0260098875,0.0213957131,23.9744262695,56.2540473938,-48.2118148804,0.0756494403,0.0046608448,0.0068676472,
1958.193,-3.2103056908,1.3256759644,-156.1193542480,0.0602447204,0.0442673825,0.0057443380,-115.5263977051,75.4129714966,32.4708633423,0.0278248191,0.0509846061,0.0088937879,-8.4711799622,83.0084609985,62.5278434753,0.0267438293,0.0269768536,0.0180210769,23.9754028320,56.2558784485,-48.2094154358,0.0732258558,0.0061278343,0.0020130277,
1958.203,-3.2102472782,1.3248945475,-156.1181640625,0.0587662458,0.0403601266,0.0130681396,-115.5191879272,75.4119873047,32.4816055298,0.0385626554,0.0646847337,0.0196143985,-8.4762773514,83.0083770752,62.5303230286,0.0228374004,0.0245465636,0.0229037106,23.9735279083,56.2591514587,-48.2070541382,0.0732575655,0.0012809038,-0.0033222437,
1958.213,-3.2097349167,1.3246258497,-156.1181793213,0.0587615557,0.0442574583,0.0096491575,-115.5356216431,75.4081344604,32.4690322876,0.0365926027,0.0578768551,0.0011531711,-8.4651126862,83.0075378418,62.5484504700,0.0326012373,0.0264779925,0.0248392522,23.9715156555,56.2607727051,-48.2060165405,0.0766912699,-0.0021096468,0.0015741587,
1958.223,-3.2107889652,1.3267763853,-156.1177062988,0.0568459518,0.0408578031,0.0101400614,-115.5361938477,75.4065475464,32.4718170166,0.0336559415,0.0608289093,0.0163035989,-8.4662961960,83.0060729980,62.5547065735,0.0262504816,0.0255074501,0.0248164237,23.9719409943,56.2603530884,-48.2038993835,0.0786403418,0.0052082837,0.0044998527,
1958.233,-3.2122423649,1.3267073631,-156.1172485352,0.0622158460,0.0374651551,0.0028163195,-115.5371093750,75.4046783447,32.4718475342,0.0365774035,0.0593907088,0.0055785775,-8.4536495209,83.0055160522,62.5742225647,0.0223430395,0.0293881595,0.0277324319,23.9736442566,56.2606391907,-48.1991462708,0.0747368336,0.0032417774,0.0045104027,
1958.243,-3.2130720615,1.3291550875,-156.1172943115,0.0510280840,0.0418740921,-0.0030403733,-115.5330810547,75.4033966064,32.4781341553,0.0355952382,0.0564886481,0.0153373480,-8.4650020599,83.0079574585,62.5718154907,0.0262544751,0.0215937793,0.0199642777,23.9738769531,56.2600822449,-48.1966819763,0.0752197504,0.0071427226,0.0069456100,
1958.253,-3.2127492428,1.3290339708,-156.1173553467,0.0603033155,0.0457747132,0.0072126985,-115.5408020020,75.4042739868,32.4734306335,0.0312045217,0.0603658557,0.0075495243,-8.4799308777,83.0079803467,62.5656280518,0.0277193785,0.0230903327,0.0253409445,23.9711818695,56.2588462830,-48.1970672607,0.0776491165,0.0017881691,0.0030121803,
1958.263,-3.2119636536,1.3297899961,-156.1161956787,0.0578751005,0.0428313240,0.0194193125,-115.5500717163,75.4060668945,32.4694366455,0.0400015116,0.0661816746,0.0080615878,-8.4852180481,83.0068588257,62.5678215027,0.0247873068,0.0260340869,0.0302066207,23.9691638947,56.2578964233,-48.1950569153,0.0756868124,0.0042418838,0.0010386705,
1958.273,-3.2122874260,1.3283020258,-156.1155853271,0.0607788265,0.0413721614,0.0033057928,-115.5545806885,75.4059524536,32.4705543518,0.0370712876,0.0583611578,0.0071038604,-8.4906501770,83.0055694580,62.5680465698,0.0286908150,0.0250724256,0.0238384902,23.9674568176,56.2557792664,-48.1943092346,0.0737131834,0.0042445660,0.0078397989,
1958.283,-3.2134885788,1.3294368982,-156.1138305664,0.0564040951,0.0423696190,0.0116083026,-115.5498123169,75.4089889526,32.4810218811,0.0351315141,0.0617427826,0.0143871307,-8.4922456741,83.0040588379,62.5741195679,0.0238047838,0.0211733878,0.0277197361,23.9624519348,56.2536926270,-48.1952934265,0.0766226053,-0.0001178980,0.0073042512,
1958.293,-3.2130300999,1.3295675516,-156.1138610840,0.0593360625,0.0462678783,0.0047719479,-115.5489425659,75.4093399048,32.4860572815,0.0331799388,0.0553911626,0.0124279261,-8.4868955612,83.0022125244,62.5864868164,0.0272188187,0.0236081183,0.0267096460,23.9571056366,56.2523155212,-48.1964263916,0.0766092539,-0.0015434623,0.0072648525,
1958.303,-3.2155725956,1.3279268742,-156.1120758057,0.0617488399,0.0355700292,0.0086799264,-115.5434341431,75.4123764038,32.4952430725,0.0380761027,0.0607270002,0.0158019662,-8.4825220108,83.0020675659,62.5990715027,0.0252653956,0.0245757103,0.0296355486,23.9573497772,56.2523574829,-48.1918945313,0.0707502961,0.0091967881,0.0009187460,
1958.313,-3.2152335644,1.3249589205,-156.1096801758,0.0690212697,0.0433766767,0.0164909363,-115.5385742188,75.4131240845,32.5053710938,0.0400325060,0.0621894598,0.0113825202,-8.4805603027,83.0044250488,62.6091575623,0.0203875899,0.0289601386,0.0218620598,23.9575710297,56.2510337830,-48.1884651184,0.0775734186,0.0047925413,0.0048081875,
1958.323,-3.2136578560,1.3257247210,-156.1078796387,0.0573158823,0.0457906201,-0.0001116991,-115.5295715332,75.4162368774,32.5212135315,0.0302805901,0.0592295974,0.0162068605,-8.4719762802,83.0070877075,62.6269454956,0.0247877836,0.0323529840,0.0204405487,23.9619274139,56.2519645691,-48.1813659668,0.0785589814,0.0057359338,-0.0000450015,
1958.333,-3.2124252319,1.3249530792,-156.1079406738,0.0621852353,0.0447926037,-0.0030434132,-115.5318374634,75.4164428711,32.5262718201,0.0341877341,0.0592220724,0.0123082399,-8.4623460770,83.0046768188,62.6440200806,0.0282006264,0.0274556577,0.0369985700,23.9644184113,56.2534637451,-48.1741943359,0.0732024312,0.0066992342,0.0038903356,
1958.343,-3.2128355503,1.3232523203,-156.1061706543,0.0641086847,0.0408935435,0.0086754560,-115.5404281616,75.4165802002,32.5250511169,0.0327234864,0.0548096746,-0.0013304353,-8.4508085251,83.0051269531,62.6633338928,0.0199007988,0.0254771113,0.0208866596,23.9665508270,56.2560768127,-48.1675109863,0.0732277632,-0.0011166930,0.0024694204,
1958.353,-3.2155437469,1.3221433163,-156.1049957275,0.0596948043,0.0350813679,0.0067245960,-115.5399932861,75.4167327881,32.5340652466,0.0351655483,0.0577380061,0.0133152604,-8.4593639374,83.0074234009,62.6641273499,0.0233236551,0.0230477750,0.0140956938,23.9704151154,56.2592086792,-48.1625785828,0.0737464428,0.0042385757,0.0044788122,
1958.363,-3.2161822319,1.3212443590,-156.1055908203,0.0587025546,0.0424167328,0.0096544027,-115.5400848389,75.4143676758,32.5398559570,0.0400379896,0.0524017960,0.0035670400,-8.4604578018,83.0077590942,62.6714210510,0.0238126516,0.0245145559,0.0243517756,23.9765338898,56.2612800598,-48.1552886963,0.0820672512,0.0056614280,0.0030659437,
1958.373,-3.2162616253,1.3215591908,-156.1057128906,0.0611494482,0.0399766974,0.0135609508,-115.5323715210,75.4159164429,32.5529861450,0.0376033783,0.0567875206,0.0167087317,-8.4638185501,83.0093917847,62.6772613525,0.0238161087,0.0269586444,0.0229188502,23.9821453094,56.2629241943,-48.1479110718,0.0820832253,0.0041564703,-0.0003087521,
1958.383,-3.2176461220,1.3242394924,-156.1040954590,0.0597313754,0.0395124815,0.0160048008,-115.5365753174,75.4134292603,32.5528678894,0.0336862206,0.0548646897,0.0020951033,-8.4567203522,83.0094680786,62.6920814514,0.0291873813,0.0254786909,0.0224277377,23.9836063385,56.2648468018,-48.1437072754,0.0738010406,0.0046431124,0.0046054125,
1958.393,-3.2170307636,1.3221981525,-156.1023101807,0.0650668517,0.0424314924,0.0028193593,-115.5414581299,75.4151000977,32.5527610779,0.0375998020,0.0621539503,0.0045437217,-8.4422235489,83.0110931396,62.7149925232,0.0145424008,0.0234905481,0.0195212662,23.9818878174,56.2647705078,-48.1418190002,0.0752651691,0.0027047992,0.0006912947,
1958.403,-3.2193577290,1.3233162165,-156.1024322510,0.0582504235,0.0385657586,0.0116118193,-115.5451126099,75.4139480591,32.5525093079,0.0380830169,0.0577698350,0.0128675699,-8.4383878708,83.0106811523,62.7281532288,0.0243071318,0.0288544893,0.0180484056,23.9847774506,56.2672882080,-48.1346855164,0.0669887662,0.0066002905,-0.0031698942,
1958.413,-3.2194321156,1.3217668533,-156.1012268066,0.0635944828,0.0463795848,0.0120990276,-115.5510330200,75.4136276245,32.5523376465,0.0356401801,0.0597172678,0.0075223446,-8.4175252914,83.0115737915,62.7583618164,0.0316332579,0.0302725732,0.0219637156,23.9830265045,56.2657165527,-48.1316795349,0.0782039762,-0.0007177591,-0.0017333031,
1958.423,-3.2200412750,1.3215031624,-156.1012573242,0.0587070696,0.0424839519,0.0086818337,-115.5632858276,75.4108276367,32.5476264954,0.0366044641,0.0563179553,0.0027086735,-8.4183740616,83.0105895996,62.7662467957,0.0238186717,0.0263706744,0.0282944143,23.9849166870,56.2667732239,-48.1263809204,0.0723549128,0.0036663711,0.0002418756,
1958.433,-3.2202086449,1.3223835230,-156.1008300781,0.0611638352,0.0376040414,0.0062408447,-115.5683135986,75.4062728882,32.5483131409,0.0360961556,0.0529595166,0.0042266250,-8.4211664200,83.0103988647,62.7734794617,0.0218651295,0.0244239271,0.0278041661,23.9860877991,56.2684478760,-48.1221580505,0.0733476877,0.0026893020,-0.0041258335,
1958.443,-3.2194180489,1.3220715523,-156.0990295410,0.0592052676,0.0429613665,0.0077047348,-115.5722198486,75.4040527344,32.5504722595,0.0346215367,0.0529858321,0.0086528659,-8.4135847092,83.0099487305,62.7903556824,0.0262587070,0.0283150971,0.0243766308,23.9871616364,56.2669754028,-48.1200294495,0.0782162547,0.0021828413,0.0061128139,
1958.453,-3.2196733952,1.3226970434,-156.0972442627,0.0557982139,0.0415009558,0.0037989616,-115.5696868896,75.4005203247,32.5583572388,0.0336294174,0.0549975336,0.0047622919,-8.4181566238,83.0133666992,62.7959098816,0.0238245726,0.0253866911,0.0175991952,23.9915618896,56.2667617798,-48.1128883362,0.0791906714,0.0050722063,-0.0011972785,
1958.463,-3.2210006714,1.3238774538,-156.0973663330,0.0577719361,0.0400592089,0.0038007498,-115.5687332153,75.3961868286,32.5629653931,0.0360517502,0.0521356016,0.0096726418,-8.4257802963,83.0179214478,62.7965583801,0.0233459473,0.0239267051,0.0113309026,23.9923210144,56.2650985718,-48.1096687317,0.0786862969,0.0070088208,0.0080611110,
1958.473,-3.2197082043,1.3237996101,-156.0974426270,0.0621651076,0.0449195132,0.0037996173,-115.5765228271,75.3942642212,32.5577087402,0.0379964709,0.0594735146,0.0058113933,-8.4283142090,83.0165710449,62.8036270142,0.0277376175,0.0195409060,0.0244927108,23.9946041107,56.2646217346,-48.1054992676,0.0752637386,0.0104037821,0.0051341653,
1958.483,-3.2189602852,1.3247332573,-156.0963897705,0.0612048358,0.0385587998,0.0091702938,-115.5651855469,75.3959808350,32.5720138550,0.0375156999,0.0609341711,0.0199139118,-8.4218645096,83.0169067383,62.8165016174,0.0213906765,0.0248974860,0.0244958997,23.9988193512,56.2611923218,-48.1009368896,0.0845078230,0.0108344555,0.0094997287,
1958.493,-3.2190582752,1.3245775700,-156.0946502686,0.0626669675,0.0463730134,0.0003812313,-115.5608673096,75.3944549561,32.5796813965,0.0379973054,0.0599886924,0.0101419687,-8.4238433838,83.0153884888,62.8214416504,0.0213874578,0.0249055028,0.0259357095,23.9996604919,56.2584266663,-48.0987358093,0.0795981884,0.0088575482,0.0075132847,
1958.503,-3.2186577320,1.3249566555,-156.0940551758,0.0563259199,0.0439246185,0.0008692741,-115.5586547852,75.3950271606,32.5862121582,0.0360466838,0.0580312610,0.0120822787,-8.4130172729,83.0147781372,62.8398208618,0.0262689590,0.0287903547,0.0273856223,24.0000514984,56.2595291138,-48.0944747925,0.0708198547,0.0093489885,0.0046002865,
1958.513,-3.2178375721,1.3266065121,-156.0929565430,0.0583078340,0.0453751385,-0.0020604730,-115.5626525879,75.3937377930,32.5866088867,0.0277402401,0.0531603545,0.0057598948,-8.4180603027,83.0120239258,62.8421707153,0.0213803053,0.0253897905,0.0253894031,24.0023155212,56.2587699890,-48.0901718140,0.0781366825,0.0078595281,0.0016688704,
1958.523,-3.2171401978,1.3275873661,-156.0906066895,0.0568601042,0.0404801518,0.0052633286,-115.5632858276,75.3960952759,32.5908432007,0.0316568613,0.0614244789,0.0145342350,-8.4277381897,83.0105667114,62.8412971497,0.0252834558,0.0224843323,0.0268329382,24.0001354218,56.2575454712,-48.0883522034,0.0737302899,0.0025004745,0.0060385466,
1958.533,-3.2171609402,1.3263051510,-156.0888061523,0.0626971126,0.0443867855,0.0101457834,-115.5683135986,75.3941268921,32.5919189453,0.0384840965,0.0590034723,0.0106623769,-8.4154453278,83.0083465576,62.8642387390,0.0262553096,0.0278349519,0.0331376195,24.0005798340,56.2559890747,-48.0846405029,0.0781097412,0.0078585148,0.0026021004,
1958.543,-3.2167761326,1.3247296810,-156.0875854492,0.0636461824,0.0458449684,0.0111213326,-115.5611953735,75.3944549561,32.6047172546,0.0409269929,0.0599886477,0.0233269334,-8.4060459137,83.0093917847,62.8828506470,0.0243043900,0.0278119743,0.0214366019,24.0015392303,56.2558174133,-48.0800819397,0.0781080723,0.0049193203,-0.0008143783,
1958.553,-3.2154765129,1.3245409727,-156.0851898193,0.0612014830,0.0467988923,0.0120961070,-115.5745010376,75.3954315186,32.5976028442,0.0321422219,0.0594604760,0.0057948232,-8.4201927185,83.0105667114,62.8776473999,0.0204006433,0.0239332914,0.0253640711,24.0057392120,56.2553253174,-48.0731964111,0.0761501789,0.0107385814,0.0021253228,
1958.563,-3.2157068253,1.3254634142,-156.0840606689,0.0568230450,0.0394786745,0.0052610636,-115.5957717896,75.3953094482,32.5856399536,0.0394659042,0.0613745302,0.0117399693,-8.3920841217,83.0096130371,62.9151916504,0.0238165855,0.0263169408,0.0253411233,24.0054607391,56.2561874390,-48.0706825256,0.0737171173,0.0004921854,0.0001822710,
1958.573,-3.2139842510,1.3254239559,-156.0828857422,0.0602403283,0.0462845974,0.0067242384,-115.6388244629,75.3969955444,32.5516777039,0.0433795452,0.0632200241,0.0060399175,-8.3741846085,83.0079269409,62.9401817322,0.0277192593,0.0267716050,0.0272572637,24.0080680847,56.2591438293,-48.0647163391,0.0756989121,-0.0014665425,-0.0046508312,
1958.583,-3.2126419544,1.3231823444,-156.0834960938,0.0631309003,0.0408901721,0.0023275018,-115.6907501221,75.3981704712,32.5071105957,0.0375253558,0.0562671423,0.0047734380,-8.3507471085,83.0048751831,62.9711303711,0.0267361999,0.0267288983,0.0272008777,24.0025157928,56.2587356567,-48.0669555664,0.0849722624,-0.0028846562,0.0114351511,
1958.593,-3.2126989365,1.3232754469,-156.0810852051,0.0558083057,0.0399146006,0.0091635585,-115.7557983398,75.4011688232,32.4462280273,0.0385150909,0.0556089580,0.0074520111,-8.3062963486,83.0041732788,63.0251159668,0.0291761160,0.0310304463,0.0188735127,24.0050773621,56.2601966858,-48.0639991760,0.0752208233,0.0073551238,0.0065813065,
1958.603,-3.2133994102,1.3229814768,-156.0799560547,0.0592211448,0.0355322696,0.0135586262,-115.8340835571,75.3990554810,32.3738288879,0.0277636051,0.0550018996,0.0024079084,-8.2776546478,83.0022888184,63.0632972717,0.0208713412,0.0260911286,0.0271336436,24.0019168854,56.2615432739,-48.0639610291,0.0669330955,0.0015317798,0.0051224232,
1958.613,-3.2146291733,1.3249413967,-156.0801239014,0.0592553392,0.0404364690,0.0018419027,-115.8651123047,75.3871917725,32.3439941406,0.0262465477,0.0272906721,0.0167785287,-8.2605476379,82.9999618530,63.0891571045,0.0252609253,0.0270368159,0.0334372222,23.9976425171,56.2586402893,-48.0633354187,0.0830182433,0.0025290549,0.0045784712,
1958.623,-3.2153701782,1.3273741007,-156.0796356201,0.0534384139,0.0399610437,0.0008670092,-115.8631820679,75.3733596802,32.3478469849,0.0457168818,0.0484983325,0.0212668777,-8.2245607376,82.9974136353,63.1336135864,0.0325797200,0.0220832527,0.0172710717,23.9928627014,56.2612075806,-48.0649147034,0.0815782547,0.0040514767,-0.0027301311,
1958.633,-3.2160294056,1.3278999329,-156.0778656006,0.0563772768,0.0399725102,0.0111219287,-115.8414382935,75.3612365723,32.3847923279,0.0280852914,0.0560501218,0.0202926397,-8.1846990585,82.9936904907,63.1820869446,0.0320835114,0.0210307837,0.0303775966,23.9832363129,56.2648048401,-48.0719909668,0.0718474984,0.0017164946,0.0050916672,
1958.643,-3.2167737484,1.3256485462,-156.0773468018,0.0675684586,0.0399855301,-0.0001090765,-115.6922683716,75.3543472290,32.5126152039,0.0226837993,0.0310496837,0.0319545865,-8.1622676849,82.9929580688,63.2122077942,0.0232928991,0.0253790319,0.0201054513,23.9773674011,56.2660484314,-48.0745735168,0.0718595982,0.0047055483,0.0021557808,
1958.653,-3.2181892395,1.3228827715,-156.0761108398,0.0631256700,0.0375688523,0.0008679032,-115.4855728149,75.3767242432,32.6768112183,0.0154582858,0.0667488724,0.0397552252,-8.1544532776,82.9928512573,63.2259025574,0.0198746920,0.0229212642,0.0220537186,23.9682826996,56.2688713074,-48.0806121826,0.0709103942,0.0052908957,0.0002037287,
1958.663,-3.2167007923,1.3217180967,-156.0761108398,0.0596873797,0.0434023254,0.0077020526,-115.2159118652,75.4225234985,32.9185333252,0.0102886558,0.0807223618,0.0520201325,-8.1710624695,82.9928512573,63.2110595703,0.0242692232,0.0278394520,0.0210834444,23.9665470123,56.2713279724,-48.0822525024,0.0714224577,0.0048325360,0.0070657730,
1958.673,-3.2159435749,1.3197218180,-156.0755310059,0.0650236458,0.0429008864,0.0116066337,-114.8839797974,75.4847106934,33.2262229919,0.0125144124,0.0779502988,0.0551353097,-8.2363185883,82.9892654419,63.1486396790,0.0242615938,0.0270114839,0.0352000296,23.9685115814,56.2747459412,-48.0762557983,0.0607134104,-0.0000475347,0.0085837245,
1958.683,-3.2151496410,1.3177109957,-156.0736694336,0.0610823072,0.0428871028,0.0135583878,-114.4941711426,75.5661315918,33.5845985413,0.0094516277,0.0818110853,0.0422683954,-8.3477268219,82.9939727783,63.0438804626,0.0164591074,0.0282142162,0.0152979195,23.9759635925,56.2741050720,-48.0654335022,0.0685197115,0.0018357337,0.0090926886,
1958.693,-3.2151222229,1.3199299574,-156.0731811523,0.0542850867,0.0404451750,0.0042817593,-114.0657272339,75.6567687988,33.9853324890,0.0191220641,0.0816743374,0.0335913301,-8.4911680222,82.9949798584,62.9115295410,0.0223206282,0.0251004100,0.0260997117,23.9940032959,56.2725410461,-48.0426139832,0.0719225407,0.0045964420,0.0067015886,
1958.703,-3.2158985138,1.3207451105,-156.0732879639,0.0591821223,0.0419235155,0.0077008009,-113.5934524536,75.7567214966,34.4450645447,0.0268769860,0.0834002197,0.0349467397,-8.6547708511,82.9952545166,62.7584381104,0.0213446617,0.0269133747,0.0325081646,24.0205612183,56.2685699463,-48.0115776062,0.0723723173,0.0126385391,0.0004059672,
1958.713,-3.2138926983,1.3227827549,-156.0715484619,0.0572645515,0.0472596176,0.0033051968,-113.0761260986,75.8630676270,34.9642028809,0.0327030420,0.0816560537,0.0336596966,-8.8370246887,82.9955062866,62.5892143250,0.0218334794,0.0155833364,0.0262205005,24.0410537720,56.2652778625,-47.9840698242,0.0718521476,0.0070665777,0.0063029528,
1958.723,-3.2132840157,1.3223004341,-156.0703735352,0.0596975461,0.0423662178,0.0081872344,-112.5033569336,75.9784317017,35.5357093811,0.0444233418,0.0700651705,0.0335829258,-8.9717359543,82.9940261841,62.4676704407,0.0325725079,0.0266162753,0.0277092755,24.0601501465,56.2607803345,-47.9590797424,0.0796210170,0.0088239908,0.0004594326,
1958.733,-3.2124624252,1.3235312700,-156.0679626465,0.0563010499,0.0472346880,0.0150229335,-111.8430023193,76.1030426025,36.1843032837,0.0473893881,0.0667298287,0.0380148292,-9.0879182816,82.9919052124,62.3684883118,0.0340328217,0.0185694993,0.0281969309,24.0700454712,56.2554016113,-47.9412040710,0.0888462067,0.0077280104,0.0014038086,
1958.743,-3.2133197784,1.3219300508,-156.0672912598,0.0567613915,0.0438316911,-0.0010905862,-111.1102828979,76.2402648926,36.8881072998,0.0421024561,0.0676496178,0.0318669677,-9.1518917084,82.9899444580,62.3208084106,0.0325638056,0.0216404796,0.0257478952,24.0722351074,56.2515296936,-47.9313545227,0.0902734995,0.0106153190,0.0047789812,
1958.753,-3.2136864662,1.3236236572,-156.0649566650,0.0567909442,0.0409083515,0.0140475631,-110.2869262695,76.3803482056,37.6633529663,0.0431693792,0.0598057956,0.0307632089,-9.2054862976,82.9896011353,62.2820320129,0.0281685591,0.0217560232,0.0184340477,24.0659866333,56.2517204285,-47.9277343750,0.0800215006,0.0043241978,0.0023155212,
1958.763,-3.2171583176,1.3232979774,-156.0632476807,0.0611797869,0.0346211866,0.0018437505,-109.3861694336,76.5306930542,38.5005950928,0.0296237469,0.0576917231,0.0244672298,-9.2222499847,82.9910049438,62.2800102234,0.0237770081,0.0256940126,0.0277422369,24.0628337860,56.2546424866,-47.9226264954,0.0815146565,0.0072990358,-0.0000997782,
1958.773,-3.2189333439,1.3227022886,-156.0608978271,0.0621459633,0.0405115038,-0.0005960464,-108.3940658569,76.6886138916,39.4152717590,0.0229378343,0.0637925416,0.0349258780,-9.2649269104,82.9917831421,62.2533111572,0.0228021145,0.0233414769,0.0243520439,24.0636310577,56.2587356567,-47.9102516174,0.0713003874,0.0063395500,0.0106992126,
1958.783,-3.2193562984,1.3212373257,-156.0597534180,0.0650500879,0.0410071872,0.0023334026,-107.3351745605,76.8491058350,40.3917884827,0.0118601918,0.0610439479,0.0305344462,-9.3257265091,82.9957885742,62.2088394165,0.0154864192,0.0302959681,0.0176043808,24.0719871521,56.2676467896,-47.8929367065,0.0591797233,-0.0029589832,0.0010856390,
1958.793,-3.2184536457,1.3245645761,-156.0587005615,0.0548542365,0.0434327945,0.0057518482,-106.1968536377,77.0103225708,41.4404830933,0.0168910623,0.0636357516,0.0307937860,-9.4346208572,82.9978942871,62.1166114807,0.0184205770,0.0261274278,0.0264675021,24.0856075287,56.2691497803,-47.8701896667,0.0723779202,0.0042535067,0.0075063705,
1958.803,-3.2202534676,1.3231158257,-156.0569763184,0.0655711442,0.0380930789,0.0135654807,-104.9809036255,77.1748428345,42.5634078979,0.0219269991,0.0646713078,0.0308251381,-9.5687913895,83.0028762817,61.9995651245,0.0179429054,0.0278638005,0.0236688256,24.1037769318,56.2696800232,-47.8428993225,0.0675002337,0.0016544759,0.0075857639,
1958.813,-3.2193646431,1.3238408566,-156.0571136475,0.0616775490,0.0434486791,0.0086820722,-103.6778640747,77.3445358276,43.7666282654,0.0279512405,0.0709412396,0.0325518847,-9.7465820313,83.0052871704,61.8387603760,0.0208777189,0.0228639841,0.0267016292,24.1223659515,56.2688217163,-47.8161010742,0.0757927299,0.0029497445,0.0076478720,
1958.823,-3.2204318047,1.3245667219,-156.0547637939,0.0577839613,0.0385844409,0.0062420964,-102.2547302246,77.5186614990,45.0793762207,0.0339836478,0.0678144842,0.0368470550,-9.9287099838,83.0074462891,61.6738128662,0.0223471522,0.0276384950,0.0258322060,24.1444377899,56.2666664124,-47.7849311829,0.0752835274,0.0042064786,0.0038005710,
1958.833,-3.2193415165,1.3235363960,-156.0528564453,0.0572777018,0.0483310930,0.0028225780,-100.7144012451,77.7012023926,46.5009307861,0.0312492847,0.0722779483,0.0349401236,-10.0892391205,83.0106811523,61.5303764343,0.0291899443,0.0284585357,0.0220353901,24.1648654938,56.2635803223,-47.7549209595,0.0776950121,0.0147494972,0.0018873215,
1958.843,-3.2205579281,1.3227198124,-156.0505218506,0.0631228313,0.0380984023,0.0047764182,-99.0358352661,77.8877792358,48.0428810120,0.0451213121,0.0638730228,0.0336310863,-10.2584018707,83.0123062134,61.3770179749,0.0243105888,0.0175814033,0.0216417313,24.1791019440,56.2634773254,-47.7296066284,0.0776940584,0.0053456724,0.0048723221,
1958.853,-3.2207534313,1.3231230974,-156.0505523682,0.0543408021,0.0395666361,0.0125894547,-97.2033233643,78.0836334229,49.7084884644,0.0365555286,0.0678681284,0.0314145684,-10.3978338242,83.0180892944,61.2528266907,0.0243228674,0.0320193768,0.0169082582,24.1900024414,56.2658309937,-47.7088623047,0.0762519836,-0.0001079142,0.0034818649,
1958.863,-3.2227339745,1.3234540224,-156.0500946045,0.0606942326,0.0356948823,-0.0005922318,-95.2072753906,78.2844543457,51.5126266479,0.0289724469,0.0711041987,0.0307474732,-10.5469388962,83.0214614868,61.1202659607,0.0321425200,0.0210937262,0.0204424858,24.2089862823,56.2703323364,-47.6798782349,0.0860612392,0.0026806295,0.0011754632,
1958.873,-3.2223329544,1.3256167173,-156.0472259521,0.0592671260,0.0415472239,0.0052676797,-93.0090637207,78.4892730713,53.4976272583,0.0287154913,0.0730634332,0.0408141017,-10.6675233841,83.0208435059,61.0162429810,0.0296998024,0.0262335539,0.0238971412,24.2298412323,56.2750663757,-47.6512489319,0.0792711973,0.0083838403,0.0003445148,
1958.883,-3.2222580910,1.3270523548,-156.0455322266,0.0592921749,0.0405693278,0.0013619065,-90.6467132568,78.6918258667,55.6356964111,0.0191609263,0.0649908632,0.0271304250,-10.7946033478,83.0244979858,60.9063110352,0.0253130198,0.0264905691,0.0244970620,24.2568244934,56.2843933105,-47.6167755127,0.0744787455,0.0067359805,-0.0038195848,
1958.893,-3.2212634087,1.3260267973,-156.0431518555,0.0617156886,0.0415285826,0.0047785044,-88.0858230591,78.8834991455,57.9667472839,0.0227410793,0.0650416315,0.0316049457,-10.9319257736,83.0246963501,60.7865638733,0.0243368745,0.0287331045,0.0352975726,24.2813854218,56.2903785706,-47.5822792053,0.0740484595,0.0050898194,0.0012401342,
1958.903,-3.2199048996,1.3269646168,-156.0431823730,0.0544078350,0.0429697409,0.0057542324,-85.3350830078,79.0662536621,60.4921493530,0.0155385733,0.0726277977,0.0318350792,-11.1091098785,83.0315322876,60.6267852783,0.0214216709,0.0290844142,0.0183959603,24.3073539734,56.2959289551,-47.5450973511,0.0741022229,0.0039170682,0.0102064610,
1958.913,-3.2202067375,1.3283473253,-156.0414886475,0.0573616438,0.0371155888,0.0018488169,-82.4206314087,79.2304153442,63.1866836548,0.0214490891,0.0780861378,0.0152255893,-11.3049764633,83.0400695801,60.4501914978,0.0243694186,0.0275156796,0.0195957720,24.3363933563,56.3013839722,-47.5028686523,0.0648776889,0.0046698451,0.0020934343,
1958.923,-3.2211318016,1.3260344267,-156.0415191650,0.0636689439,0.0371317565,0.0067315698,-79.3658065796,79.3700256348,66.0368041992,0.0248311758,0.0790337622,0.0096693635,-11.5237264633,83.0458450317,60.2511863708,0.0224285126,0.0230731368,0.0266217589,24.3673954010,56.3027076721,-47.4599647522,0.0731912851,0.0053806901,0.0012581348,
1958.933,-3.2218770981,1.3235557079,-156.0408782959,0.0602077283,0.0376330763,0.0101493001,-76.1665115356,79.4813308716,69.0438613892,0.0393478274,0.0715636462,0.0136637092,-11.7797317505,83.0522537231,60.0154151917,0.0248834491,0.0211469233,0.0165858567,24.3976097107,56.3040275574,-47.4160728455,0.0692977905,0.0036571324,0.0028612614,
1958.943,-3.2182362080,1.3233076334,-156.0384674072,0.0611799620,0.0507532507,0.0057510138,-72.8668289185,79.5677719116,72.1555862427,0.0488994718,0.0736657232,0.0019469261,-11.9937314987,83.0601348877,59.8232383728,0.0263649225,0.0235206783,0.0129051507,24.4244213104,56.3014984131,-47.3757553101,0.0834335089,0.0034054816,0.0083065033,
1958.953,-3.2189183235,1.3215591908,-156.0378417969,0.0616377294,0.0444175191,0.0018444061,-69.4124755859,79.6279830933,75.4109420776,0.0676438808,0.0725560635,0.0002124310,-12.1805944443,83.0619430542,59.6551895142,0.0332046747,0.0190223157,0.0232729614,24.4425239563,56.3005409241,-47.3440399170,0.0887953043,0.0061697066,0.0020180941,
1958.963,-3.2206530571,1.3209151030,-156.0361480713,0.0645561814,0.0341938436,0.0052645206,-65.7954635620,79.6594161987,78.8145904541,0.0633479953,0.0730651766,-0.0003765821,-12.3252906799,83.0649414063,59.5299301147,0.0336992741,0.0163847208,0.0150847435,24.4577121735,56.3050422668,-47.3155441284,0.0844443440,0.0041097403,0.0001857281,
1958.973,-3.2208390236,1.3186635971,-156.0355529785,0.0635403395,0.0439627618,0.0057516694,-62.0774612427,79.6576080322,82.3090286255,0.0584595203,0.0640232712,-0.0040852427,-12.3901987076,83.0648574829,59.4824142456,0.0283280015,0.0233558714,0.0317183137,24.4652748108,56.3103942871,-47.2946624756,0.0849844813,-0.0027607977,0.0037043095,
1958.983,-3.2218508720,1.3198506832,-156.0350799561,0.0601430796,0.0410506800,0.0077064037,-58.2497558594,79.6215667725,85.9017562866,0.0642057657,0.0775689930,0.0002620816,-12.4911565781,83.0684509277,59.3985748291,0.0190582275,0.0211127400,0.0210784078,24.4781570435,56.3203620911,-47.2703704834,0.0767802000,0.0010918975,-0.0058774948,
1958.993,-3.2188019753,1.3236192465,-156.0327606201,0.0538611785,0.0507631004,0.0160052776,-54.3708076477,79.5526809692,89.5289993286,0.0483634472,0.0721899271,-0.0042803884,-12.5906620026,83.0716476440,59.3186035156,0.0224829316,0.0271671712,0.0314352810,24.4983654022,56.3292617798,-47.2377319336,0.0710068941,0.0068267584,0.0016451478,
1959.003,-3.2163708210,1.3255164623,-156.0310363770,0.0558474064,0.0443730429,0.0106328726,-50.4582519531,79.4430084229,93.1709136963,0.0699872375,0.0669967979,-0.0002013445,-12.7450761795,83.0773391724,59.1831436157,0.0190769434,0.0269797742,0.0301347077,24.5215969086,56.3360366821,-47.2000274658,0.0730255842,0.0027566850,0.0008515120,
1959.013,-3.2170596123,1.3261605501,-156.0286712646,0.0583000556,0.0419436321,0.0130751729,-46.5642852783,79.2799682617,96.7739562988,0.0694618821,0.0582622290,0.0109744668,-12.9169998169,83.0829467773,59.0302772522,0.0215301514,0.0307337046,0.0273823142,24.5483341217,56.3395957947,-47.1575088501,0.0750131607,0.0049841106,0.0044238567,
1959.023,-3.2175376415,1.3273862600,-156.0281524658,0.0578331575,0.0429284833,0.0067285299,-42.6739501953,79.0768585205,100.3599243164,0.0648900867,0.1072192639,0.0039107800,-13.1149091721,83.0915756226,58.8529586792,0.0142240524,0.0291589797,0.0168755054,24.5770626068,56.3423042297,-47.1131858826,0.0774807930,0.0018178821,-0.0007960796,
1959.033,-3.2173817158,1.3273724318,-156.0250854492,0.0563680716,0.0448788963,0.0111230612,-38.8857383728,78.8239593506,103.8489761353,0.0694152117,0.0906083137,-0.0061959028,-13.3505954742,83.0992431641,58.6350822449,0.0200995207,0.0208282471,0.0249316096,24.6064186096,56.3465232849,-47.0685195923,0.0721504688,0.0040264428,-0.0006223917,
1959.043,-3.2179925442,1.3262735605,-156.0245208740,0.0617199950,0.0424481593,0.0077050924,-35.2187500000,78.5297698975,107.2334289551,0.0762195587,0.0913476199,-0.0173014402,-13.5705213547,83.1062774658,58.4325447083,0.0264618993,0.0266267955,0.0236896873,24.6367435455,56.3497734070,-47.0225028992,0.0775530338,0.0018262565,0.0054022074,
1959.053,-3.2192199230,1.3258808851,-156.0221099854,0.0573186055,0.0380750187,0.0033117533,-31.6898078918,78.1901931763,110.5047760010,0.0823479891,0.0987533331,-0.0197136402,-13.8092317581,83.1118850708,58.2078781128,0.0215908289,0.0212372541,0.0258579254,24.6670665741,56.3524246216,-46.9760398865,0.0814849138,0.0001107752,0.0070240498,
1959.063,-3.2202243805,1.3237985373,-156.0208892822,0.0631416515,0.0410222523,0.0077063441,-28.3463993073,77.8141860962,113.6185607910,0.0873314738,0.0987156183,-0.0279092789,-14.0536108017,83.1203155518,57.9763450623,0.0211201906,0.0270775557,0.0183085203,24.6987495422,56.3563385010,-46.9299087524,0.0790813565,0.0027857125,0.0067157745,
1959.073,-3.2202687263,1.3226443529,-156.0197296143,0.0621449500,0.0400464907,0.0106351972,-25.1634044647,77.4009323120,116.6037979126,0.1014086008,0.1292619705,-0.0366173983,-14.3059177399,83.1271591187,57.7355651855,0.0240641832,0.0265914798,0.0239223838,24.7322006226,56.3581848145,-46.8842811584,0.0815405846,0.0068974495,0.0107814670,
1959.083,-3.2227594852,1.3222862482,-156.0193176270,0.0655566752,0.0337422341,0.0077081919,-22.1563854218,76.9469528198,119.4176940918,0.1020910740,0.0957528353,-0.0258836746,-14.5342884064,83.1335525513,57.5198669434,0.0226126909,0.0284971297,0.0207336247,24.7714385986,56.3679504395,-46.8331222534,0.0791935921,0.0027058721,-0.0143218040,
1959.093,-3.2216422558,1.3241209984,-156.0182037354,0.0558230579,0.0420235060,0.0067312717,-19.2924537659,76.4575805664,122.0840377808,0.1001265049,0.0981418192,-0.0225638151,-14.7876338959,83.1423568726,57.2796211243,0.0162833929,0.0245844126,0.0185680091,24.8108386993,56.3810234070,-46.7815704346,0.0754137039,0.0039044619,-0.0095952153,
1959.103,-3.2205739021,1.3259900808,-156.0177001953,0.0553673916,0.0420048460,-0.0001049638,-16.5839405060,75.9301605225,124.5848159790,0.1033009291,0.0866963863,-0.0262112021,-15.0081033707,83.1503143311,57.0723419189,0.0216710567,0.0337883532,0.0202868581,24.8489112854,56.3912887573,-46.7317962646,0.0720949173,0.0011916459,-0.0005164146,
1959.113,-3.2203073502,1.3273489475,-156.0172882080,0.0617387593,0.0390704870,0.0091726780,-13.9997110367,75.3754959106,126.9533233643,0.1018786430,0.0783463418,-0.0318254232,-15.2363224030,83.1557312012,56.8569335938,0.0246120095,0.0283703506,0.0234307051,24.8867721558,56.4035530090,-46.6798171997,0.0731899142,0.0019111931,0.0041936636,
1959.123,-3.2206521034,1.3292074203,-156.0173797607,0.0554235280,0.0434709825,0.0042908788,-11.5289535522,74.7992858887,129.2090454102,0.1134507060,0.1209020317,-0.0446994901,-15.4890737534,83.1612014771,56.6170005798,0.0168108940,0.0230008066,0.0256142914,24.9235343933,56.4149131775,-46.6295814514,0.0689051151,-0.0037125647,0.0044927597,
1959.133,-3.2198529243,1.3301742077,-156.0162200928,0.0569052435,0.0429687537,0.0125914812,-9.2189693451,74.2056655884,131.2922363281,0.1297253966,0.0676370859,-0.0525206923,-15.7693729401,83.1702194214,56.3483009338,0.0241538286,0.0235282779,0.0049262643,24.9613075256,56.4237174988,-46.5792350769,0.0728963614,0.0043114424,0.0086691380,
1959.143,-3.2195730209,1.3300080299,-156.0162506104,0.0583671853,0.0434521697,0.0086844563,-7.0786037445,73.5953445435,133.1926879883,0.1331191659,0.0729653835,-0.0601816177,-16.0604343414,83.1759643555,56.0667152405,0.0202594995,0.0240914226,0.0252060294,25.0032386780,56.4311943054,-46.5230255127,0.0729684830,0.0059433877,0.0055202246,
1959.153,-3.2184081078,1.3297581673,-156.0162963867,0.0608042330,0.0444084443,0.0086836219,-5.1159372330,72.9722747803,134.9095916748,0.1334092617,0.0369072855,-0.0622762442,-16.3574542999,83.1784896851,55.7827110291,0.0231944323,0.0207729638,0.0273771584,25.0460128784,56.4398231506,-46.4672012329,0.0769580603,0.0065988302,-0.0010273457,
1959.163,-3.2211101055,1.3287497759,-156.0139465332,0.0617631972,0.0371313170,0.0077091455,-3.2816021442,72.3369140625,136.4984283447,0.1623298526,0.0598813295,-0.0539704561,-16.6073608398,83.1787796021,55.5479278564,0.0192887783,0.0295774937,0.0245978534,25.0848579407,56.4450035095,-46.4135208130,0.0770080090,0.0009200275,0.0084770918,
1959.173,-3.2214596272,1.3287253380,-156.0121459961,0.0583448038,0.0410436578,0.0121040940,-1.5950456858,71.6918029785,137.9555358887,0.1564118266,0.0839539766,-0.0606341958,-16.8668708801,83.1806793213,55.3017807007,0.0236872435,0.0335085988,0.0286942720,25.1263675690,56.4547462463,-46.3582344055,0.0751488209,0.0040352643,-0.0034317970,
1959.183,-3.2195067406,1.3284960985,-156.0109558105,0.0588290840,0.0449158922,0.0086841583,-0.0255213063,71.0429229736,139.3269653320,0.1542583108,0.1095199287,-0.0675560832,-17.1914691925,83.1867218018,54.9920768738,0.0183286667,0.0229009092,0.0231320560,25.1740055084,56.4653511047,-46.2933921814,0.0679269433,0.0066144764,-0.0060268641,
1959.193,-3.2169442177,1.3280621767,-156.0091552734,0.0612629205,0.0492657870,-0.0059672594,1.3700077534,70.3895416260,140.5710296631,0.1509805918,0.0915734470,-0.0601319671,-17.5297508240,83.1953887939,54.6700439453,0.0144403577,0.0318355560,0.0210450590,25.2221298218,56.4707527161,-46.2297477722,0.0713969469,0.0047630072,0.0118198395,
1959.203,-3.2170715332,1.3275485039,-156.0073547363,0.0597891137,0.0419437997,0.0042867661,2.6562168598,69.7363967896,141.7514953613,0.1602771282,0.1294359863,-0.0690848827,-17.9354133606,83.1980972290,54.2782402039,0.0178639293,0.0174964368,0.0267170966,25.2730503082,56.4754409790,-46.1621589661,0.0665593147,0.0028830469,0.0062316656,
1959.213,-3.2193121910,1.3279544115,-156.0057067871,0.0632141680,0.0366117321,0.0101484060,3.7955081463,69.0755310059,142.8085174561,0.1703801751,0.1013299823,-0.0569875240,-18.3305644989,83.2039566040,53.8955230713,0.0242236853,0.0231356323,0.0173056722,25.3231239319,56.4792709351,-46.0963287354,0.0788033009,0.0019820035,0.0128358305,
1959.223,-3.2188630104,1.3271292448,-156.0044708252,0.0588052347,0.0439281464,0.0096595883,4.8243918419,68.4086608887,143.7413787842,0.1764141917,0.0676492751,-0.0648531914,-18.6927623749,83.2063217163,53.5468292236,0.0256934166,0.0204255879,0.0156295002,25.3733386993,56.4866294861,-46.0290145874,0.0803390741,0.0030550957,0.0048389733,
1959.233,-3.2198185921,1.3282302618,-156.0027618408,0.0588244498,0.0410150774,0.0160084963,5.7798686028,67.7329711914,144.5777740479,0.1778693795,0.0516431928,-0.0580604672,-19.0372810364,83.2072753906,53.2193374634,0.0325313210,0.0235454142,0.0251545310,25.4276428223,56.4979515076,-45.9607505798,0.0789833069,0.0080239177,-0.0045536458,
1959.243,-3.2182676792,1.3290619850,-156.0004425049,0.0617686473,0.0434294529,0.0081949234,6.7074313164,67.0595550537,145.3734283447,0.1840940714,0.0852891505,-0.0696159005,-19.3601837158,83.2068405151,52.9128379822,0.0296007395,0.0241872072,0.0278109908,25.4751129150,56.5079193115,-45.8974990845,0.0839621425,-0.0011159480,0.0040745735,
1959.253,-3.2181055546,1.3290846348,-155.9981231689,0.0622573271,0.0429383442,0.0028232932,7.5545678139,66.3948516846,146.0892333984,0.1726744175,0.0698654056,-0.0838437080,-19.7234172821,83.2125015259,52.5665969849,0.0320538282,0.0224300921,0.0120455027,25.5273170471,56.5177307129,-45.8311347961,0.0752675533,0.0028861165,0.0000254810,
1959.263,-3.2167820930,1.3299808502,-155.9963989258,0.0612963997,0.0448683910,0.0047758222,8.3484725952,65.7422714233,146.7669677734,0.1534059048,0.0735981166,-0.0899428725,-20.0407314301,83.2126235962,52.2608070374,0.0574446917,0.0279382765,0.0274064839,25.5742626190,56.5231170654,-45.7698631287,0.0699483156,-0.0004178286,0.0071268082,
1959.273,-3.2168245316,1.3300672770,-155.9946289063,0.0598330647,0.0443808436,0.0042876005,9.0423774719,65.0954284668,147.4097900391,0.1736119986,0.0851305425,-0.1046856642,-20.4028720856,83.2156219482,51.9112968445,0.0183883905,0.0208190978,0.0203942955,25.6202678680,56.5259590149,-45.7135620117,0.0636280179,0.0055480599,0.0005193353,
1959.283,-3.2147691250,1.3314567804,-155.9940338135,0.0530213714,0.0453215763,0.0081924200,9.6545352936,64.4510879517,147.9996337891,0.2132526040,0.0677531958,-0.0871149302,-20.7843456268,83.2191467285,51.5393447876,0.0100948811,0.0274057686,0.0187747478,25.6603240967,56.5301513672,-45.6608581543,0.0636683702,-0.0064919889,-0.0012112558,
1959.293,-3.2148218155,1.3304564953,-155.9928131104,0.0593515746,0.0443459451,0.0077036619,10.2017974854,63.8253631592,148.5463104248,0.2172779441,0.0731845796,-0.0862976313,-21.2340965271,83.2200775146,51.0936508179,0.0091202259,0.0219309032,0.0166857839,25.7129592896,56.5341682434,-45.5991134644,0.0739609003,-0.0035056472,0.0039426684,
1959.303,-3.2148916721,1.3287312984,-155.9928588867,0.0637160018,0.0379995443,0.0057499409,10.6895599365,63.2164993286,149.0666503906,0.2174226642,0.0838400722,-0.0890925527,-21.6669101715,83.2167816162,50.6571197510,0.0237618685,0.0296298862,0.0257553756,25.7667598724,56.5395088196,-45.5381927490,0.0837779045,0.0014326870,0.0130273700,
1959.313,-3.2145245075,1.3270555735,-155.9910736084,0.0641750395,0.0414111577,0.0125849247,11.1270780563,62.6160240173,149.5602111816,0.2204635739,0.0845196545,-0.0887970924,-22.1076564789,83.2112579346,50.2124099731,0.0281450152,0.0217331350,0.0260095894,25.8221130371,56.5487098694,-45.4750823975,0.0775188208,0.0010111034,0.0084960759,
1959.323,-3.2135159969,1.3260996342,-155.9916992188,0.0612286776,0.0438350216,0.0145366788,11.5405359268,62.0280036926,150.0216827393,0.2332746387,0.0643102229,-0.0809265375,-22.5629215240,83.2067871094,49.7551994324,0.0237412453,0.0250858963,0.0258137584,25.8854045868,56.5634384155,-45.3997116089,0.0805901885,0.0044627190,-0.0032521486,
1959.333,-3.2139477730,1.3249669075,-155.9898834229,0.0597440675,0.0409128778,0.0023297071,11.9208936691,61.4656867981,150.4441986084,0.2178866863,0.0477571487,-0.0955783129,-23.0181045532,83.2043609619,49.2991142273,0.0227596760,0.0220757425,0.0163788795,25.9474658966,56.5763473511,-45.3262023926,0.0724135041,0.0040079057,0.0079202652,
1959.343,-3.2126297951,1.3260161877,-155.9899902344,0.0582975335,0.0428430215,0.0057463646,12.2647676468,60.9175949097,150.8182830811,0.2279254198,0.0221773982,-0.0909520984,-23.4289169312,83.2013320923,48.8896789551,0.0193354487,0.0267944932,0.0313188732,26.0057430267,56.5880470276,-45.2563476563,0.0710611343,0.0065083504,0.0068537295,
1959.353,-3.2122628689,1.3272140026,-155.9888610840,0.0558770262,0.0394186229,0.0057467222,12.6032867432,60.3869209290,151.1572875977,0.2258274555,0.0347013623,-0.0947871208,-23.8758869171,83.1996002197,48.4454002380,0.0242146850,0.0242476463,0.0175071359,26.0641822815,56.5986175537,-45.1856689453,0.0740923882,0.0090006590,0.0106562972,
1959.363,-3.2118482590,1.3266440630,-155.9870910645,0.0622147396,0.0438059568,0.0067227483,12.9313650131,59.8642501831,151.4658813477,0.2095648646,0.0565391332,-0.0867267251,-24.3158950806,83.1944122314,48.0082283020,0.0222508311,0.0143844783,0.0217105746,26.1186637878,56.6097984314,-45.1189346313,0.0776177645,-0.0036050379,0.0022438169,
1959.373,-3.2122406960,1.3273100853,-155.9853668213,0.0602732375,0.0408830829,0.0135593414,13.1952161789,59.3391990662,151.7643127441,0.2181115150,0.0788504481,-0.0929159522,-24.6783351898,83.1915588379,47.6483001709,0.0237097740,0.0277935266,0.0205149353,26.1703567505,56.6198997498,-45.0605201721,0.0738085508,0.0048029721,0.0045474470,
1959.383,-3.2111432552,1.3268722296,-155.9841156006,0.0573359057,0.0462350734,0.0062338710,13.4139337540,58.8170356750,152.0237731934,0.2402839065,0.0634243935,-0.0878579617,-25.0632381439,83.1864318848,47.2685966492,0.0193046331,0.0280759931,0.0276114941,26.2293281555,56.6350746155,-44.9882545471,0.0754190683,0.0004860461,-0.0037932694,
1959.393,-3.2101140022,1.3264217377,-155.9823913574,0.0617225766,0.0374280885,0.0047678351,13.5934276581,58.3100318909,152.2522735596,0.2371335626,0.0503078550,-0.0962762833,-25.4839286804,83.1847076416,46.8537178040,0.0241838694,0.0284010768,0.0201476216,26.2875423431,56.6494369507,-44.9144744873,0.0687209368,0.0044718385,0.0068955421,
1959.403,-3.2102181911,1.3283668756,-155.9800720215,0.0578502715,0.0462189205,0.0076982379,13.7613945007,57.8170509338,152.4778289795,0.2252579927,0.0612355769,-0.0912794471,-25.9668388367,83.1826934814,46.3737297058,0.0236914158,0.0234712958,0.0181169212,26.3476238251,56.6637992859,-44.8376388550,0.0717884302,0.0020945072,0.0117326975,
1959.413,-3.2104802132,1.3292526007,-155.9788665771,0.0549360365,0.0457351841,0.0091638565,13.9000911713,57.3359031677,152.6853179932,0.2275913358,0.0494926125,-0.0905218720,-26.4480953217,83.1799011230,45.8963432312,0.0129434466,0.0278186500,0.0273108184,26.4138336182,56.6781196594,-44.7553062439,0.0738788843,-0.0003348887,0.0024367273,
1959.423,-3.2076654434,1.3287494183,-155.9776153564,0.0598100685,0.0500806868,0.0091608763,14.0394859314,56.8643608093,152.8959808350,0.2265390158,0.0670506954,-0.0964147449,-26.9606475830,83.1763687134,45.3860931396,0.0192837715,0.0234394073,0.0150439143,26.4819431305,56.6935768127,-44.6723518372,0.0764684677,0.0001571476,-0.0063483119,
1959.433,-3.2079660892,1.3307889700,-155.9753265381,0.0574042499,0.0412968174,0.0042791367,14.1686182022,56.3999252319,153.0953826904,0.2298932076,0.0578520745,-0.1016960144,-27.4558238983,83.1651000977,44.8939018250,0.0256080627,0.0234787762,0.0324397683,26.5505733490,56.7068786621,-44.5885658264,0.0780607462,0.0001431406,0.0043722391,
1959.443,-3.2078711987,1.3306694031,-155.9752807617,0.0539841950,0.0427600071,0.0111150146,14.2685565948,55.9394721985,153.2765045166,0.2307901382,0.0547836274,-0.1035294533,-27.9079780579,83.1571044922,44.4425430298,0.0299859643,0.0292696357,0.0259267092,26.6159400940,56.7250480652,-44.5083465576,0.0704223514,-0.0037163198,0.0000072420,
1959.453,-3.2070116997,1.3321479559,-155.9741210938,0.0549865551,0.0432332829,0.0086732507,14.3801889420,55.4833145142,153.4392547607,0.2502307296,0.0496521592,-0.0954658389,-28.4202289581,83.1472854614,43.9329261780,0.0280123949,0.0220026374,0.0189641416,26.6858596802,56.7404518127,-44.4211654663,0.0808236599,0.0040864348,0.0088083744,
1959.463,-3.2072563171,1.3343869448,-155.9730224609,0.0545373410,0.0393312424,0.0111157894,14.4631776810,55.0370903015,153.5850524902,0.2438395619,0.0457949042,-0.0985246897,-28.9322872162,83.1380157471,43.4246749878,0.0221337080,0.0196107030,0.0203222930,26.7516841888,56.7592315674,-44.3382606506,0.0756322742,-0.0041657686,-0.0009171963,
1959.473,-3.2061164379,1.3315453529,-155.9735870361,0.0632768199,0.0422411487,0.0072073936,14.5392417908,54.5973014832,153.7352447510,0.2291630507,0.0635039210,-0.0995189548,-29.3981132507,83.1277923584,42.9634246826,0.0260186195,0.0269063115,0.0245543122,26.8129310608,56.7735671997,-44.2599029541,0.0762577057,0.0041942596,0.0019746125,
1959.483,-3.2056422234,1.3320512772,-155.9731140137,0.0623090863,0.0441859961,0.0018359423,14.5737380981,54.1589965820,153.8738555908,0.2251957655,0.0645322502,-0.0990980864,-29.8627529144,83.1201477051,42.5049209595,0.0157487392,0.0283157527,0.0273698866,26.8707141876,56.7863159180,-44.1853561401,0.0671022534,-0.0001212060,0.0048319399,
1959.493,-3.2069554329,1.3328983784,-155.9725799561,0.0593941808,0.0442088544,0.0135563612,14.5920391083,53.7240600586,153.9927368164,0.2402588725,0.0457164198,-0.0927782655,-30.3584194183,83.1083526611,42.0145606995,0.0230482817,0.0312811732,0.0262577534,26.9349384308,56.7992820740,-44.1015205383,0.0745504498,0.0003931224,-0.0000932515,
1959.503,-3.2051243782,1.3328464031,-155.9720153809,0.0598815568,0.0446652360,-0.0010938048,14.6100177765,53.2991638184,154.0975799561,0.2446380258,0.0352447778,-0.1028912067,-30.9021987915,83.0971450806,41.4752159119,0.0181419849,0.0255380869,0.0252177715,26.9977092743,56.8128166199,-44.0183258057,0.0668672323,-0.0044466853,0.0106089115,
1959.513,-3.2053112984,1.3349963427,-155.9715728760,0.0565011017,0.0397856273,-0.0006045699,14.6270675659,52.8891487122,154.1932830811,0.2359462380,0.0443708450,-0.1030080318,-31.4381465912,83.0830688477,40.9441947937,0.0195772648,0.0300590098,0.0270657837,27.0739402771,56.8285522461,-43.9244232178,0.0714120865,-0.0040145218,0.0087033808,
1959.523,-3.2052540779,1.3350466490,-155.9697570801,0.0579668209,0.0446674451,0.0086728930,14.6391162872,52.4915199280,154.2793273926,0.2458999753,0.0360179245,-0.1083139181,-31.9935607910,83.0682220459,40.3922080994,0.0180811882,0.0302245617,0.0284503698,27.1609382629,56.8445091248,-43.8201751709,0.0769355297,0.0060940683,0.0014762878,
1959.533,-3.2050673962,1.3357642889,-155.9679412842,0.0555379391,0.0451524593,0.0057432652,14.6450328827,52.1016960144,154.3567199707,0.2451569438,0.0389915556,-0.1042245030,-32.5825767517,83.0520324707,39.8077430725,0.0195118785,0.0270439982,0.0225413144,27.2496547699,56.8563690186,-43.7131118774,0.0726541877,0.0054198802,0.0083652437,
1959.543,-3.2046484947,1.3373301029,-155.9673919678,0.0545886904,0.0417271554,0.0096498132,14.6448831558,51.7238121033,154.4247894287,0.2406002879,0.0371932387,-0.1058266163,-33.1684989929,83.0358657837,39.2256889343,0.0141066313,0.0282496214,0.0229912698,27.3350811005,56.8682861328,-43.6103553772,0.0717912912,0.0018452108,0.0054754317,
1959.553,-3.2018361092,1.3365589380,-155.9667663574,0.0604346171,0.0480258316,0.0037869811,14.6386909485,51.3478698730,154.4841461182,0.2467728257,0.0393784493,-0.1112993360,-33.7343406677,83.0191574097,38.6606597900,0.0238368511,0.0318640172,0.0204929113,27.4153270721,56.8814659119,-43.5111846924,0.0738701820,0.0036951602,0.0055101812,
1959.563,-3.2011482716,1.3393019438,-155.9656372070,0.0526699759,0.0426426940,0.0076943040,14.6252746582,50.9737205505,154.5313110352,0.2514666319,0.0323770791,-0.1152786016,-34.2724037170,82.9954528809,38.1240425110,0.0223216414,0.0227981508,0.0359427929,27.4933662415,56.8930702209,-43.4165725708,0.0817933083,-0.0003052056,0.0006329119,
1959.573,-3.2009015083,1.3415329456,-155.9645690918,0.0561268739,0.0392203778,-0.0069538951,14.6046304703,50.6053314209,154.5651397705,0.2449606061,0.0357358605,-0.1084340811,-34.8102073669,82.9748992920,37.5868492126,0.0256958008,0.0224902332,0.0197116137,27.5661525726,56.9035301208,-43.3261413574,0.0740804672,-0.0013384521,0.0137842000,
1959.583,-3.2023074627,1.3407889605,-155.9646606445,0.0605084226,0.0353386290,0.0120902658,14.5766782761,50.2478332520,154.5882568359,0.2424504757,0.0353141278,-0.1156060100,-35.3301086426,82.9535980225,37.0698585510,0.0232088566,0.0280170739,0.0205493569,27.6391944885,56.9174461365,-43.2362136841,0.0712834001,-0.0033261478,0.0011034906,
1959.593,-3.2029571533,1.3419591188,-155.9629669189,0.0605288409,0.0421858653,0.0101379156,14.5382051468,49.8978919983,154.5997161865,0.2463430166,0.0340664983,-0.1143856049,-35.8908462524,82.9314193726,36.5130233765,0.0173019171,0.0248355269,0.0219270587,27.7124748230,56.9261283875,-43.1448745728,0.0699012876,0.0068564415,0.0093524158,
1959.603,-3.2028675079,1.3414559364,-155.9617919922,0.0619849041,0.0426725969,0.0101378560,14.4887838364,49.5625038147,154.6011657715,0.2381647229,0.0393471420,-0.1203110218,-36.4664344788,82.9099731445,35.9386062622,0.0245800018,0.0250892937,0.0243251622,27.7832450867,56.9369812012,-43.0518608093,0.0621921420,-0.0014789402,0.0044358075,
1959.613,-3.2013688087,1.3416385651,-155.9611816406,0.0571052767,0.0455761701,0.0037887692,14.4297027588,49.2302818298,154.5975341797,0.2470864058,0.0393868685,-0.1139966846,-37.0232162476,82.8861923218,35.3848762512,0.0225755572,0.0277735293,0.0227756798,27.8573131561,56.9432792664,-42.9598503113,0.0685997605,0.0003813505,0.0102169216,
1959.623,-3.2007322311,1.3418958187,-155.9605255127,0.0546683595,0.0489830412,0.0023236275,14.3595380783,48.9034729004,154.5845947266,0.2531149387,0.0386052579,-0.1173909903,-37.5761451721,82.8580856323,34.8336181641,0.0210498571,0.0261009336,0.0304535627,27.9361228943,56.9482040405,-42.8629379272,0.0789005160,0.0012164414,0.0033077002,
1959.633,-3.2010042667,1.3401618004,-155.9581146240,0.0639154464,0.0436167233,-0.0020717382,14.2903995514,48.5781822205,154.5718994141,0.2542537451,0.0471101552,-0.1163500547,-38.1216011047,82.8323440552,34.2898712158,0.0273415446,0.0253678858,0.0288897753,28.0134754181,56.9577102661,-42.7682609558,0.0706902146,0.0030724406,0.0018224120,
1959.643,-3.2024497986,1.3384454250,-155.9581604004,0.0633972138,0.0397357009,-0.0015823841,14.2150945663,48.2590255737,154.5523834229,0.2495802641,0.0430242419,-0.1225540638,-38.6481018066,82.8079376221,33.7691345215,0.0199640989,0.0211684704,0.0253798366,28.0882549286,56.9621429443,-42.6768379211,0.0770800710,0.0039395392,0.0090505481,
1959.653,-3.2029623985,1.3357393742,-155.9562988281,0.0628617182,0.0407212637,-0.0035362244,14.1270837784,47.9399795532,154.5187530518,0.2541621923,0.0386104435,-0.1136376262,-39.1564140320,82.7850952148,33.2669639587,0.0223554969,0.0330340564,0.0257837772,28.1696243286,56.9703330994,-42.5771560669,0.0805759430,0.0062425137,-0.0051275790,
1959.663,-3.2011094093,1.3353168964,-155.9550933838,0.0594363809,0.0445952378,0.0067157745,14.0383720398,47.6264724731,154.4799041748,0.2416965365,0.0449818820,-0.1192844510,-39.6627426147,82.7624206543,32.7688331604,0.0232822895,0.0287798047,0.0218050778,28.2474422455,56.9777145386,-42.4796905518,0.0742985606,0.0007580221,0.0060594678,
1959.673,-3.1993975639,1.3357414007,-155.9532775879,0.0565140992,0.0440771207,0.0042729378,13.9541635513,47.3147430420,154.4419555664,0.2365539074,0.0430237353,-0.1180419326,-40.1502494812,82.7393112183,32.2917861938,0.0193251371,0.0244969130,0.0397785604,28.3350143433,56.9871520996,-42.3757705688,0.0738999844,0.0088787377,0.0046227574,
1959.683,-3.2003455162,1.3371375799,-155.9521636963,0.0575150214,0.0411639176,0.0115982294,13.8623304367,46.9930114746,154.4006042480,0.2459189296,0.0377217531,-0.1037428975,-40.6583023071,82.7152481079,31.7901439667,0.0197602510,0.0266078711,0.0226227343,28.4207801819,56.9937705994,-42.2734642029,0.0788457394,0.0116248429,0.0080250800,
1959.693,-3.1997601986,1.3371546268,-155.9509582520,0.0575153194,0.0445716903,-0.0045149326,13.7751379013,46.6748924255,154.3631286621,0.2489565015,0.0353247672,-0.1157349348,-41.1568298340,82.6877136230,31.2954330444,0.0192109346,0.0238561332,0.0244659781,28.5002613068,57.0053482056,-42.1773071289,0.0706549883,-0.0021425784,-0.0031844378,
1959.703,-3.2001600266,1.3353362083,-155.9502716064,0.0579718724,0.0431138463,0.0125740170,13.6955642700,46.3600006104,154.3247070313,0.2446863651,0.0450726002,-0.1193447113,-41.6819915771,82.6614151001,30.7752017975,0.0220820904,0.0245537758,0.0195408463,28.5838527679,57.0146942139,-42.0766525269,0.0678141117,0.0040603578,0.0041508973,
1959.713,-3.1992127895,1.3372931480,-155.9503936768,0.0575177372,0.0435855836,0.0135506392,13.6065664291,46.0471916199,154.2760314941,0.2482320666,0.0344456732,-0.1244028807,-42.2062492371,82.6319885254,30.2553462982,0.0132272840,0.0213785768,0.0175179839,28.6673240662,57.0187568665,-41.9734344482,0.0771300793,0.0009509325,0.0040946901,
1959.723,-3.1990268230,1.3391072750,-155.9480743408,0.0560845472,0.0386994928,0.0052500367,13.5112924576,45.7310981750,154.2203521729,0.2463451624,0.0419670939,-0.1133856773,-42.7126808167,82.6032485962,29.7554912567,0.0195105076,0.0259771645,0.0267215073,28.7551021576,57.0255737305,-41.8667640686,0.0688940883,0.0046616197,0.0006768703,
1959.733,-3.2002947330,1.3373728991,-155.9474945068,0.0638667867,0.0401864573,0.0057392120,13.4188709259,45.4148139954,154.1646423340,0.2405278683,0.0499603748,-0.1223633289,-43.1983947754,82.5701675415,29.2775459290,0.0160180330,0.0271737576,0.0295039415,28.8445014954,57.0319175720,-41.7573242188,0.0767667890,0.0029852390,-0.0007859468,
1959.743,-3.2014434338,1.3340774775,-155.9462585449,0.0647858530,0.0406948254,-0.0035383701,13.3321170807,45.0915489197,154.1170196533,0.2370443344,0.0593483895,-0.1274831891,-43.6994094849,82.5374908447,28.7858791351,0.0198503733,0.0342510641,0.0274460316,28.9340248108,57.0374603271,-41.6454010010,0.0782842636,0.0013028979,0.0055546761,
1959.753,-3.2004873753,1.3350992203,-155.9444732666,0.0565028973,0.0436078347,0.0023206472,13.2450447083,44.7602272034,154.0724945068,0.2402743697,0.0535981506,-0.1180309653,-44.2094879150,82.5038070679,28.2882099152,0.0148910284,0.0296365619,0.0258928835,29.0316772461,57.0455474854,-41.5241889954,0.0720134377,0.0034785569,0.0051315129,
1959.763,-3.2011170387,1.3350266218,-155.9444732666,0.0560133457,0.0402008407,0.0125750303,13.1655359268,44.4253845215,154.0375518799,0.2380657792,0.0546000749,-0.1222492456,-44.7194824219,82.4662017822,27.7915153503,0.0108989477,0.0309282839,0.0355372429,29.1416664124,57.0591049194,-41.3910102844,0.0745835304,-0.0002676845,0.0009292662,
1959.773,-3.2005031109,1.3358671665,-155.9445953369,0.0594459847,0.0401901230,0.0179458261,13.0855112076,44.0922126770,154.0027465820,0.2402487993,0.0434228331,-0.1239852309,-45.3286094666,82.4259109497,27.1989669800,0.0059236884,0.0241170526,0.0233538151,29.2608566284,57.0735511780,-41.2459106445,0.0551893711,-0.0001756847,0.0114313662,
1959.783,-3.2001240253,1.3367738724,-155.9434051514,0.0550672710,0.0436014719,0.0159925818,13.0182523727,43.7595787048,153.9733123779,0.2409502268,0.0418726504,-0.1168671846,-45.9581184387,82.3789443970,26.5847911835,0.0063036084,0.0247422755,0.0253098607,29.3834075928,57.0847702026,-41.0966529846,0.0650614500,-0.0094101429,0.0043312311,
1959.793,-3.2010128498,1.3387875557,-155.9440765381,0.0551024079,0.0436169058,0.0155060887,12.9563398361,43.4284934998,153.9442901611,0.2436010838,0.0402754694,-0.1292244792,-46.5776252747,82.3299789429,25.9823207855,0.0120492578,0.0297731459,0.0311530232,29.5192146301,57.0921936035,-40.9347267151,0.0675731897,0.0031930208,0.0021293759,
1959.803,-3.2011785507,1.3390114307,-155.9441375732,0.0570594370,0.0397135392,0.0106235743,12.8936405182,43.0922241211,153.9177246094,0.2403035760,0.0450358689,-0.1196495295,-47.2044906616,82.2828369141,25.3748760223,0.0129156709,0.0347933769,0.0224066079,29.6504573822,57.0922050476,-40.7737655640,0.0656201839,0.0040634573,0.0198339820,
1959.813,-3.2015838623,1.3400809765,-155.9430847168,0.0604960695,0.0367908888,0.0028119683,12.8315525055,42.7551345825,153.8979644775,0.2350189090,0.0551719517,-0.1266600490,-47.8481826782,82.2276840210,24.7477893829,0.0186453462,0.0282213986,0.0219253600,29.7813720703,57.0932044983,-40.6126670837,0.0788132548,-0.0004259944,0.0023953915,
1959.823,-3.2038636208,1.3410699368,-155.9407501221,0.0570953563,0.0363423005,0.0135567784,12.7580289841,42.4102478027,153.8822631836,0.2379110456,0.0493324697,-0.1264451742,-48.4901962280,82.1673889160,24.1235980988,0.0209438801,0.0217165947,0.0316605568,29.9012145996,57.0962295532,-40.4597244263,0.0685880184,-0.0043198466,0.0098349750,
1959.833,-3.2050886154,1.3417040110,-155.9390258789,0.0600361079,0.0402698740,0.0037925839,12.6828126907,42.0587539673,153.8714294434,0.2358102798,0.0435137451,-0.1282386184,-49.1388587952,82.1055374146,23.4917278290,0.0120071173,0.0250087380,0.0297029316,30.0426120758,57.0978393555,-40.2869377136,0.0744626522,-0.0035168231,0.0110139251,
1959.843,-3.2042658329,1.3414087296,-155.9378662109,0.0610075183,0.0431852415,0.0033032298,12.6163654327,41.7005691528,153.8642578125,0.2389682531,0.0410014838,-0.1217549443,-49.7763290405,82.0431213379,22.8746795654,0.0177162886,0.0341536105,0.0301874280,30.2019233704,57.1020126343,-40.0974922180,0.0671780109,0.0000894666,0.0074296892,
1959.853,-3.2027888298,1.3406171799,-155.9366760254,0.0629468262,0.0475540534,0.0086725950,12.5616836548,41.3439712524,153.8599700928,0.2470037937,0.0344524086,-0.1420491338,-50.4240341187,81.9742431641,22.2507915497,0.0141311884,0.0272873640,0.0321166217,30.3689327240,57.1069297791,-39.8972625732,0.0686894655,0.0026643574,0.0058493912,
1959.863,-3.2025442123,1.3400839567,-155.9355621338,0.0639140904,0.0412021577,0.0018363595,12.5132284164,40.9889869690,153.8496551514,0.2506405711,0.0253999829,-0.1388424635,-51.0685234070,81.9042510986,21.6339130402,0.0149364471,0.0301991999,0.0223413110,30.5422382355,57.1094551086,-39.6897010803,0.0692017078,-0.0016634762,0.0047601461,
1959.873,-3.2030224800,1.3410674334,-155.9332580566,0.0610015616,0.0407221764,0.0018371940,12.4863185883,40.6375350952,153.8468780518,0.2425800562,0.0365984440,-0.1394138336,-51.7289237976,81.8280639648,21.0005760193,0.0162131786,0.0268752277,0.0335588753,30.7219772339,57.1094551086,-39.4744033813,0.0652954578,-0.0011770725,0.0061164200,
1959.883,-3.2027637959,1.3416217566,-155.9315032959,0.0580815449,0.0412059426,0.0008606315,12.4635295868,40.2892990112,153.8442993164,0.2447918653,0.0345774293,-0.1487000585,-52.4092216492,81.7478332520,20.3493881226,0.0135717392,0.0265692174,0.0326033533,30.9048633575,57.1039237976,-39.2560882568,0.0667078495,-0.0002666414,0.0147480071,
1959.893,-3.2016224861,1.3401867151,-155.9296264648,0.0590330698,0.0441157781,0.0130655169,12.4411630630,39.9416542053,153.8465881348,0.2508939505,0.0345146507,-0.1437907219,-53.0820541382,81.6667098999,19.7057056427,0.0153206587,0.0360344946,0.0258009732,31.0842876434,57.0945167542,-39.0373077393,0.0705249310,-0.0032614470,0.0115996301,
