Time(sec),Gyr1_X(deg/sec),Gyr1_Y(deg/sec),Gyr1_Z(deg/sec),Acc1_X(m/s^2),Acc1_Y(m/s^2),Acc1_Z(m/s^2),Gyr2_X(deg/sec),Gyr2_Y(deg/sec),Gyr2_Z(deg/sec),Acc2_X(m/s^2),Acc2_Y(m/s^2),Acc2_Z(m/s^2),Gyr_X(deg/sec),Gyr_Y(deg/sec),Gyr_Z(deg/sec),Acc_X(m/s^2),Acc_Y(m/s^2),Acc_Z(m/s^2),Gyr_X(deg/sec),Gyr_Y(deg/sec),Gyr_Z(deg/sec),Acc_X(m/s^2),Acc_Y(m/s^2),Acc_Z(m/s^2),
1663.153,-3.2384257317,1.3261542320,173.3501892090,0.0617179126,0.0408510007,0.0072372556,-114.4182357788,74.1385269165,-52.3325500488,0.0297964215,0.0564059913,0.0157402158,-5.0326862335,82.7393341064,-170.7308807373,0.0183486342,0.0302761570,0.0179520845,22.4841423035,55.8344764709,-144.9457092285,0.0749772787,0.0043927431,0.0043497682,
1663.163,-3.2365303040,1.3259874582,173.3519744873,0.0607384369,0.0447242297,0.0047933459,-114.4179916382,74.1367797852,-52.3274688721,0.0351591706,0.0564332306,0.0123333186,-5.0397982597,82.7389297485,-170.7299346924,0.0271368027,0.0278511643,0.0208765268,22.4797496796,55.8332443237,-144.9462585449,0.0739886165,0.0034491718,0.0121297836,
1663.173,-3.2376794815,1.3238033056,173.3524932861,0.0655831397,0.0383966491,0.0091884136,-114.4214859009,74.1347045898,-52.3249511719,0.0273367763,0.0589000583,0.0045504123,-5.0468778610,82.7400131226,-170.7282257080,0.0266509056,0.0244473368,0.0223609805,22.4760437012,55.8337249756,-144.9472503662,0.0700870752,0.0034853816,0.0062623620,
1663.183,-3.2397930622,1.3241558075,173.3542175293,0.0592416339,0.0369686112,0.0140730739,-114.4298782349,74.1325912476,-52.3273658752,0.0336743593,0.0559851527,0.0094844401,-5.0521783829,82.7403335571,-170.7264099121,0.0276281834,0.0200641453,0.0248087049,22.4818973541,55.8332748413,-144.9380340576,0.0764303207,0.0117307156,-0.0010448694,
1663.193,-3.2387542725,1.3238352537,173.3554077148,0.0611891672,0.0481809974,0.0057717562,-114.4317703247,74.1322631836,-52.3243751526,0.0263485312,0.0535450280,0.0094949305,-5.0494685173,82.7401962280,-170.7174224854,0.0203036666,0.0273824632,0.0233419538,22.4824161530,55.8338088989,-144.9338836670,0.0783886909,0.0019632280,0.0033574700,
1663.203,-3.2382164001,1.3235534430,173.3559570313,0.0611842498,0.0442653783,0.0126062632,-114.4298324585,74.1291275024,-52.3181266785,0.0312163830,0.0550614595,0.0109730959,-5.0485153198,82.7409515381,-170.7070312500,0.0261647105,0.0239612982,0.0218889117,22.4820575714,55.8358917236,-144.9296875000,0.0696200132,0.0044194460,0.0033849478,
1663.213,-3.2419178486,1.3220767975,173.3558959961,0.0606702045,0.0360291116,0.0047973990,-114.4263992310,74.1313095093,-52.3097114563,0.0297619700,0.0599179268,0.0138726681,-5.0568232536,82.7396545410,-170.7071228027,0.0242087245,0.0230051652,0.0306578279,22.4819908142,55.8340225220,-144.9279937744,0.0715548396,0.0048979819,0.0067770481,
1663.223,-3.2417724133,1.3226296902,173.3563537598,0.0621446930,0.0409093797,0.0018676519,-114.4216232300,74.1328201294,-52.3001747131,0.0312340260,0.0618575811,0.0182359666,-5.0577998161,82.7394180298,-170.6999969482,0.0276261568,0.0264256895,0.0247942209,22.4784908295,55.8336524963,-144.9280700684,0.0739925504,0.0029746294,0.0033419728,
1663.233,-3.2432699203,1.3243772984,173.3573455811,0.0626634657,0.0414237119,0.0096822977,-114.4141006470,74.1326599121,-52.2882995605,0.0356277823,0.0608983636,0.0162511617,-5.0819840431,82.7372817993,-170.7147979736,0.0261566043,0.0225765482,0.0306215286,22.4805583954,55.8349914551,-144.9228210449,0.0784002542,0.0054045767,0.0019016266,
1663.243,-3.2439448833,1.3221263885,173.3597259521,0.0660421625,0.0399706773,0.0057758093,-114.4032363892,74.1335449219,-52.2751617432,0.0292843580,0.0560237169,0.0181508064,-5.0811467171,82.7413406372,-170.7057952881,0.0222592950,0.0264747441,0.0131129026,22.4782371521,55.8361244202,-144.9217681885,0.0686457157,0.0044554323,0.0028856993,
1663.253,-3.2448391914,1.3225789070,173.3620605469,0.0587258413,0.0370565616,0.0057770014,-114.3966598511,74.1359176636,-52.2644653320,0.0332019329,0.0603947341,0.0185938776,-5.0828094482,82.7401962280,-170.6998291016,0.0276278853,0.0235504135,0.0233489275,22.4818000793,55.8356857300,-144.9157409668,0.0749890804,0.0083268136,0.0053333640,
1663.263,-3.2436933517,1.3217939138,173.3626098633,0.0626183897,0.0443608388,0.0038220286,-114.3968505859,74.1370391846,-52.2596969604,0.0249065161,0.0569599569,0.0107743591,-5.0853037834,82.7384109497,-170.6935119629,0.0232294202,0.0235587955,0.0267351866,22.4838581085,55.8345336914,-144.9102478027,0.0779075027,0.0073253512,0.0087447762,
1663.273,-3.2452268600,1.3219665289,173.3637390137,0.0592034347,0.0414578579,-0.0015472174,-114.3966751099,74.1353073120,-52.2557601929,0.0351521373,0.0550327599,0.0093207657,-5.0701246262,82.7354125977,-170.6689453125,0.0295704603,0.0269474387,0.0300996900,22.4806690216,55.8328590393,-144.9109344482,0.0686137676,0.0029504299,0.0101745725,
1663.283,-3.2445955276,1.3219391108,173.3642883301,0.0577381104,0.0404702947,0.0008935928,-114.3894424438,74.1347503662,-52.2449645996,0.0331963897,0.0574969649,0.0166171789,-5.0654654503,82.7333679199,-170.6566619873,0.0232182741,0.0240104944,0.0276222229,22.4800300598,55.8344001770,-144.9102172852,0.0710702538,0.0000351369,-0.0000602603,
1663.293,-3.2449269295,1.3202674389,173.3655090332,0.0616151951,0.0434057936,0.0052878261,-114.3863067627,74.1352462769,-52.2361221313,0.0288041830,0.0584725738,0.0117174387,-5.0714941025,82.7333145142,-170.6551055908,0.0271244049,0.0240240172,0.0198098421,22.4802131653,55.8337135315,-144.9069671631,0.0783877373,0.0019826293,0.0062777400,
1663.303,-3.2453696728,1.3201748133,173.3654174805,0.0601487346,0.0409721024,0.0057764649,-114.3853683472,74.1348419189,-52.2301330566,0.0346616507,0.0579927862,0.0107394159,-5.0672664642,82.7310714722,-170.6426544189,0.0266311765,0.0240178853,0.0295377970,22.4814128876,55.8340339661,-144.9032135010,0.0788791776,0.0058799684,-0.0034779906,
1663.313,-3.2445082664,1.3204044104,173.3671569824,0.0616175830,0.0453516282,0.0082170367,-114.3907623291,74.1338424683,-52.2309112549,0.0356334448,0.0614138842,0.0063754767,-5.0758757591,82.7319564819,-170.6418609619,0.0222386122,0.0240358189,0.0217408538,22.4852542877,55.8348808289,-144.8968658447,0.0788874626,0.0034083128,0.0024060607,
1663.323,-3.2444493771,1.3227186203,173.3682098389,0.0562868714,0.0404677354,0.0067532659,-114.3874130249,74.1330337524,-52.2220191956,0.0385592580,0.0604573488,0.0151555091,-5.0633106232,82.7326889038,-170.6198883057,0.0271230340,0.0269363895,0.0241924524,22.4832153320,55.8358306885,-144.8938903809,0.0774319172,0.0039203018,0.0033879876,
1663.333,-3.2448463440,1.3206796646,173.3694152832,0.0630872250,0.0409629792,0.0101704001,-114.3872375488,74.1360473633,-52.2162437439,0.0273431540,0.0652937889,0.0146457106,-5.0614185333,82.7296447754,-170.6091461182,0.0256514549,0.0230305195,0.0304877758,22.4807357788,55.8331069946,-144.8939514160,0.0817997456,0.0019746572,0.0043191314,
1663.343,-3.2434170246,1.3201023340,173.3705444336,0.0640537143,0.0453326181,0.0013799667,-114.3892593384,74.1372222900,-52.2130851746,0.0322315693,0.0633200407,0.0102516413,-5.0608134270,82.7309341431,-170.6003723145,0.0295605659,0.0254686028,0.0192795396,22.4827747345,55.8323898315,-144.8897399902,0.0749567747,0.0073232949,0.0028522611,
1663.353,-3.2418580055,1.3193211555,173.3717041016,0.0625752509,0.0457937568,-0.0000867248,-114.3993606567,74.1357192993,-52.2180213928,0.0346658230,0.0550208092,0.0020054728,-5.0698428154,82.7297744751,-170.6010894775,0.0266283154,0.0206077397,0.0236552358,22.4858512878,55.8328475952,-144.8846893311,0.0710550547,0.0058331341,0.0028699636,
1663.363,-3.2427175045,1.3178904057,173.3728332520,0.0649916828,0.0394611098,0.0038198233,-114.3967742920,74.1363296509,-52.2086143494,0.0356453061,0.0618541241,0.0151735097,-5.0668573380,82.7297973633,-170.5905303955,0.0232104063,0.0259720460,0.0202382803,22.4892921448,55.8312225342,-144.8792419434,0.0783632994,0.0126289129,0.0004197955,
1663.373,-3.2436954975,1.3196545839,173.3740386963,0.0493974723,0.0433843620,-0.0030145049,-114.3995132446,74.1369628906,-52.2056503296,0.0356483459,0.0608609319,0.0098100752,-5.0789623260,82.7306976318,-170.5944519043,0.0241889358,0.0240444988,0.0187918544,22.4936618805,55.8308258057,-144.8735046387,0.0842188001,0.0096574426,0.0014075637,
1663.383,-3.2436668873,1.3195888996,173.3751678467,0.0601385124,0.0404541716,0.0013801455,-114.3914260864,74.1389236450,-52.1930503845,0.0312631726,0.0618250966,0.0151322037,-5.0743083954,82.7334213257,-170.5823059082,0.0241949558,0.0274480283,0.0198131204,22.4930591583,55.8282737732,-144.8715820313,0.0822406411,0.0081839710,0.0067422986,
1663.393,-3.2436130047,1.3183281422,173.3757476807,0.0620696396,0.0448477864,0.0018678308,-114.3949050903,74.1392669678,-52.1935768127,0.0283350945,0.0598582923,0.0034263730,-5.0815610886,82.7344970703,-170.5820465088,0.0198028088,0.0259977430,0.0212972760,22.4899158478,55.8289642334,-144.8703460693,0.0768763423,0.0033334792,0.0062515736,
1663.403,-3.2422032356,1.3171525002,173.3757629395,0.0596077144,0.0453115404,0.0043070316,-114.3971099854,74.1374053955,-52.1901054382,0.0278379321,0.0550005734,0.0078433454,-5.0772929192,82.7354736328,-170.5696563721,0.0285940170,0.0269633681,0.0208241940,22.4872283936,55.8316421509,-144.8698883057,0.0739729404,-0.0005336106,-0.0010470152,
1663.413,-3.2438759804,1.3190588951,173.3761901855,0.0576878563,0.0365515724,0.0096808076,-114.3951644897,74.1373901367,-52.1825714111,0.0249081850,0.0608640015,0.0136943758,-5.0745339394,82.7349014282,-170.5600280762,0.0261513591,0.0274463594,0.0261850357,22.4883651733,55.8331909180,-144.8651275635,0.0769177675,0.0043473989,-0.0024870038,
1663.423,-3.2411401272,1.3198385239,173.3785095215,0.0596545860,0.0433398336,0.0038191080,-114.3864822388,74.1410140991,-52.1698570251,0.0317614079,0.0632665157,0.0219322592,-5.0917215347,82.7314224243,-170.5702362061,0.0246788263,0.0221187249,0.0310135484,22.4915084839,55.8347702026,-144.8595275879,0.0691207647,0.0057924986,-0.0005010366,
1663.433,-3.2384171486,1.3198146820,173.3809204102,0.0581893250,0.0432923958,0.0038160086,-114.3778533936,74.1408996582,-52.1563758850,0.0342022777,0.0579149723,0.0175007433,-5.1081337929,82.7333374023,-170.5790252686,0.0285893083,0.0221523717,0.0124947429,22.4889221191,55.8345069885,-144.8589477539,0.0754658580,0.0014199615,0.0038802624,
1663.443,-3.2388613224,1.3184971809,173.3826904297,0.0625608712,0.0408587605,0.0033278465,-114.3743896484,74.1437759399,-52.1484680176,0.0307980180,0.0647132397,0.0145361722,-5.1044917107,82.7308807373,-170.5666351318,0.0237010717,0.0260542557,0.0310068130,22.4857406616,55.8360786438,-144.8585815430,0.0759695172,0.0029222518,0.0043774843,
1663.453,-3.2366547585,1.3189438581,173.3820495605,0.0562210046,0.0437499955,0.0126034021,-114.3625106812,74.1447372437,-52.1315689087,0.0356854200,0.0603275895,0.0178958327,-5.1242575645,82.7317733765,-170.5781250000,0.0232147574,0.0207258686,0.0188186169,22.4880142212,55.8346099854,-144.8534393311,0.0735137463,0.0082646608,0.0033900142,
1663.463,-3.2370376587,1.3187589645,173.3825988770,0.0606123097,0.0432683900,0.0062556267,-114.3490600586,74.1450805664,-52.1129570007,0.0293393731,0.0583964884,0.0241823345,-5.1148834229,82.7308807373,-170.5617828369,0.0261424780,0.0260774344,0.0212430358,22.4910964966,55.8336105347,-144.8457641602,0.0778984427,0.0116492212,0.0038764477,
1663.473,-3.2348468304,1.3204281330,173.3843994141,0.0523406565,0.0456715971,0.0101606846,-114.3503341675,74.1432876587,-52.1100883484,0.0386081934,0.0623261631,0.0066222548,-5.1042962074,82.7305831909,-170.5431518555,0.0217472911,0.0294723064,0.0285594463,22.4905624390,55.8316535950,-144.8429718018,0.0783675313,0.0028541982,0.0038483143,
1663.483,-3.2340126038,1.3200534582,173.3855895996,0.0591700524,0.0432156660,0.0038119555,-114.3576812744,74.1430130005,-52.1122131348,0.0273764133,0.0598759353,0.0051912218,-5.1050057411,82.7306594849,-170.5343627930,0.0217474699,0.0231260359,0.0202612281,22.4919624329,55.8330726624,-144.8381652832,0.0661743879,0.0052906871,0.0053372383,
1663.493,-3.2360298634,1.3193464279,173.3867187500,0.0625756830,0.0417859778,0.0067434907,-114.3491592407,74.1424636841,-52.0990066528,0.0342097282,0.0569705367,0.0188297629,-5.1103572845,82.7320709229,-170.5328369141,0.0256568193,0.0265538618,0.0173553228,22.4904155731,55.8319320679,-144.8364410400,0.0783702731,0.0043218881,0.0092225671,
1663.503,-3.2361185551,1.3206453323,173.3878326416,0.0577155389,0.0442289039,0.0072324276,-114.3439941406,74.1461639404,-52.0890083313,0.0342273712,0.0627839267,0.0178051144,-5.1188292503,82.7307510376,-170.5329284668,0.0266304612,0.0187622383,0.0261239409,22.4902172089,55.8355026245,-144.8325347900,0.0754755735,-0.0000511706,-0.0034259558,
1663.513,-3.2368092537,1.3216387033,173.3877716064,0.0543149039,0.0378932506,0.0091866851,-114.3462677002,74.1471557617,-52.0858764648,0.0308141112,0.0564166605,0.0119488537,-5.1124725342,82.7307510376,-170.5171508789,0.0280953050,0.0260722563,0.0178223252,22.4870471954,55.8344993591,-144.8324127197,0.0793719888,0.0004603416,0.0043613911,
1663.523,-3.2352974415,1.3198258877,173.3883666992,0.0620957725,0.0412849300,0.0082077980,-114.3592834473,74.1475677490,-52.0941429138,0.0347223282,0.0598028600,0.0080965757,-5.1303358078,82.7304534912,-170.5267486572,0.0202821493,0.0212297291,0.0212385654,22.4854640961,55.8307380676,-144.8308410645,0.0793351531,0.0028953254,0.0135827065,
1663.533,-3.2346260548,1.3199276924,173.3907012939,0.0601444207,0.0402966663,0.0111369491,-114.3572692871,74.1475753784,-52.0865364075,0.0273981690,0.0573645234,0.0119938701,-5.1234197617,82.7307510376,-170.5122680664,0.0280953050,0.0256084129,0.0231951475,22.4876422882,55.8295516968,-144.8260040283,0.0803000927,0.0077518374,0.0003913045,
1663.543,-3.2337403297,1.3220847845,173.3924713135,0.0528578386,0.0432108715,0.0130900741,-114.3546829224,74.1490554810,-52.0784339905,0.0274052024,0.0593011975,0.0144137740,-5.1280665398,82.7294540405,-170.5100250244,0.0251627564,0.0261089578,0.0241514444,22.4858722687,55.8305702209,-144.8235321045,0.0783569217,0.0048438013,-0.0044845939,
1663.553,-3.2354941368,1.3214668036,173.3941650391,0.0645658076,0.0383586325,0.0077204704,-114.3548965454,74.1507110596,-52.0727386475,0.0332724452,0.0622051060,0.0090322644,-5.1286520958,82.7285003662,-170.5023345947,0.0305317640,0.0222055912,0.0207157135,22.4847183228,55.8291282654,-144.8211212158,0.0763896704,0.0067993999,0.0086753368,
1663.563,-3.2363548279,1.3211551905,173.3965454102,0.0591892824,0.0393501893,0.0038149357,-114.3545150757,74.1513442993,-52.0664710999,0.0327872038,0.0587778389,0.0080497265,-5.1250891685,82.7297744751,-170.4912109375,0.0222337842,0.0265902132,0.0163424611,22.4907169342,55.8313217163,-144.8133239746,0.0817822814,0.0033391714,-0.0034798980,
1663.573,-3.2356953621,1.3224393129,173.3963775635,0.0596999675,0.0383621156,0.0082089305,-114.3546676636,74.1526107788,-52.0614356995,0.0283987522,0.0602232814,0.0095062703,-5.1343584061,82.7285003662,-170.4936218262,0.0276020765,0.0261245295,0.0236469507,22.4887218475,55.8284759521,-144.8121795654,0.0798012018,0.0077361017,0.0077052712,
1663.583,-3.2362020016,1.3250975609,173.3974914551,0.0509572849,0.0383708812,0.0126053691,-114.3608474731,74.1522293091,-52.0628242493,0.0323031545,0.0626581013,0.0041649342,-5.1273536682,82.7280426025,-170.4791259766,0.0236948133,0.0275744572,0.0285205841,22.4908332825,55.8306350708,-144.8085021973,0.0729864836,0.0072405934,0.0038357377,
1663.593,-3.2376213074,1.3228864670,173.3986663818,0.0636140183,0.0374190956,0.0082109571,-114.3565597534,74.1506652832,-52.0534629822,0.0357136726,0.0534130335,0.0100164413,-5.1220335960,82.7275619507,-170.4649047852,0.0290648341,0.0231687129,0.0211883783,22.4907970428,55.8312225342,-144.8065338135,0.0759218931,0.0077324361,0.0067729354,
1663.603,-3.2372195721,1.3236212730,173.4003295898,0.0641151220,0.0437597334,0.0077229142,-114.3533554077,74.1512145996,-52.0460968018,0.0347397327,0.0582943857,0.0153696388,-5.1313333511,82.7262115479,-170.4653625488,0.0315032601,0.0227033272,0.0236072540,22.4892921448,55.8323936462,-144.8048553467,0.0720271468,0.0048228800,-0.0000528693,
1663.613,-3.2358918190,1.3228430748,173.4015197754,0.0606835783,0.0427600518,0.0067448020,-114.3550949097,74.1498565674,-52.0418090820,0.0283855796,0.0587993264,0.0051328689,-5.1320171356,82.7256240845,-170.4559478760,0.0232011676,0.0231939554,0.0201805234,22.4891834259,55.8330307007,-144.8003082275,0.0686154366,0.0053156912,0.0067912340,
1663.623,-3.2356414795,1.3238921165,173.4033050537,0.0543542206,0.0432439558,0.0047917366,-114.3476181030,74.1492385864,-52.0305557251,0.0342420340,0.0593125820,0.0148700476,-5.1226186752,82.7264099121,-170.4403839111,0.0241794586,0.0304960087,0.0221451521,22.4844207764,55.8317031860,-144.8013763428,0.0705555081,0.0009569228,0.0052908063,
1663.633,-3.2348153591,1.3223047256,173.4039154053,0.0611624643,0.0432295986,0.0043022037,-114.3519592285,74.1495208740,-52.0286369324,0.0313136578,0.0612519383,0.0100041926,-5.1208434105,82.7292327881,-170.4305114746,0.0256505609,0.0285346359,0.0148684382,22.4850730896,55.8336639404,-144.7973022461,0.0695981979,0.0043798387,-0.0034697056,
1663.643,-3.2362310886,1.3239486217,173.4062500000,0.0548434854,0.0393479764,0.0150462985,-114.3523864746,74.1475143433,-52.0241165161,0.0308158398,0.0568880439,0.0109963268,-5.0952138901,82.7263717651,-170.3967590332,0.0266208053,0.0289701223,0.0284865499,22.4865779877,55.8357276917,-144.7931060791,0.0735246539,0.0082838535,0.0033994913,
1663.653,-3.2353935242,1.3236490488,173.4080505371,0.0611859187,0.0495872982,0.0043031573,-114.3563232422,74.1461181641,-52.0226211548,0.0371568203,0.0554352999,0.0100467503,-5.0909361839,82.7257308960,-170.3847808838,0.0280842185,0.0221256688,0.0221265554,22.4865245819,55.8365707397,-144.7900238037,0.0720680952,0.0009647608,0.0048753619,
1663.663,-3.2341220379,1.3235204220,173.4092864990,0.0563008636,0.0446823314,0.0077199340,-114.3582229614,74.1454772949,-52.0193138123,0.0293412805,0.0632554889,0.0095710903,-5.0851445198,82.7245712280,-170.3707885742,0.0236871243,0.0250441357,0.0265009999,22.4866619110,55.8363990784,-144.7848358154,0.0793906450,0.0024273396,0.0043846369,
1663.673,-3.2340707779,1.3231240511,173.4092254639,0.0592236295,0.0383337922,0.0101607442,-114.3486709595,74.1488952637,-52.0036964417,0.0298458934,0.0612675250,0.0197597742,-5.0883030891,82.7251358032,-170.3656463623,0.0232000947,0.0216324106,0.0206512213,22.4829521179,55.8383445740,-144.7839965820,0.0750151873,-0.0014344454,-0.0019499063,
1663.683,-3.2369031906,1.3228399754,173.4091186523,0.0611717999,0.0388714336,0.0155347586,-114.3549804688,74.1476135254,-52.0050468445,0.0278866291,0.0544401407,0.0066124499,-5.0739254951,82.7244338989,-170.3444519043,0.0261282325,0.0303904787,0.0250307322,22.4820137024,55.8379402161,-144.7821044922,0.0803822875,0.0005248934,0.0024349689,
1663.693,-3.2387182713,1.3225175142,173.4114837646,0.0616544560,0.0423210226,0.0116301775,-114.3547668457,74.1482925415,-52.0007247925,0.0376554728,0.0607766807,0.0153961480,-5.0598940849,82.7213287354,-170.3229827881,0.0236799717,0.0298754722,0.0269296169,22.4840259552,55.8395652771,-144.7769927979,0.0838161707,0.0029570013,-0.0053483248,
1663.703,-3.2400517464,1.3226159811,173.4120025635,0.0597030483,0.0399028398,0.0087018013,-114.3471908569,74.1496124268,-51.9886932373,0.0327789783,0.0583314896,0.0138890296,-5.0423865318,82.7201538086,-170.2980346680,0.0246539116,0.0298382640,0.0293460488,22.4858016968,55.8438796997,-144.7718200684,0.0682334900,0.0034530908,0.0000873804,
1663.713,-3.2400341034,1.3230522871,173.4131622314,0.0562926903,0.0403908081,0.0023543239,-114.3442764282,74.1489791870,-51.9826469421,0.0327759385,0.0593219399,0.0124159604,-5.0383281708,82.7196960449,-170.2857360840,0.0261177421,0.0244587362,0.0215260386,22.4851799011,55.8409996033,-144.7697906494,0.0794357061,0.0049076378,0.0098121166,
1663.723,-3.2400271893,1.3229621649,173.4149017334,0.0601973757,0.0403906927,-0.0025283694,-114.3429489136,74.1518936157,-51.9769973755,0.0332781076,0.0597686172,0.0128782541,-5.0326170921,82.7213287354,-170.2719421387,0.0231916904,0.0278615952,0.0195982456,22.4825096130,55.8400573730,-144.7692565918,0.0750319362,0.0024852008,0.0068597198,
1663.733,-3.2374703884,1.3233432770,173.4167327881,0.0567860529,0.0491352007,0.0077227950,-114.3379440308,74.1524581909,-51.9682006836,0.0240034461,0.0597705543,0.0133408308,-5.0401649475,82.7236022949,-170.2705841064,0.0295443535,0.0225037932,0.0132928491,22.4828910828,55.8405799866,-144.7651214600,0.0760136247,0.0049260557,0.0024737120,
1663.743,-3.2364461422,1.3256492615,173.4184722900,0.0543848798,0.0437462106,0.0096761584,-114.3335266113,74.1525344849,-51.9579086304,0.0298631787,0.0548947453,0.0167390555,-5.0520138741,82.7236251831,-170.2735900879,0.0275912881,0.0220419988,0.0215950012,22.4838275909,55.8444175720,-144.7604675293,0.0750746727,0.0034739077,-0.0121201277,
1663.753,-3.2368373871,1.3251932859,173.4196014404,0.0592597350,0.0369171053,-0.0015541911,-114.3344268799,74.1529083252,-51.9539833069,0.0318180919,0.0563529432,0.0118574947,-5.0647592545,82.7242202759,-170.2780609131,0.0275925994,0.0215812474,0.0235609412,22.4848651886,55.8452758789,-144.7583770752,0.0745948553,0.0078637749,0.0015671253,
1663.763,-3.2388677597,1.3261065483,173.4194946289,0.0568342656,0.0374407321,0.0121201873,-114.3357925415,74.1539154053,-51.9499969482,0.0347526073,0.0612170994,0.0152744353,-5.0479421616,82.7228164673,-170.2525024414,0.0285660625,0.0278934985,0.0313463211,22.4822692871,55.8431472778,-144.7596740723,0.0804333091,0.0039692819,0.0142243505,
1663.773,-3.2399592400,1.3252656460,173.4212493896,0.0631672516,0.0428308621,0.0067494512,-114.3399429321,74.1526565552,-51.9478263855,0.0308403373,0.0582979023,0.0079771280,-5.0600695610,82.7256774902,-170.2568664551,0.0236895680,0.0181505829,0.0206555724,22.4770107269,55.8389015198,-144.7614898682,0.0774620175,0.0044817924,0.0121949315,
1663.783,-3.2392139435,1.3245697021,173.4223937988,0.0626668260,0.0428178906,0.0101670027,-114.3470687866,74.1514511108,-51.9483566284,0.0342525840,0.0641623139,0.0060631931,-5.0626029968,82.7255096436,-170.2505798340,0.0246657729,0.0240159109,0.0250471830,22.4793739319,55.8368530273,-144.7570037842,0.0803716779,0.0083553791,0.0038756728,
1663.793,-3.2409317493,1.3244551420,173.4241180420,0.0607117042,0.0384532884,0.0091915131,-114.3337326050,74.1503219604,-51.9309844971,0.0352237225,0.0578577220,0.0216380060,-5.0604734421,82.7253723145,-170.2404479980,0.0275951624,0.0298707634,0.0245559216,22.4808864594,55.8366012573,-144.7520446777,0.0759746432,0.0127347410,0.0048545003,
1663.803,-3.2422552109,1.3264689445,173.4257812500,0.0573288724,0.0399411395,0.0028461814,-114.3324050903,74.1510925293,-51.9245414734,0.0308328867,0.0627318919,0.0123495162,-5.0580143929,82.7252731323,-170.2310333252,0.0212472677,0.0254708305,0.0230897665,22.4797763824,55.8374824524,-144.7501525879,0.0784246922,0.0039606392,0.0038856268,
1663.813,-3.2431466579,1.3269959688,173.4250946045,0.0578263476,0.0394683778,0.0048005581,-114.3306655884,74.1518859863,-51.9185180664,0.0274186730,0.0602817237,0.0138013065,-5.0527262688,82.7279434204,-170.2163696289,0.0241828561,0.0264316797,0.0202029943,22.4792366028,55.8367271423,-144.7480316162,0.0784173012,0.0020081997,0.0024086833,
1663.823,-3.2436747551,1.3281674385,173.4261779785,0.0602881908,0.0448486470,0.0067542791,-114.3348083496,74.1506805420,-51.9175071716,0.0303426385,0.0588265657,0.0069918036,-5.0591931343,82.7245712280,-170.2145538330,0.0290582180,0.0210800469,0.0284483433,22.4806747437,55.8383407593,-144.7432098389,0.0701323152,0.0088400245,0.0043888092,
1663.833,-3.2435071468,1.3285286427,173.4272766113,0.0607827790,0.0409394689,0.0013834834,-114.3314514160,74.1493606567,-51.9099540710,0.0283832550,0.0573891103,0.0143104047,-5.0616254807,82.7251892090,-170.2095336914,0.0227119327,0.0279205069,0.0225995779,22.4834632874,55.8363761902,-144.7395172119,0.0793904066,0.0068508238,0.0024198890,
1663.843,-3.2427225113,1.3297331333,173.4272155762,0.0554326996,0.0453203022,-0.0000817180,-114.3322906494,74.1484527588,-51.9047431946,0.0322851539,0.0583778918,0.0133437514,-5.0486712456,82.7254867554,-170.1878509521,0.0222243071,0.0288676769,0.0221144557,22.4852333069,55.8369331360,-144.7353820801,0.0759778619,0.0048846304,-0.0000082254,
1663.853,-3.2423722744,1.3308919668,173.4283905029,0.0559412017,0.0458024554,0.0033364892,-114.3279953003,74.1494827271,-51.8956069946,0.0313134789,0.0627646744,0.0172242969,-5.0464973450,82.7262725830,-170.1782073975,0.0241791606,0.0278851017,0.0240802765,22.4893302917,55.8377799988,-144.7279510498,0.0794041753,0.0077820420,0.0034375787,
1663.863,-3.2423882484,1.3319509029,173.4307403564,0.0569362417,0.0399433337,0.0160322189,-114.3369674683,74.1491394043,-51.9006996155,0.0391243696,0.0612879395,0.0060351342,-5.0467777252,82.7264099121,-170.1703796387,0.0236911774,0.0269089490,0.0240828395,22.4892234802,55.8414802551,-144.7257537842,0.0691865087,0.0029204637,-0.0004209280,
1663.873,-3.2429664135,1.3330039978,173.4312133789,0.0584194586,0.0404416621,0.0062676668,-114.3331680298,74.1505813599,-51.8925590515,0.0308304429,0.0622494519,0.0147977769,-5.0409283638,82.7248153687,-170.1564025879,0.0305235982,0.0268982947,0.0269843340,22.4912681580,55.8439826965,-144.7215270996,0.0740938783,0.0048690140,-0.0037965178,
1663.883,-3.2426760197,1.3358459473,173.4329071045,0.0545627996,0.0433662310,0.0067563653,-114.3346862793,74.1506118774,-51.8900566101,0.0347368717,0.0627347827,0.0167572796,-5.0470318794,82.7241134644,-170.1554718018,0.0222212672,0.0215418786,0.0269733667,22.4905261993,55.8409729004,-144.7186279297,0.0833417177,0.0058355778,0.0069014430,
1663.893,-3.2419238091,1.3337750435,173.4346923828,0.0652688518,0.0428648852,0.0052906275,-114.3302001953,74.1504440308,-51.8812408447,0.0283883810,0.0563984811,0.0128326714,-5.0505900383,82.7240829468,-170.1526184082,0.0266157389,0.0225264356,0.0240436792,22.4901828766,55.8448944092,-144.7172546387,0.0750793815,0.0014659166,-0.0023237467,
1663.903,-3.2419831753,1.3343908787,173.4364776611,0.0579553768,0.0443307534,0.0033372641,-114.3436203003,74.1488647461,-51.8882675171,0.0386347771,0.0583486259,0.0026481599,-5.0489621162,82.7262954712,-170.1421356201,0.0222260952,0.0244725943,0.0152921081,22.4942836761,55.8436508179,-144.7128143311,0.0745788813,0.0111874044,0.0025568008,
1663.913,-3.2401554585,1.3351771832,173.4369659424,0.0613870695,0.0467403047,0.0033360720,-114.3435516357,74.1487731934,-51.8831253052,0.0303335786,0.0583508313,0.0099726617,-5.0685353279,82.7263259888,-170.1535339355,0.0280855298,0.0225631073,0.0231086016,22.4969234467,55.8437347412,-144.7078247070,0.0745797157,0.0101875216,0.0094048977,
1663.923,-3.2402801514,1.3337358236,173.4375152588,0.0628267676,0.0399065688,0.0052883029,-114.3384246826,74.1509857178,-51.8733711243,0.0303441286,0.0597913265,0.0109116286,-5.0866460800,82.7242202759,-170.1634521484,0.0271043181,0.0226066634,0.0304008722,22.4976043701,55.8426742554,-144.7044830322,0.0779873133,0.0052925646,0.0079272985,
1663.933,-3.2425007820,1.3342375755,173.4385986328,0.0584409870,0.0345741510,0.0096855760,-114.3322677612,74.1470642090,-51.8640670776,0.0317902565,0.0515625477,0.0104235262,-5.0962018967,82.7225189209,-170.1659240723,0.0285654068,0.0197008252,0.0269562602,22.4947204590,55.8420982361,-144.7051086426,0.0750519633,0.0043390691,0.0088863373,
1663.943,-3.2409801483,1.3351664543,173.4397430420,0.0589454733,0.0477312319,0.0052899718,-114.3332214355,74.1454925537,-51.8599967957,0.0327593088,0.0608629882,0.0114151239,-5.0882239342,82.7219772339,-170.1509552002,0.0280759335,0.0255432576,0.0176677108,22.4924068451,55.8432998657,-144.7034759521,0.0682277679,0.0009485930,0.0025452971,
1663.953,-3.2413406372,1.3355370760,173.4403381348,0.0565105379,0.0433429629,0.0057787299,-114.3421936035,74.1447830200,-51.8645324707,0.0342207551,0.0632969439,0.0075530261,-5.0766158104,82.7227096558,-170.1323394775,0.0241712928,0.0255161673,0.0201205611,22.4937915802,55.8443336487,-144.6986236572,0.0799566507,0.0043597519,-0.0052477717,
1663.963,-3.2422547340,1.3362997770,173.4414367676,0.0594535321,0.0414057486,0.0033386350,-114.3471374512,74.1449279785,-51.8632507324,0.0337331891,0.0593783855,0.0095265657,-5.0625557899,82.7229766846,-170.1101989746,0.0310078263,0.0289024040,0.0210981965,22.4969406128,55.8466033936,-144.6932220459,0.0775374770,0.0043437928,-0.0061823130,
1663.973,-3.2419645786,1.3360542059,173.4438323975,0.0589609630,0.0433538295,0.0038263798,-114.3492584229,74.1435470581,-51.8612480164,0.0322617888,0.0559778810,0.0119866729,-5.0616002083,82.7244033813,-170.1024322510,0.0212453604,0.0293864086,0.0201457143,22.4924392700,55.8413009644,-144.6913604736,0.0813918114,0.0028904080,0.0152144432,
1663.983,-3.2421152592,1.3366993666,173.4443359375,0.0599487834,0.0418915898,0.0091977715,-114.3489685059,74.1434707642,-51.8551521301,0.0288434029,0.0579322577,0.0085680932,-5.0658521652,82.7251663208,-170.0986633301,0.0275946856,0.0293948203,0.0172286630,22.4958515167,55.8388099670,-144.6873168945,0.0735548735,0.0126113445,0.0107994080,
1663.993,-3.2435626984,1.3368204832,173.4448852539,0.0575094894,0.0394754075,0.0096877217,-114.3515701294,74.1457748413,-51.8521003723,0.0352020860,0.0593567491,0.0100283176,-5.0666508675,82.7234344482,-170.0899810791,0.0231963396,0.0225632042,0.0303840041,22.4980411530,55.8398895264,-144.6831359863,0.0735654831,0.0072263926,-0.0004084110,
1664.003,-3.2439346313,1.3395771980,173.4477844238,0.0551161841,0.0409466587,0.0072476268,-114.3492965698,74.1449661255,-51.8429374695,0.0351982117,0.0598619580,0.0129537731,-5.0507645607,82.7219238281,-170.0665435791,0.0280758142,0.0269245356,0.0274258256,22.4992389679,55.8404808044,-144.6772003174,0.0789423585,0.0028242767,-0.0013725758,
1664.013,-3.2426006794,1.3379421234,173.4465179443,0.0653415620,0.0472711176,0.0067574978,-114.3482055664,74.1459274292,-51.8364334106,0.0269020200,0.0583846271,0.0144071132,-5.0578975677,82.7223281860,-170.0642852783,0.0266118646,0.0244984478,0.0225511789,22.4987487793,55.8411674500,-144.6749877930,0.0716248751,0.0042973459,-0.0008769035,
1664.023,-3.2412719727,1.3398560286,173.4471435547,0.0512147993,0.0492010489,0.0091982484,-114.3648376465,74.1472320557,-51.8447074890,0.0322793126,0.0641914904,0.0027518868,-5.0722599030,82.7262954712,-170.0693206787,0.0275971889,0.0264777020,0.0123667717,22.4984817505,55.8410148621,-144.6710205078,0.0755296350,0.0057637841,0.0030262470,
1664.033,-3.2414281368,1.3393871784,173.4470214844,0.0634136498,0.0399264321,0.0008974671,-114.3665542603,74.1443481445,-51.8406257629,0.0351952910,0.0534892380,0.0057090670,-5.0660758018,82.7285003662,-170.0543518066,0.0236958265,0.0264604688,0.0192405581,22.4988117218,55.8415031433,-144.6667327881,0.0760226846,0.0077166259,0.0025457740,
1664.043,-3.2417440414,1.3370876312,173.4476623535,0.0638618022,0.0477444939,0.0096859932,-114.3738861084,74.1437759399,-51.8417205811,0.0322628617,0.0554375947,0.0062333047,-5.0730624199,82.7289657593,-170.0531311035,0.0261382461,0.0240339786,0.0182726383,22.4965000153,55.8406524658,-144.6654663086,0.0735729337,0.0018734932,0.0093615651,
1664.053,-3.2411658764,1.3380475044,173.4482727051,0.0546012148,0.0487109609,0.0106623769,-114.3666229248,74.1450653076,-51.8290519714,0.0298275948,0.0598261356,0.0183997005,-5.0573067665,82.7281265259,-170.0275573730,0.0236949921,0.0323009118,0.0197199583,22.5000591278,55.8406600952,-144.6595001221,0.0774792433,0.0067241043,0.0093749762,
1664.063,-3.2409934998,1.3367333412,173.4482116699,0.0643439069,0.0452900156,0.0038257837,-114.3710098267,74.1475524902,-51.8277473450,0.0327691436,0.0641744435,0.0105892271,-5.0607891083,82.7261047363,-170.0217590332,0.0261319280,0.0274290219,0.0270088911,22.5013885498,55.8413848877,-144.6560974121,0.0769981146,-0.0020730048,-0.0008642077,
1664.073,-3.2415912151,1.3384687901,173.4499053955,0.0585148111,0.0423707105,0.0091981888,-114.3806381226,74.1481475830,-51.8319931030,0.0342367887,0.0587751567,0.0096505582,-5.0657916069,82.7266159058,-170.0203094482,0.0271096230,0.0220682099,0.0196958184,22.5045089722,55.8410263062,-144.6501464844,0.0755296946,0.0076623708,-0.0003690124,
1664.083,-3.2409927845,1.3390541077,173.4510498047,0.0580367446,0.0423602685,0.0062677860,-114.3798675537,74.1504135132,-51.8260536194,0.0332710743,0.0597191751,0.0101196021,-5.0837893486,82.7273483276,-170.0306701660,0.0280877948,0.0211306661,0.0206885338,22.5085964203,55.8402938843,-144.6425628662,0.0740576982,0.0095744431,0.0006131530,
1664.093,-3.2402358055,1.3394247293,173.4515838623,0.0585314929,0.0408822298,0.0023611784,-114.3782501221,74.1502685547,-51.8190460205,0.0337586403,0.0563060045,0.0140199065,-5.0842909813,82.7262115479,-170.0235748291,0.0261321664,0.0240632370,0.0260395408,22.5089855194,55.8385658264,-144.6408386230,0.0784353018,0.0076082349,0.0064510107,
1664.103,-3.2394206524,1.3376740217,173.4515838623,0.0614306331,0.0433094725,-0.0005700588,-114.3779907227,74.1482620239,-51.8138008118,0.0317959785,0.0548723340,0.0096380562,-5.0722856522,82.7245712280,-170.0050811768,0.0305230618,0.0225740746,0.0230799317,22.5108242035,55.8412933350,-144.6357421875,0.0769971609,0.0032121241,-0.0022948980,
1664.113,-3.2377808094,1.3408989906,173.4526519775,0.0551392511,0.0481636412,0.0033360720,-114.3774719238,74.1467132568,-51.8094749451,0.0376479626,0.0578269362,0.0101348162,-5.0835390091,82.7245407104,-170.0076751709,0.0236870646,0.0265054554,0.0284530520,22.5075855255,55.8408317566,-144.6356658936,0.0799223781,0.0042155385,0.0045229197,
1664.123,-3.2386722565,1.3418836594,173.4531402588,0.0585743971,0.0393900909,0.0038256049,-114.3800659180,74.1466903687,-51.8069801331,0.0366712809,0.0631927252,0.0106346458,-5.0686626434,82.7227630615,-169.9841003418,0.0319839120,0.0289164260,0.0279305577,22.5002822876,55.8395652771,-144.6402893066,0.0725857019,-0.0045143962,0.0142443776,
1664.133,-3.2379126549,1.3428704739,173.4554748535,0.0590799004,0.0427948050,0.0082197785,-114.3813705444,74.1465759277,-51.8050460815,0.0337410569,0.0602626503,0.0096644163,-5.0664715767,82.7236251831,-169.9736480713,0.0246616006,0.0240274072,0.0152498484,22.5004520416,55.8396224976,-144.6379241943,0.0764924884,0.0042733550,0.0005732179,
1664.143,-3.2364006042,1.3424937725,173.4578094482,0.0639561415,0.0432567522,0.0106595755,-114.3807525635,74.1461181641,-51.8002777100,0.0308091640,0.0617357194,0.0155243874,-5.0526981354,82.7218170166,-169.9518432617,0.0270990133,0.0303469747,0.0284010768,22.5015068054,55.8383026123,-144.6341247559,0.0720850825,0.0081627816,0.0049543381,
1664.153,-3.2362656593,1.3416250944,173.4583435059,0.0629644170,0.0408130176,0.0052875876,-114.3821640015,74.1458358765,-51.7955398560,0.0254367590,0.0612487793,0.0130909830,-5.0407123566,82.7245712280,-169.9335021973,0.0275933743,0.0259216502,0.0216084123,22.4996223450,55.8372230530,-144.6325531006,0.0750041604,0.0047559738,0.0039566755,
1664.163,-3.2353498936,1.3414344788,173.4595031738,0.0605196878,0.0456798784,-0.0000838637,-114.3831100464,74.1437606812,-51.7913665771,0.0327510834,0.0573723316,0.0087149441,-5.0396299362,82.7243804932,-169.9231109619,0.0280812383,0.0278725326,0.0201417804,22.5018558502,55.8367881775,-144.6280517578,0.0745115876,0.0076628923,0.0044466853,
1664.173,-3.2333869934,1.3421212435,173.4612274170,0.0619965121,0.0471105129,0.0038203001,-114.3892364502,74.1448287964,-51.7919769287,0.0283616185,0.0617387593,0.0106874257,-5.0520296097,82.7261886597,-169.9280090332,0.0241789818,0.0259444788,0.0182201266,22.5009880066,55.8365097046,-144.6245422363,0.0710909367,0.0062045306,0.0068822503,
1664.183,-3.2331581116,1.3403052092,173.4624786377,0.0600116998,0.0432003140,0.0062609315,-114.3855819702,74.1453094482,-51.7826271057,0.0283639431,0.0583201051,0.0121329874,-5.0526561737,82.7273483276,-169.9199981689,0.0261346698,0.0293620005,0.0221474767,22.5004425049,55.8353118896,-144.6229095459,0.0764502883,0.0047379285,0.0034455657,
1664.193,-3.2331836224,1.3396331072,173.4643402100,0.0580468476,0.0466187447,-0.0005756617,-114.3955993652,74.1456909180,-51.7893180847,0.0317837000,0.0626892447,0.0048498511,-5.0618391037,82.7288284302,-169.9198455811,0.0251613855,0.0259624198,0.0172897577,22.5020370483,55.8328590393,-144.6194763184,0.0739848614,0.0110576749,0.0083019137,
1664.203,-3.2338142395,1.3412166834,173.4649047852,0.0522151031,0.0402820371,0.0038207769,-114.3999176025,74.1448669434,-51.7886924744,0.0303149223,0.0578111708,0.0092688352,-5.0565800667,82.7298278809,-169.9076690674,0.0271167159,0.0269256458,0.0226783752,22.5030403137,55.8314552307,-144.6155395508,0.0803187490,0.0085993707,-0.0005019903,
1664.213,-3.2335801125,1.3390340805,173.4666595459,0.0678020194,0.0432076976,0.0052840114,-114.4121856689,74.1451873779,-51.7976913452,0.0327578783,0.0597338080,0.0029724836,-5.0392508507,82.7301254272,-169.8822174072,0.0261408091,0.0283514634,0.0260972977,22.5030879974,55.8280868530,-144.6121826172,0.0783326030,0.0085803419,0.0062892437,
1664.223,-3.2331378460,1.3382241726,173.4672393799,0.0609519519,0.0417351723,0.0145607591,-114.4193267822,74.1441955566,-51.7996253967,0.0288468599,0.0577836037,0.0044753700,-5.0292363167,82.7314224243,-169.8655090332,0.0256553888,0.0332099646,0.0222118497,22.5037841797,55.8271255493,-144.6098022461,0.0724637508,0.0046624839,0.0121383667,
1664.233,-3.2323465347,1.3395407200,173.4677734375,0.0551155470,0.0431861915,-0.0015528798,-114.4176788330,74.1442413330,-51.7936134338,0.0317767859,0.0612026453,0.0132569969,-5.0077962875,82.7305068970,-169.8354644775,0.0237002373,0.0321869701,0.0285398364,22.5018997192,55.8276138306,-144.6079101563,0.0763748288,0.0002877414,0.0067667365,
1664.243,-3.2308719158,1.3404569626,173.4689331055,0.0590377897,0.0475550182,0.0067468882,-114.4158554077,74.1450500488,-51.7874984741,0.0308040977,0.0607070625,0.0142197758,-5.0068178177,82.7310409546,-169.8262329102,0.0251662731,0.0233949721,0.0226888061,22.5013942719,55.8296470642,-144.6060180664,0.0729767680,0.0037215054,0.0033738613,
1664.253,-3.2308697701,1.3427727222,173.4700164795,0.0541953817,0.0402307063,0.0087010860,-114.4131851196,74.1466674805,-51.7786827087,0.0308117867,0.0626395941,0.0156620592,-4.9885683060,82.7303161621,-169.8017272949,0.0251646638,0.0297031254,0.0192536116,22.4977130890,55.8291320801,-144.6039276123,0.0695537925,0.0017988980,0.0126305819,
1664.263,-3.2295570374,1.3430213928,173.4723510742,0.0615239367,0.0426492393,0.0043049455,-114.4184570313,74.1453094482,-51.7788124084,0.0317819118,0.0567910671,0.0059285760,-4.9777245522,82.7346649170,-169.7814788818,0.0261508226,0.0272309259,0.0095624328,22.4982070923,55.8287887573,-144.6014709473,0.0793160200,0.0017925203,-0.0000675321,
1664.273,-3.2310364246,1.3428291082,173.4734039307,0.0649385452,0.0373039208,0.0038182735,-114.4157943726,74.1453704834,-51.7708587646,0.0342235565,0.0587481260,0.0088464171,-4.9787669182,82.7347488403,-169.7742462158,0.0237095952,0.0223505944,0.0207903385,22.4998989105,55.8272819519,-144.5981903076,0.0763715506,0.0086048245,0.0082196593,
1664.283,-3.2305388451,1.3438171148,173.4751739502,0.0566550083,0.0441311635,0.0033299923,-114.4103851318,74.1459274292,-51.7612876892,0.0332496762,0.0592391193,0.0171196461,-4.9947576523,82.7330398560,-169.7813568115,0.0256589651,0.0219002515,0.0246739388,22.4977951050,55.8270721436,-144.5969543457,0.0714867115,0.0037398934,0.0008847713,
1664.293,-3.2304670811,1.3431349993,173.4744873047,0.0620141998,0.0407119654,0.0038180351,-114.4123764038,74.1445541382,-51.7577095032,0.0322665572,0.0597440004,0.0112784505,-4.9899396896,82.7334518433,-169.7677307129,0.0241950154,0.0253068805,0.0212618709,22.4954280853,55.8275413513,-144.5965423584,0.0705147386,0.0013225228,0.0072297454,
1664.303,-3.2333335876,1.3438186646,173.4755554199,0.0620261282,0.0388087519,0.0077269673,-114.4072189331,74.1431427002,-51.7471389771,0.0283535719,0.0539164245,0.0146837533,-4.9904489517,82.7365493774,-169.7594604492,0.0266432762,0.0257917047,0.0178967118,22.4943675995,55.8280220032,-144.5958404541,0.0656366348,0.0032878816,0.0052789450,
1664.313,-3.2326853275,1.3440504074,173.4767456055,0.0571473613,0.0446568355,0.0067501664,-114.4141464233,74.1453094482,-51.7479743958,0.0268990993,0.0587522686,0.0098161697,-4.9929032326,82.7346649170,-169.7549743652,0.0241976976,0.0248234570,0.0266534686,22.4961833954,55.8282623291,-144.5902252197,0.0763812065,0.0057141781,-0.0078946948,
1664.323,-3.2326610088,1.3447856903,173.4778747559,0.0596015975,0.0446563922,0.0047973990,-114.4178314209,74.1425170898,-51.7456512451,0.0366513729,0.0587876141,0.0044804364,-4.9800243378,82.7352294922,-169.7327728271,0.0217575431,0.0291883498,0.0232441425,22.4938774109,55.8248901367,-144.5893707275,0.0773246884,0.0013219714,0.0115832686,
1664.333,-3.2349061966,1.3416453600,173.4772338867,0.0663827434,0.0368830785,0.0052866340,-114.4113159180,74.1450195313,-51.7333297729,0.0322687626,0.0577858686,0.0200598091,-4.9708800316,82.7342300415,-169.7144165039,0.0276147127,0.0311225951,0.0256665349,22.4893760681,55.8233909607,-144.5890350342,0.0807279348,0.0037958622,0.0076400638,
1664.343,-3.2330625057,1.3424255848,173.4765625000,0.0571190119,0.0446634479,0.0101678967,-114.4079589844,74.1428833008,-51.7242774963,0.0332351327,0.0553837419,0.0107825398,-4.9799008369,82.7366561890,-169.7152252197,0.0188310146,0.0238148719,0.0188736916,22.4901390076,55.8246612549,-144.5840759277,0.0782989860,0.0047725141,-0.0025941730,
1664.353,-3.2340841293,1.3438683748,173.4776611328,0.0590973087,0.0432163700,-0.0000844598,-114.4103240967,74.1441040039,-51.7219696045,0.0307995677,0.0617078245,0.0073664635,-4.9888463020,82.7360916138,-169.7159576416,0.0290836692,0.0228590965,0.0232599378,22.4930305481,55.8252487183,-144.5786285400,0.0734219551,0.0081675798,-0.0020870566,
1664.363,-3.2315888405,1.3413814306,173.4783020020,0.0644250065,0.0490323268,0.0072359443,-114.4046630859,74.1428985596,-51.7120132446,0.0317704082,0.0534365773,0.0127211213,-4.9783792496,82.7374191284,-169.6985473633,0.0232272148,0.0272283405,0.0183978677,22.4966068268,55.8238754272,-144.5712127686,0.0782912970,0.0091041178,0.0052322149,
1664.373,-3.2325732708,1.3419767618,173.4787597656,0.0619939938,0.0412369631,0.0018668175,-114.4016876221,74.1432723999,-51.7044105530,0.0327486992,0.0573431849,0.0087994188,-4.9787425995,82.7362823486,-169.6919250488,0.0295723677,0.0238128752,0.0232611895,22.4978504181,55.8238105774,-144.5681610107,0.0773140788,0.0081159025,0.0023061037,
1664.383,-3.2332940102,1.3424960375,173.4792785645,0.0580968000,0.0378315412,0.0047968030,-114.3976821899,74.1440048218,-51.6972274780,0.0327522159,0.0607576966,0.0131714493,-4.9698433876,82.7345275879,-169.6761169434,0.0256622434,0.0277019143,0.0242061019,22.4987735748,55.8228416443,-144.5646972656,0.0782811642,0.0100553483,0.0071797371,
1664.393,-3.2309148312,1.3431693316,173.4811096191,0.0556671396,0.0485322550,0.0047948956,-114.3985595703,74.1462326050,-51.6924438477,0.0288566351,0.0592570603,0.0107183009,-4.9722514153,82.7325286865,-169.6703948975,0.0310289264,0.0252688080,0.0300320983,22.4967098236,55.8235244751,-144.5646820068,0.0768229961,-0.0016409010,-0.0001431704,
1664.403,-3.2309508324,1.3444131613,173.4816741943,0.0556888469,0.0465797409,0.0087018609,-114.3967590332,74.1468429565,-51.6862106323,0.0283712149,0.0597399175,0.0116829276,-4.9843316078,82.7323684692,-169.6761169434,0.0300520062,0.0228546560,0.0217295885,22.4974231720,55.8244781494,-144.5619049072,0.0714612603,0.0076352209,0.0052433610,
1664.413,-3.2304396629,1.3447935581,173.4834136963,0.0610665753,0.0441294201,0.0077249408,-114.4041900635,74.1455688477,-51.6893959045,0.0317831039,0.0646275282,0.0034232736,-4.9771213531,82.7338256836,-169.6601867676,0.0261489749,0.0286957026,0.0193131566,22.4944591522,55.8200531006,-144.5619354248,0.0787420869,0.0032431036,0.0154269934,
1664.423,-3.2300469875,1.3446282148,173.4839477539,0.0605754107,0.0416811705,0.0072357655,-114.4030380249,74.1426391602,-51.6836700439,0.0278629065,0.0573500395,0.0083212554,-4.9652452469,82.7320175171,-169.6403350830,0.0246801376,0.0316015929,0.0246512294,22.4964466095,55.8216934204,-144.5569915771,0.0748519301,0.0051872730,-0.0016335249,
1664.433,-3.2306225300,1.3432013988,173.4851837158,0.0585973933,0.0382732600,0.0047950745,-114.4015502930,74.1425552368,-51.6777420044,0.0312804580,0.0583310723,0.0107569247,-4.9523596764,82.7337417603,-169.6199340820,0.0246839523,0.0286406726,0.0212597847,22.4971160889,55.8211097717,-144.5536956787,0.0699633956,0.0090841949,0.0066618323,
1664.443,-3.2306337357,1.3432577848,173.4863433838,0.0595749356,0.0446211137,-0.0025297403,-114.4074783325,74.1396179199,-51.6765365601,0.0327312946,0.0578764081,0.0049435794,-4.9450016022,82.7323684692,-169.6032104492,0.0246809125,0.0261848718,0.0314891338,22.4957695007,55.8214187622,-144.5512847900,0.0738726854,-0.0001792312,0.0037313104,
1664.453,-3.2289779186,1.3416206837,173.4881286621,0.0639408976,0.0416626185,0.0101634860,-114.4156875610,74.1388931274,-51.6777496338,0.0361458063,0.0603118837,0.0064492822,-4.9499769211,82.7326049805,-169.5957946777,0.0276111364,0.0266839117,0.0231930017,22.4964485168,55.8195152283,-144.5473632813,0.0748305917,0.0061517954,0.0076148510,
1664.463,-3.2299807072,1.3402289152,173.4893188477,0.0629400611,0.0431449637,0.0096755624,-114.4146652222,74.1391677856,-51.6687393188,0.0341939926,0.0588451028,0.0142554194,-4.9657974243,82.7345809937,-169.6014404297,0.0227326751,0.0193921030,0.0198107362,22.4943580627,55.8183937073,-144.5443878174,0.0738430023,0.0007934868,0.0061272979,
1664.473,-3.2288870811,1.3399113417,173.4917449951,0.0595165454,0.0460556075,0.0126040578,-114.4137115479,74.1415863037,-51.6604270935,0.0307875872,0.0588101447,0.0142344683,-4.9664468765,82.7340164185,-169.5908050537,0.0207782984,0.0237888694,0.0290791988,22.4944248199,55.8185424805,-144.5386505127,0.0733562112,-0.0001829267,-0.0031484365,
1664.483,-3.2281661034,1.3395073414,173.4929504395,0.0595094971,0.0470196232,0.0106501579,-114.4274215698,74.1402359009,-51.6664199829,0.0376170874,0.0583154261,0.0016082823,-4.9482603073,82.7354125977,-169.5613250732,0.0281056166,0.0261877626,0.0222627521,22.4961338043,55.8191566467,-144.5340270996,0.0743387938,0.0061527193,0.0002851486,
1664.493,-3.2277035713,1.3389345407,173.4941101074,0.0619409084,0.0440818816,0.0023487806,-114.4260787964,74.1435470581,-51.6595764160,0.0264024138,0.0592437387,0.0137865990,-4.9563307762,82.7339324951,-169.5601043701,0.0271257758,0.0276726782,0.0222403407,22.4995670319,55.8167572021,-144.5274505615,0.0767566562,0.0070847869,0.0110070705,
1664.503,-3.2280538082,1.3400647640,173.4958038330,0.0604957864,0.0411582775,0.0052791834,-114.4222488403,74.1453857422,-51.6508560181,0.0249463320,0.0597123206,0.0152219385,-4.9595766068,82.7362289429,-169.5544586182,0.0261542797,0.0223054588,0.0164203048,22.5047931671,55.8164215088,-144.5197753906,0.0767533779,0.0085005164,0.0095583200,
1664.513,-3.2276985645,1.3398070335,173.4969787598,0.0585381687,0.0416403711,-0.0025338531,-114.4268035889,74.1476898193,-51.6496963501,0.0303283930,0.0591793060,0.0079016984,-4.9650483131,82.7366561890,-169.5534820557,0.0261552334,0.0218287110,0.0203350782,22.5079650879,55.8165779114,-144.5135803223,0.0738252401,0.0055428743,0.0061537027,
1664.523,-3.2299203873,1.3389958143,173.4980926514,0.0629185438,0.0367962830,0.0062571764,-114.4240036011,74.1467132568,-51.6420478821,0.0342299938,0.0513872206,0.0113142282,-4.9684338570,82.7376937866,-169.5487213135,0.0261574984,0.0257410705,0.0208401680,22.5080509186,55.8187637329,-144.5108184814,0.0767763257,0.0040893853,-0.0030938983,
1664.533,-3.2270333767,1.3356776237,173.4987640381,0.0672551692,0.0504179448,0.0052763820,-114.4255142212,74.1476135254,-51.6408843994,0.0352108479,0.0557649136,0.0064316988,-4.9766597748,82.7350387573,-169.5480499268,0.0227336884,0.0208804011,0.0310521722,22.5130977631,55.8187980652,-144.5046691895,0.0758001208,0.0123445839,0.0027848482,
1664.543,-3.2264678478,1.3346427679,173.4999389648,0.0638191476,0.0465018637,0.0091817379,-114.4182357788,74.1469955444,-51.6290092468,0.0303250551,0.0562771857,0.0107988715,-4.9883341789,82.7361450195,-169.5503540039,0.0251775384,0.0248109996,0.0222843289,22.5127315521,55.8165168762,-144.5033721924,0.0787074566,0.0050111115,0.0061709881,
1664.553,-3.2258012295,1.3343114853,173.5011596680,0.0569774322,0.0425840132,0.0067391396,-114.4138183594,74.1463470459,-51.6191596985,0.0376461744,0.0626437366,0.0098076314,-4.9861173630,82.7354431152,-169.5412750244,0.0222463012,0.0272485316,0.0315489173,22.5139446259,55.8181457520,-144.4993438721,0.0704226494,0.0069622099,0.0022910833,
1664.563,-3.2257041931,1.3318572044,173.5036468506,0.0623057000,0.0469769090,0.0013670921,-114.3968582153,74.1454391479,-51.5966262817,0.0356887579,0.0524370074,0.0180407315,-4.9806313515,82.7379837036,-169.5270690918,0.0271347165,0.0282091498,0.0179187059,22.5183277130,55.8175468445,-144.4915313721,0.0689519048,0.0064309388,0.0008348823,
1664.573,-3.2250456810,1.3335049152,173.5030059814,0.0540336706,0.0469654016,0.0086915493,-114.3942184448,74.1426544189,-51.5890884399,0.0322574973,0.0559024215,0.0126773417,-4.9870619774,82.7381744385,-169.5246276855,0.0290882587,0.0223638415,0.0208524466,22.5241050720,55.8208808899,-144.4841308594,0.0753322244,0.0049321502,-0.0103295445,
1664.583,-3.2237370014,1.3305341005,173.5055084229,0.0622826144,0.0425481349,0.0096653104,-114.4008560181,74.1443023682,-51.5912628174,0.0259177089,0.0617230833,0.0078119785,-5.0051808357,82.7370376587,-169.5338134766,0.0320154428,0.0189878792,0.0242550969,22.5263404846,55.8242492676,-144.4804229736,0.0724356174,0.0029773861,-0.0078347921,
1664.593,-3.2244737148,1.3290157318,173.5072021484,0.0656740963,0.0332836583,0.0101540089,-114.3856048584,74.1445159912,-51.5723114014,0.0332429409,0.0607741177,0.0204392672,-5.0080480576,82.7373886108,-169.5290527344,0.0320162177,0.0233882666,0.0198672414,22.5299472809,55.8235778809,-144.4758148193,0.0807297826,0.0088003576,0.0058417320,
1664.603,-3.2244734764,1.3278288841,173.5090179443,0.0602822863,0.0401196219,0.0121065378,-114.3831176758,74.1428527832,-51.5670433044,0.0381178260,0.0593396723,0.0087212771,-5.0078301430,82.7363128662,-169.5212402344,0.0281075835,0.0243659317,0.0232669711,22.5280151367,55.8238029480,-144.4748840332,0.0768257380,0.0034479499,0.0033953786,
1664.613,-3.2226483822,1.3273763657,173.5101776123,0.0617392361,0.0444823653,0.0081984401,-114.3735351563,74.1429443359,-51.5555877686,0.0288408995,0.0583805442,0.0155147463,-5.0253334045,82.7346649170,-169.5304870605,0.0222445726,0.0209894180,0.0276368260,22.5248794556,55.8225746155,-144.4739990234,0.0768136978,0.0054228604,0.0062980652,
1664.623,-3.2202520370,1.3264245987,173.5113372803,0.0631874725,0.0444406345,0.0003831387,-114.3717117310,74.1430358887,-51.5491256714,0.0322593451,0.0652185678,0.0115998387,-5.0156087875,82.7328033447,-169.5132904053,0.0261467099,0.0282947570,0.0266265869,22.5283470154,55.8262329102,-144.4694213867,0.0744081736,0.0039466470,-0.0034070611,
1664.633,-3.2205657959,1.3263727427,173.5124969482,0.0583037511,0.0390750133,0.0116139650,-114.3790435791,74.1416473389,-51.5498046875,0.0307878256,0.0652250350,0.0052939653,-5.0226354599,82.7345581055,-169.5121459961,0.0261505842,0.0244015604,0.0222630501,22.5247802734,55.8283462524,-144.4666137695,0.0758937597,-0.0004037619,-0.0048561096,
1664.643,-3.2196960449,1.3282134533,173.5136413574,0.0558944643,0.0454074778,0.0096607804,-114.3844070435,74.1379623413,-51.5495605469,0.0312585831,0.0598994792,0.0092489421,-5.0077447891,82.7385253906,-169.4878082275,0.0251827836,0.0268038660,0.0115855932,22.5267200470,55.8305435181,-144.4622192383,0.0788449645,0.0069149435,-0.0033554435,
1664.653,-3.2189912796,1.3276313543,173.5147705078,0.0641850904,0.0449069329,0.0042887330,-114.3833236694,74.1376113892,-51.5430107117,0.0258858204,0.0603951514,0.0146176815,-5.0101947784,82.7395782471,-169.4814300537,0.0271382332,0.0243663341,0.0203931928,22.5265579224,55.8308067322,-144.4594268799,0.0773826838,0.0020351112,-0.0038403869,
1664.663,-3.2185111046,1.3284529448,173.5164947510,0.0593166128,0.0419688560,0.0018471479,-114.3849182129,74.1337585449,-51.5390472412,0.0331916213,0.0560571849,0.0102567822,-5.0226240158,82.7378234863,-169.4842987061,0.0266460776,0.0195138156,0.0232954621,22.5286636353,55.8333053589,-144.4545440674,0.0720360875,0.0020298213,-0.0028226972,
1664.673,-3.2195656300,1.3302135468,173.5163574219,0.0578824878,0.0410106294,0.0038020611,-114.3889236450,74.1324157715,-51.5371627808,0.0297672749,0.0580220520,0.0054007322,-5.0127286911,82.7384109497,-169.4662780762,0.0246942639,0.0273033381,0.0247694254,22.5254745483,55.8335456848,-144.4537200928,0.0774095058,-0.0018461943,0.0079106688,
1664.683,-3.2200729847,1.3289475441,173.5170593262,0.0559072718,0.0449257419,0.0086846948,-114.3896942139,74.1321411133,-51.5320854187,0.0283011198,0.0575363636,0.0073589981,-4.9885592461,82.7391433716,-169.4329223633,0.0237193108,0.0340843946,0.0252649784,22.5244369507,55.8331832886,-144.4519042969,0.0686169267,0.0084151030,0.0030192137,
1664.693,-3.2192978859,1.3292548656,173.5176239014,0.0568891987,0.0429591089,0.0106372833,-114.3955230713,74.1306228638,-51.5328254700,0.0297586918,0.0541300178,0.0049535185,-4.9946055412,82.7387695313,-169.4301147461,0.0276247263,0.0223797560,0.0252586007,22.5245609283,55.8335647583,-144.4488067627,0.0808277130,0.0040215850,0.0005834103,
1664.703,-3.2180292606,1.3311288357,173.5187988281,0.0535039306,0.0468432158,0.0052657127,-114.3925781250,74.1308593750,-51.5253372192,0.0297598243,0.0585264564,0.0103103369,-4.9907865524,82.7391433716,-169.4194335938,0.0232310295,0.0282299966,0.0233122110,22.5246315002,55.8331985474,-144.4460144043,0.0725232959,0.0069485605,0.0044848919,
1664.713,-3.2170083523,1.3326756954,173.5187530518,0.0545074828,0.0438957103,0.0086834431,-114.3885345459,74.1340713501,-51.5152320862,0.0283102989,0.0599510372,0.0166180134,-4.9837455750,82.7393875122,-169.4041290283,0.0290909410,0.0238194764,0.0233142972,22.5290603638,55.8335075378,-144.4387054443,0.0774091482,0.0088632852,-0.0003771186,
1664.723,-3.2173173428,1.3342176676,173.5211029053,0.0569757968,0.0434127748,0.0033131838,-114.3899078369,74.1357192993,-51.5102653503,0.0322244167,0.0560167134,0.0083119720,-4.9696569443,82.7428207397,-169.3825683594,0.0242156982,0.0296423435,0.0111638308,22.5303859711,55.8328590393,-144.4353790283,0.0710551739,0.0039649010,0.0035254955,
1664.733,-3.2171649933,1.3339354992,173.5203704834,0.0628302470,0.0409687199,0.0057543516,-114.3832473755,74.1376724243,-51.4969177246,0.0322337151,0.0599063933,0.0180350244,-4.9848837852,82.7431182861,-169.3890228271,0.0266577601,0.0247930288,0.0184952617,22.5295314789,55.8320274353,-144.4335327148,0.0769063234,0.0020148456,0.0039992929,
1664.743,-3.2169375420,1.3359481096,173.5219879150,0.0618887991,0.0409647115,0.0106373429,-114.3857269287,74.1420288086,-51.4943275452,0.0332310796,0.0612998903,0.0102031827,-4.9913997650,82.7433090210,-169.3874206543,0.0227519274,0.0262720883,0.0175230503,22.5313339233,55.8333511353,-144.4282073975,0.0764310360,0.0059121251,-0.0018354654,
1664.753,-3.2168223858,1.3361362219,173.5219573975,0.0570092723,0.0429158248,0.0052669048,-114.3813247681,74.1425781250,-51.4863929749,0.0273743272,0.0608122647,0.0087153614,-4.9897556305,82.7444992065,-169.3787384033,0.0247076750,0.0233369917,0.0204725266,22.5329551697,55.8337898254,-144.4247589111,0.0715525150,0.0024819076,0.0064772964,
1664.763,-3.2159111500,1.3382011652,173.5230255127,0.0594867058,0.0433881879,0.0121018887,-114.3897933960,74.1438140869,-51.4886322021,0.0322630405,0.0597992241,-0.0005335659,-4.9743013382,82.7424163818,-169.3550262451,0.0266562104,0.0247704834,0.0253176093,22.5328826904,55.8345756531,-144.4222717285,0.0744899511,0.0063931197,0.0016040206,
1664.773,-3.2153918743,1.3419649601,173.5240631104,0.0556461290,0.0463087410,0.0116153955,-114.3862380981,74.1460494995,-51.4793434143,0.0317854285,0.0558667183,0.0106658489,-4.9661989212,82.7429046631,-169.3388977051,0.0247041583,0.0306111574,0.0253236890,22.5327835083,55.8316650391,-144.4191894531,0.0827621818,0.0034483373,0.0015659928,
1664.783,-3.2147979736,1.3413341045,173.5270996094,0.0585648119,0.0399507545,0.0121024251,-114.3861160278,74.1455688477,-51.4750823975,0.0322713852,0.0558743775,0.0131101161,-4.9802451134,82.7415466309,-169.3458862305,0.0305605531,0.0199021995,0.0253037214,22.5305595398,55.8290214539,-144.4191436768,0.0793182850,0.0054069161,0.0107989311,
1664.793,-3.2148456573,1.3413140774,173.5269927979,0.0600293055,0.0379984640,0.0096613169,-114.3940582275,74.1464538574,-51.4783935547,0.0356935859,0.0617043674,0.0131385624,-4.9665622711,82.7423858643,-169.3246307373,0.0217733383,0.0267064422,0.0204324722,22.5328388214,55.8301734924,-144.4145660400,0.0754233599,0.0049044043,-0.0023602843,
1664.803,-3.2145051956,1.3397850990,173.5281829834,0.0634205937,0.0414105318,0.0096604228,-114.3926162720,74.1437530518,-51.4720115662,0.0312861800,0.0563772619,0.0116861463,-4.9628658295,82.7421188354,-169.3114318848,0.0271438360,0.0227923691,0.0272631645,22.5343265533,55.8279762268,-144.4109039307,0.0734486580,0.0039022267,0.0049402714,
1664.813,-3.2148504257,1.3391844034,173.5287780762,0.0599921420,0.0433696881,0.0081952810,-114.3935623169,74.1406784058,-51.4691276550,0.0322480798,0.0569099188,0.0082935840,-4.9805603027,82.7396850586,-169.3214569092,0.0242087841,0.0203939676,0.0257601738,22.5313777924,55.8277359009,-144.4113769531,0.0724697709,0.0049040616,0.0044369698,
1664.823,-3.2162392139,1.3367445469,173.5287322998,0.0662972331,0.0419290885,0.0077075362,-114.3910598755,74.1411819458,-51.4628715515,0.0376215577,0.0632558167,0.0146268010,-4.9833793640,82.7404174805,-169.3143310547,0.0246986747,0.0267467946,0.0218671560,22.5331096649,55.8286857605,-144.4071655273,0.0768736005,0.0063586086,-0.0048199892,
1664.833,-3.2164018154,1.3379167318,173.5293121338,0.0536223724,0.0419319011,0.0028254390,-114.3925094604,74.1399307251,-51.4595642090,0.0307796597,0.0579001904,0.0131770521,-4.9937038422,82.7396545410,-169.3164825439,0.0246970057,0.0243294835,0.0223447084,22.5332317352,55.8287391663,-144.4035491943,0.0700381994,0.0063576996,0.0039690137,
1664.843,-3.2158751488,1.3366986513,173.5299072266,0.0619018972,0.0443641581,0.0013595223,-114.3891296387,74.1379928589,-51.4500885010,0.0332118273,0.0598901808,0.0156170726,-4.9960236549,82.7388992310,-169.3111724854,0.0281133056,0.0233592242,0.0242853165,22.5366134644,55.8283309937,-144.3968353271,0.0768701434,0.0087663382,-0.0018820167,
1664.853,-3.2141704559,1.3354738951,173.5323791504,0.0604156852,0.0482407361,0.0086816549,-114.3917388916,74.1349334717,-51.4460601807,0.0307558179,0.0540717244,0.0112550557,-4.9905438423,82.7412796021,-169.2969970703,0.0242123008,0.0282263011,0.0209066868,22.5374698639,55.8255844116,-144.3929595947,0.0787963271,0.0087432563,0.0107789040,
1664.863,-3.2140192986,1.3361927271,173.5328674316,0.0594516620,0.0409138687,0.0023340583,-114.3926391602,74.1359558105,-51.4419250488,0.0249013305,0.0633316338,0.0122284293,-4.9752049446,82.7428741455,-169.2728881836,0.0198212862,0.0281898081,0.0140947104,22.5373420715,55.8245048523,-144.3892974854,0.0709732175,0.0053205192,0.0049051642,
1664.873,-3.2143020630,1.3354154825,173.5340118408,0.0628560707,0.0414070934,0.0077052116,-114.3964233398,74.1326980591,-51.4405708313,0.0385576487,0.0580033958,0.0073845536,-4.9759254456,82.7423629761,-169.2660675049,0.0242146850,0.0262390226,0.0218991041,22.5338268280,55.8209762573,-144.3891448975,0.0831456780,0.0009383261,0.0111926794,
1664.883,-3.2158582211,1.3345940113,173.5351409912,0.0628417358,0.0370396897,0.0033119321,-114.3901748657,74.1328201294,-51.4285888672,0.0312340260,0.0609430373,0.0141924918,-4.9957304001,82.7449569702,-169.2789764404,0.0222672820,0.0248144120,0.0195053816,22.5353507996,55.8233718872,-144.3847503662,0.0763332248,0.0048440397,-0.0024416447,
1664.893,-3.2163176537,1.3365231752,173.5356597900,0.0555511825,0.0429070257,0.0125904083,-114.3830184937,74.1334686279,-51.4161911011,0.0219597816,0.0560652018,0.0185512453,-5.0091452599,82.7422790527,-169.2828979492,0.0203082561,0.0209420174,0.0253215432,22.5364952087,55.8229331970,-144.3804321289,0.0724227428,0.0053195059,0.0034161806,
1664.903,-3.2174370289,1.3369905949,173.5368499756,0.0540944859,0.0385319889,0.0038027763,-114.3869552612,74.1361007690,-51.4156799316,0.0292965174,0.0623642802,0.0097612590,-5.0063319206,82.7391967773,-169.2731781006,0.0227428675,0.0267997682,0.0311274529,22.5395565033,55.8238983154,-144.3756561279,0.0763383508,0.0077385008,-0.0048601627,
1664.913,-3.2188301086,1.3378349543,173.5373687744,0.0570389107,0.0375796631,0.0072220564,-114.3831329346,74.1382675171,-51.4073448181,0.0332131386,0.0647802651,0.0141241699,-5.0107359886,82.7375564575,-169.2688140869,0.0232275128,0.0248589069,0.0237759948,22.5412387848,55.8218269348,-144.3713989258,0.0792477727,0.0057587028,0.0048842430,
1664.923,-3.2198257446,1.3383349180,173.5372772217,0.0580241978,0.0390618481,0.0042941570,-114.3775787354,74.1408691406,-51.3962364197,0.0288310051,0.0579156578,0.0145702511,-5.0071678162,82.7402801514,-169.2576293945,0.0271397829,0.0248468369,0.0106388330,22.5445346832,55.8229713440,-144.3654785156,0.0753527284,0.0076883286,-0.0033890009,
1664.933,-3.2191877365,1.3368988037,173.5384521484,0.0648350716,0.0468632691,-0.0005907416,-114.3968505859,74.1365661621,-51.4076004028,0.0385761261,0.0555025339,0.0034534335,-4.9968929291,82.7411727905,-169.2398223877,0.0271417499,0.0272639841,0.0296958089,22.5452785492,55.8226890564,-144.3634490967,0.0724202991,0.0076799989,0.0049108267,
1664.943,-3.2180140018,1.3348865509,173.5403137207,0.0633351207,0.0463545844,0.0160095096,-114.4281005859,74.1310729980,-51.4346427917,0.0346436501,0.0574763417,-0.0036963075,-4.9915685654,82.7404403687,-169.2269744873,0.0212807655,0.0267650336,0.0257747769,22.5467205048,55.8241081238,-144.3582153320,0.0763404369,0.0032802522,0.0054234862,
1664.953,-3.2172026634,1.3352323771,173.5433197021,0.0589466244,0.0473170020,-0.0020579100,-114.4847869873,74.1179656982,-51.4852943420,0.0365341902,0.0575654209,-0.0072645545,-4.9875106812,82.7422790527,-169.2140502930,0.0237262249,0.0233352780,0.0248289704,22.5485191345,55.8231124878,-144.3528442383,0.0797486305,0.0061881244,-0.0004423857,
1664.963,-3.2206349373,1.3334916830,173.5450439453,0.0637990683,0.0327284001,-0.0025433302,-114.5436477661,74.0999908447,-51.5347442627,0.0369365811,0.0552793145,0.0038594157,-4.9876194000,82.7401962280,-169.2069244385,0.0295810103,0.0174792260,0.0243055224,22.5464458466,55.8225631714,-144.3508148193,0.0773018599,0.0042507350,0.0024721026,
1664.973,-3.2208585739,1.3356733322,173.5455932617,0.0526066646,0.0415213108,0.0160125494,-114.6180953979,74.0760192871,-51.5998344421,0.0451226830,0.0569604933,-0.0024845153,-4.9648942947,82.7416839600,-169.1745910645,0.0251897573,0.0232858807,0.0204192400,22.5463733673,55.8215751648,-144.3488159180,0.0826632977,0.0057108104,0.0029469728,
1664.983,-3.2192347050,1.3363257647,173.5461425781,0.0579891428,0.0458875336,0.0155229568,-114.6926956177,74.0489730835,-51.6672897339,0.0371805429,0.0552689731,0.0004720092,-4.9299407005,82.7405548096,-169.1333618164,0.0315349102,0.0305338502,0.0218595862,22.5460700989,55.8231010437,-144.3483886719,0.0817016959,0.0037688464,0.0005246997,
1664.993,-3.2182636261,1.3350205421,173.5466918945,0.0648023039,0.0414761230,0.0130796432,-114.7672653198,74.0196380615,-51.7372360229,0.0331334472,0.0482414961,0.0049099177,-4.9037775993,82.7396316528,-169.1026000977,0.0261617899,0.0260824114,0.0218389630,22.5364913940,55.8183937073,-144.3555297852,0.0845851898,0.0018764585,0.0136095285,
1665.003,-3.2197511196,1.3332743645,173.5466003418,0.0657483935,0.0395489447,0.0013623834,-114.8252563477,73.9890365601,-51.7945289612,0.0339628458,0.0505408049,0.0161210001,-4.8596601486,82.7374725342,-169.0518951416,0.0232273340,0.0240342021,0.0252113938,22.5311679840,55.8196411133,-144.3594665527,0.0753200650,0.0043730289,0.0048171282,
1665.013,-3.2200229168,1.3326114416,173.5471496582,0.0623188615,0.0415068232,0.0072208643,-114.8920516968,73.9564361572,-51.8651466370,0.0259932876,0.0562713146,0.0068776011,-4.8346629143,82.7383117676,-169.0226898193,0.0295768380,0.0195827782,0.0174083710,22.5269775391,55.8221168518,-144.3620147705,0.0768092275,0.0024715364,0.0004398227,
1665.023,-3.2190256119,1.3329524994,173.5483245850,0.0589068457,0.0458839685,0.0067324638,-114.9516525269,73.9247283936,-51.9291954041,0.0273050070,0.0590718091,0.0117575079,-4.8018226624,82.7359085083,-168.9858703613,0.0193176270,0.0263490528,0.0261498690,22.5244636536,55.8234367371,-144.3657379150,0.0763338804,0.0044547766,0.0111904144,
1665.033,-3.2196509838,1.3324414492,173.5500640869,0.0642690212,0.0444300286,0.0096622109,-114.9930877686,73.8968811035,-51.9771156311,0.0237523317,0.0574564338,0.0223904103,-4.7850322723,82.7371520996,-168.9657592773,0.0212734938,0.0263097882,0.0188448429,22.5220870972,55.8276901245,-144.3669586182,0.0734458566,0.0010818392,0.0048904419,
1665.043,-3.2194385529,1.3317308426,173.5505523682,0.0647449046,0.0410083793,0.0101501942,-115.0395431519,73.8717803955,-52.0272407532,0.0182596445,0.0640881658,0.0110537857,-4.7573103905,82.7379837036,-168.9334869385,0.0266464353,0.0272234976,0.0203173161,22.5167942047,55.8282241821,-144.3710632324,0.0758925080,0.0025974810,0.0073184967,
1665.053,-3.2206006050,1.3313436508,173.5504760742,0.0613201782,0.0405403487,0.0096629858,-115.0382766724,73.8553619385,-52.0284309387,0.0206214190,0.0628754795,0.0370431393,-4.7509889603,82.7376327515,-168.9221649170,0.0305519104,0.0281864554,0.0310526490,22.5205593109,55.8269042969,-144.3677825928,0.0719733238,0.0069506764,0.0004796386,
1665.063,-3.2188150883,1.3333729506,173.5509948730,0.0550079308,0.0444154441,0.0062437057,-115.0284271240,73.8418121338,-52.0157318115,0.0225087404,0.0626122057,0.0302597582,-4.7814798355,82.7393875122,-168.9481201172,0.0217667222,0.0209275782,0.0237653255,22.5253486633,55.8265266418,-144.3625335693,0.0768524408,0.0083700120,0.0043985844,
1665.073,-3.2192783356,1.3328462839,173.5508575439,0.0662292093,0.0429586917,0.0125917792,-115.0085525513,73.8355407715,-51.9894599915,0.0224782825,0.0754433870,0.0209387690,-4.7993602753,82.7380142212,-168.9586029053,0.0246933699,0.0268287659,0.0305807590,22.5350017548,55.8264579773,-144.3524322510,0.0709924102,0.0121884644,0.0005277395,
1665.083,-3.2203202248,1.3329932690,173.5508575439,0.0550013036,0.0410237126,0.0047805309,-114.9557113647,73.8339843750,-51.9289016724,0.0229589939,0.0677637458,0.0260872245,-4.8196444511,82.7402496338,-168.9720001221,0.0246983171,0.0244293660,0.0203682184,22.5346088409,55.8252868652,-144.3493804932,0.0807465315,0.0014433563,0.0014873743,
1665.093,-3.2202739716,1.3335032463,173.5531616211,0.0628226995,0.0424877368,0.0062450767,-114.8867416382,73.8396377563,-51.8525962830,0.0259161592,0.0678189695,0.0316016823,-4.8491830826,82.7401962280,-168.9930877686,0.0300692916,0.0308428109,0.0267212987,22.5401916504,55.8257637024,-144.3405609131,0.0773332119,0.0043250620,-0.0097158551,
1665.103,-3.2216501236,1.3331812620,173.5543060303,0.0608639568,0.0420234352,-0.0030307174,-114.8066864014,73.8516769409,-51.7662773132,0.0259746313,0.0668234825,0.0262801200,-4.8892154694,82.7436294556,-169.0239105225,0.0242174864,0.0255558938,0.0199509859,22.5435848236,55.8258666992,-144.3350830078,0.0778225660,0.0028300881,-0.0033541918,
1665.113,-3.2227637768,1.3332268000,173.5542449951,0.0598881952,0.0449725278,0.0121071339,-114.7342071533,73.8704376221,-51.6885452271,0.0324133039,0.0696156025,0.0121564865,-4.9135627747,82.7438507080,-169.0384368896,0.0256828070,0.0275629610,0.0228878260,22.5470504761,55.8239936829,-144.3273162842,0.0817103982,0.0071828514,0.0068877935,
1665.123,-3.2234709263,1.3327642679,173.5547790527,0.0613449663,0.0401020423,-0.0000993609,-114.6624221802,73.8977355957,-51.6114234924,0.0310807228,0.0791130066,0.0150664598,-4.9299325943,82.7447204590,-169.0437316895,0.0276378393,0.0275980979,0.0268123150,22.5476169586,55.8254013062,-144.3207855225,0.0787945390,0.0003495812,0.0000728965,
1665.133,-3.2213082314,1.3343060017,173.5571136475,0.0569773354,0.0434822999,0.0033169985,-114.5908203125,73.9242706299,-51.5321846008,0.0380449891,0.0632285774,0.0101712048,-4.9359335899,82.7444152832,-169.0398254395,0.0256840587,0.0271236300,0.0272963643,22.5480823517,55.8265342712,-144.3154449463,0.0768525600,0.0062110126,0.0010662675,
1665.143,-3.2209134102,1.3336195946,173.5570983887,0.0598950461,0.0439637229,0.0003867149,-114.5419006348,73.9553451538,-51.4745368958,0.0328239202,0.0657844841,0.0097394586,-4.9354882240,82.7418746948,-169.0301361084,0.0232370496,0.0290794671,0.0311596990,22.5520401001,55.8268775940,-144.3070678711,0.0773441792,0.0086184740,0.0010856986,
1665.153,-3.2212648392,1.3325979710,173.5564422607,0.0632951930,0.0434815809,0.0062459707,-114.4910659790,73.9867782593,-51.4126358032,0.0319988728,0.0673609674,0.0136921257,-4.9362063408,82.7400131226,-169.0227203369,0.0242094994,0.0261540562,0.0306407213,22.5513706207,55.8262557983,-144.3032989502,0.0768497586,0.0008085519,0.0040044785,
1665.163,-3.2212779522,1.3331067562,173.5569152832,0.0603743792,0.0381107070,0.0077110529,-114.4565429688,74.0168685913,-51.3644676208,0.0331201553,0.0625773072,0.0104023218,-4.9425849915,82.7435531616,-169.0172424316,0.0256821513,0.0246982425,0.0165414810,22.5528163910,55.8267707825,-144.2977600098,0.0763665438,0.0076342523,0.0010870695,
1665.173,-3.2209079266,1.3327162266,173.5580902100,0.0593910031,0.0415222347,0.0086872578,-114.4449844360,74.0446929932,-51.3366775513,0.0381365418,0.0602245629,0.0047878474,-4.9442334175,82.7411193848,-169.0084075928,0.0286064744,0.0286117494,0.0257775187,22.5513095856,55.8268547058,-144.2942962646,0.0739259720,-0.0001640469,0.0010829568,
1665.183,-3.2203416824,1.3313171864,173.5593566895,0.0583900288,0.0444420874,0.0013618469,-114.4326019287,74.0737915039,-51.3130836487,0.0392526388,0.0539453626,0.0094150305,-4.9596776962,82.7427139282,-169.0119171143,0.0247037411,0.0222961456,0.0165302157,22.5506095886,55.8239746094,-144.2911529541,0.0778039694,0.0003145337,0.0049473643,
1665.193,-3.2199149132,1.3283122778,173.5611877441,0.0661500990,0.0439464450,-0.0005928874,-114.4274902344,74.1067810059,-51.2947883606,0.0345276594,0.0602898598,0.0160002112,-4.9659161568,82.7399291992,-169.0048675537,0.0256741643,0.0193843991,0.0208790898,22.5419712067,55.8215751648,-144.2951354980,0.0777804852,-0.0054797679,0.0117195845,
1665.203,-3.2203483582,1.3275035620,173.5611877441,0.0583234876,0.0410243273,0.0042896271,-114.4288101196,74.1364288330,-51.2832298279,0.0380871892,0.0598352253,0.0079884380,-4.9598007202,82.7406082153,-168.9885864258,0.0266522169,0.0222994834,0.0179597735,22.5366344452,55.8225173950,-144.2960510254,0.0787662864,0.0004331768,0.0058525801,
1665.213,-3.2203431129,1.3269922733,173.5617218018,0.0617325306,0.0424890891,0.0057545304,-114.4248886108,74.1643371582,-51.2672233582,0.0318725705,0.0555116832,0.0107077807,-4.9596362114,82.7382278442,-168.9789276123,0.0207875967,0.0227909237,0.0247548819,22.5376358032,55.8230972290,-144.2907562256,0.0758422613,0.0072632432,0.0039110780,
1665.223,-3.2204408646,1.3252389431,173.5642242432,0.0577956885,0.0420025513,0.0033125281,-114.4375762939,74.1837310791,-51.2690582275,0.0334297419,0.0532375872,0.0003749281,-4.9619860649,82.7425231934,-168.9720153809,0.0305626988,0.0296257585,0.0111565590,22.5420169830,55.8199539185,-144.2836303711,0.0753231645,0.0096475482,0.0092567205,
1665.233,-3.2200582027,1.3254417181,173.5653228760,0.0636586025,0.0459021293,0.0062419772,-114.4563522339,74.1988830566,-51.2760009766,0.0320369005,0.0519937873,0.0003514737,-4.9562449455,82.7395553589,-168.9549560547,0.0232319236,0.0237579644,0.0286833048,22.5467472076,55.8226394653,-144.2762298584,0.0743729472,0.0062015653,-0.0097332597,
1665.243,-3.2192623615,1.3256807327,173.5677337646,0.0573151186,0.0429585762,0.0052648187,-114.4851074219,74.2073516846,-51.2916793823,0.0301240087,0.0532723367,0.0043240041,-4.9668474197,82.7373657227,-168.9548645020,0.0237153769,0.0228082538,0.0232768655,22.5480041504,55.8219223022,-144.2708892822,0.0748541951,0.0022799373,0.0068638325,
1665.253,-3.2192924023,1.3264285326,173.5683135986,0.0553750396,0.0444239192,0.0116127133,-114.5033645630,74.2107238770,-51.2995872498,0.0359994173,0.0502552688,0.0107274354,-4.9523801804,82.7375564575,-168.9327545166,0.0261572003,0.0247288644,0.0198594332,22.5500297546,55.8232727051,-144.2674102783,0.0758439898,0.0022690594,0.0000534654,
1665.263,-3.2210900784,1.3254812956,173.5694732666,0.0612178892,0.0361544788,0.0052663088,-114.5238418579,74.2067565918,-51.3103179932,0.0374454260,0.0434401333,0.0064492524,-4.9423389435,82.7366561890,-168.9126434326,0.0222489834,0.0256843865,0.0198423862,22.5492496490,55.8233032227,-144.2665100098,0.0763325691,0.0037411600,0.0044454932,
1665.273,-3.2229228020,1.3277844191,173.5699768066,0.0539338551,0.0425340161,0.0023394823,-114.5413208008,74.1983261108,-51.3253097534,0.0334991217,0.0474394858,0.0129313469,-4.9256410599,82.7351760864,-168.8882598877,0.0241988301,0.0232079178,0.0300682783,22.5460281372,55.8218421936,-144.2659912109,0.0812010765,0.0037622750,-0.0004686713,
1665.283,-3.2220125198,1.3289461136,173.5717315674,0.0559072495,0.0434946865,-0.0010788441,-114.5584030151,74.1828613281,-51.3421554565,0.0309841633,0.0466648042,0.0009061098,-4.9302668571,82.7340393066,-168.8872070313,0.0217549205,0.0256614089,0.0266303420,22.5444412231,55.8229217529,-144.2664031982,0.0758405328,0.0091536939,-0.0053431392,
1665.293,-3.2225337029,1.3279480934,173.5723419189,0.0593078025,0.0405741036,0.0101513267,-114.5759658813,74.1644515991,-51.3621444702,0.0304082632,0.0513046086,0.0045283884,-4.9269118309,82.7345809937,-168.8774108887,0.0212678313,0.0236998945,0.0207812786,22.5391349792,55.8238983154,-144.2689971924,0.0797563195,-0.0010467321,-0.0009555221,
1665.303,-3.2235679626,1.3295717239,173.5721893311,0.0583595708,0.0410803668,0.0038056374,-114.5789108276,74.1446914673,-51.3693847656,0.0273844004,0.0540412068,0.0046788454,-4.9228773117,82.7362823486,-168.8664703369,0.0232247114,0.0266181082,0.0232506990,22.5400657654,55.8234367371,-144.2661743164,0.0738924742,0.0091962069,0.0063661337,
1665.313,-3.2247483730,1.3280625343,173.5745849609,0.0632160529,0.0425658152,-0.0001000762,-114.5875396729,74.1208572388,-51.3821411133,0.0277589560,0.0563397706,0.0004878193,-4.9168810844,82.7381439209,-168.8554077148,0.0295764804,0.0266020745,0.0218157172,22.5381965637,55.8223915100,-144.2662963867,0.0777884722,0.0028597414,0.0058569908,
1665.323,-3.2253234386,1.3270007372,173.5751495361,0.0592912734,0.0362281986,0.0033180118,-114.5745925903,74.1002502441,-51.3723449707,0.0330315828,0.0586319268,0.0166879594,-4.9097781181,82.7401962280,-168.8422546387,0.0266513228,0.0339074433,0.0194082856,22.5354633331,55.8221206665,-144.2663269043,0.0777858496,-0.0005350262,0.0029128790,
1665.333,-3.2256109715,1.3269802332,173.5756988525,0.0578260757,0.0372097716,0.0042949319,-114.5732421875,74.0826721191,-51.3752174377,0.0275763869,0.0613435209,0.0094802231,-4.9212141037,82.7401657104,-168.8485412598,0.0261629820,0.0227025002,0.0238041878,22.5406894684,55.8220062256,-144.2608795166,0.0748549700,0.0111358464,-0.0029275417,
1665.343,-3.2264423370,1.3265700340,173.5750732422,0.0568423569,0.0396656692,0.0052721500,-114.5510635376,74.0624465942,-51.3571853638,0.0308974981,0.0582771301,0.0178246647,-4.9422955513,82.7405242920,-168.8657379150,0.0246989131,0.0222606808,0.0286965370,22.5416564941,55.8209877014,-144.2590179443,0.0753332973,0.0052618682,0.0034089088,
1665.353,-3.2251946926,1.3307216167,173.5773773193,0.0500788540,0.0445266515,0.0057608485,-114.5399093628,74.0498886108,-51.3485832214,0.0342552662,0.0672805309,0.0124919862,-4.9500179291,82.7443389893,-168.8677520752,0.0247073174,0.0256901681,0.0131386518,22.5443725586,55.8214340210,-144.2549285889,0.0777790546,0.0042633116,0.0014730692,
1665.363,-3.2241582870,1.3296762705,173.5767517090,0.0612910837,0.0440203324,0.0077126622,-114.5156555176,74.0404510498,-51.3269348145,0.0239560604,0.0660064518,0.0187990516,-4.9672675133,82.7466125488,-168.8793487549,0.0276420116,0.0252368897,0.0239230394,22.5453090668,55.8229522705,-144.2524871826,0.0792587996,0.0037748814,-0.0019218922,
1665.373,-3.2260835171,1.3290065527,173.5773162842,0.0603028387,0.0421007574,0.0101556778,-114.4937896729,74.0360794067,-51.3053092957,0.0297944546,0.0656296909,0.0201980919,-4.9796833992,82.7466583252,-168.8854370117,0.0261772871,0.0228231400,0.0258777738,22.5482654572,55.8218765259,-144.2473297119,0.0768068433,0.0042305291,0.0019820333,
1665.383,-3.2259528637,1.3293503523,173.5771789551,0.0607971139,0.0386805087,0.0067377090,-114.4735412598,74.0348587036,-51.2830886841,0.0332065821,0.0700818300,0.0171882212,-4.9802293777,82.7490158081,-168.8785247803,0.0256941915,0.0291684717,0.0161532164,22.5486259460,55.8227539063,-144.2451629639,0.0709560513,0.0066734105,0.0015056133,
1665.393,-3.2260026932,1.3299926519,173.5789794922,0.0578786358,0.0464938693,0.0038079023,-114.4746780396,74.0485763550,-51.2829170227,0.0088583231,0.0972154737,0.0102622062,-4.9998617172,82.7478790283,-168.8905639648,0.0349690318,0.0218895227,0.0215096474,22.5531330109,55.8241958618,-144.2391357422,0.0763412714,0.0046875179,-0.0004104376,
1665.403,-3.2252628803,1.3307429552,173.5795288086,0.0574034452,0.0450161211,0.0082023740,-114.4577865601,74.0604324341,-51.2670707703,0.0357706547,0.0838847160,0.0198716372,-5.0092420578,82.7472305298,-168.8927612305,0.0266668200,0.0180052072,0.0219871998,22.5501918793,55.8237342834,-144.2385253906,0.0821961761,0.0022701323,0.0025015473,
1665.413,-3.2232100964,1.3304804564,173.5806884766,0.0632582381,0.0474217683,0.0091767907,-114.4569396973,74.0727996826,-51.2704162598,0.0333884954,0.0592836440,0.0080635250,-5.0151376724,82.7442550659,-168.8911285400,0.0256837010,0.0253469348,0.0297510028,22.5504379272,55.8246994019,-144.2347564697,0.0709751844,0.0022733808,0.0020280480,
1665.423,-3.2227714062,1.3286836147,173.5807189941,0.0598089173,0.0439962000,0.0091755986,-114.4639205933,74.0854721069,-51.2695846558,0.0329608917,0.0707961619,0.0099593103,-5.0236668587,82.7432556152,-168.8938598633,0.0212869644,0.0219494402,0.0258294344,22.5538139343,55.8255424500,-144.2296447754,0.0802607536,0.0076183677,-0.0047851801,
1665.433,-3.2229595184,1.3283300400,173.5817871094,0.0656621233,0.0396049507,0.0077108741,-114.4729537964,74.1005249023,-51.2677879333,0.0261969566,0.0725015700,0.0113593638,-5.0156226158,82.7446670532,-168.8744812012,0.0261728764,0.0238825977,0.0199919343,22.5506362915,55.8259963989,-144.2287292480,0.0773355365,0.0003256351,0.0044872761,
1665.443,-3.2231616974,1.3270770311,173.5823364258,0.0622222908,0.0396085009,0.0067338943,-114.4821853638,74.1145095825,-51.2660255432,0.0311465859,0.0532276928,0.0166739225,-5.0154013634,82.7432556152,-168.8630523682,0.0315408707,0.0258372873,0.0302222967,22.5501270294,55.8243827820,-144.2254943848,0.0836673975,-0.0006553978,0.0010447502,
1665.453,-3.2228198051,1.3270982504,173.5834960938,0.0602695383,0.0435087942,0.0135694742,-114.4964828491,74.1261749268,-51.2632675171,0.0277843475,0.0618108213,0.0054248869,-5.0102438927,82.7463378906,-168.8466796875,0.0222703218,0.0272860974,0.0126951337,22.5505657196,55.8226737976,-144.2215270996,0.0768146515,0.0076320767,0.0054193139,
1665.463,-3.2235057354,1.3259118795,173.5847015381,0.0597605556,0.0401027985,0.0008745193,-114.5186767578,74.1374435425,-51.2716484070,0.0366271734,0.0542704761,0.0069082826,-5.0168194771,82.7459030151,-168.8424987793,0.0227576494,0.0209536403,0.0258736014,22.5479030609,55.8216209412,-144.2193756104,0.0694801211,0.0027674139,0.0097885728,
1665.473,-3.2240047455,1.3254941702,173.5858306885,0.0617063940,0.0405997895,0.0106404424,-114.5315628052,74.1535873413,-51.2777976990,0.0318213701,0.0588824153,0.0151529312,-5.0065269470,82.7449874878,-168.8222198486,0.0266618729,0.0277680904,0.0214610100,22.5465965271,55.8206481934,-144.2156524658,0.0709354281,0.0052154064,0.0044008493,
1665.483,-3.2235078812,1.3258316517,173.5863647461,0.0587825924,0.0420559645,0.0062454939,-114.5435333252,74.1650619507,-51.2883720398,0.0348057151,0.0552659631,0.0092658699,-5.0099740028,82.7461242676,-168.8167724609,0.0256878138,0.0219146907,0.0224574804,22.5448493958,55.8218307495,-144.2148284912,0.0694822073,0.0037728250,0.0000144243,
1665.493,-3.2240591049,1.3271081448,173.5875091553,0.0553869009,0.0406006984,-0.0010775924,-114.5559387207,74.1738128662,-51.3032798767,0.0328942537,0.0502251387,0.0077943057,-5.0040831566,82.7446060181,-168.8038787842,0.0291024446,0.0243452638,0.0248718262,22.5433197021,55.8208618164,-144.2141571045,0.0763086081,0.0047580302,0.0058560371,
1665.503,-3.2241661549,1.3257333040,173.5880737305,0.0626871288,0.0420674384,0.0077110529,-114.5655517578,74.1760177612,-51.3149490356,0.0338813066,0.0496850014,0.0034260899,-5.0148725510,82.7431488037,-168.8069458008,0.0290992260,0.0194886327,0.0219193101,22.5413398743,55.8200035095,-144.2137603760,0.0743470788,0.0047710836,0.0097424984,
1665.513,-3.2262387276,1.3256926537,173.5873870850,0.0578036085,0.0352676101,0.0086891651,-114.5655899048,74.1774520874,-51.3123054504,0.0333998203,0.0545444489,0.0146468431,-4.9956498146,82.7426834106,-168.7801971436,0.0217739940,0.0287239254,0.0209307671,22.5423698425,55.8208656311,-144.2119598389,0.0743555427,0.0096493810,0.0019459128,
1665.523,-3.2264828682,1.3239263296,173.5873718262,0.0636321604,0.0460140854,-0.0001000166,-114.5637435913,74.1773986816,-51.3022155762,0.0309581757,0.0565031767,0.0185454786,-4.9854545593,82.7413406372,-168.7617492676,0.0261655450,0.0247968733,0.0267667770,22.5418434143,55.8224067688,-144.2091979980,0.0694878101,0.0072213113,0.0044058561,
1665.533,-3.2262475491,1.3251597881,173.5897064209,0.0582825914,0.0430802777,0.0101541877,-114.5622787476,74.1705398560,-51.2879066467,0.0353200436,0.0580747426,0.0088211447,-4.9870748520,82.7420654297,-168.7554168701,0.0217726231,0.0306588411,0.0267783999,22.5456905365,55.8245773315,-144.2047882080,0.0709739327,0.0115929842,-0.0028750300,
1665.543,-3.2262735367,1.3234789371,173.5914459229,0.0660657585,0.0401510783,0.0057588816,-114.5684661865,74.1633682251,-51.2798843384,0.0347976089,0.0571952760,0.0113393962,-4.9978756905,82.7415771484,-168.7548828125,0.0261660814,0.0214061737,0.0253087878,22.5480728149,55.8250961304,-144.1996765137,0.0783032775,0.0037617385,0.0000704527,
1665.553,-3.2250041962,1.3230930567,173.5937957764,0.0641058981,0.0445235074,0.0135701895,-114.5705108643,74.1519622803,-51.2695770264,0.0298604965,0.0568766892,0.0045916736,-5.0071821213,82.7394485474,-168.7523345947,0.0256730914,0.0238716006,0.0252724290,22.5535640717,55.8278465271,-144.1896667480,0.0763770938,0.0037271976,-0.0037785769,
1665.563,-3.2239239216,1.3230222464,173.5955963135,0.0582452938,0.0440164059,0.0042917728,-114.5606155396,74.1378402710,-51.2507209778,0.0600665808,0.0517402291,0.0114827752,-5.0147213936,82.7406616211,-168.7498474121,0.0242109299,0.0248630345,0.0199248791,22.5542564392,55.8296813965,-144.1857147217,0.0729771256,0.0008014739,-0.0052160025,
1665.573,-3.2233116627,1.3263546228,173.5966796875,0.0524440631,0.0425408147,-0.0030321479,-114.5451736450,74.1207733154,-51.2274818420,0.0428952575,0.0393351912,0.0154404044,-5.0162310600,82.7402267456,-168.7426605225,0.0325107574,0.0263319016,0.0267535448,22.5597496033,55.8275337219,-144.1792144775,0.0788154602,0.0105053186,-0.0037599206,
1665.583,-3.2217805386,1.3283475637,173.5977630615,0.0573616475,0.0434906632,0.0052683353,-114.5427017212,74.1121597290,-51.2203903198,0.0291822553,0.0687681437,0.0057238787,-5.0209827423,82.7426834106,-168.7373504639,0.0203091502,0.0243857503,0.0189826488,22.5593357086,55.8281898499,-144.1769561768,0.0822398663,0.0036769360,-0.0032632947,
1665.593,-3.2230415344,1.3277249336,173.5983886719,0.0558859445,0.0400946774,0.0116169453,-114.5310668945,74.1094970703,-51.2121315002,0.0330757499,0.0644375980,0.0135041773,-4.9957475662,82.7408218384,-168.7040557861,0.0242112875,0.0311682969,0.0233407021,22.5625553131,55.8281250000,-144.1717681885,0.0758915544,0.0129245967,0.0016294718,
1665.603,-3.2243471146,1.3253939152,173.5983734131,0.0636577681,0.0401174724,0.0047813654,-114.5115814209,74.1103591919,-51.1985321045,0.0301501751,0.0581154823,0.0143895894,-4.9853782654,82.7390594482,-168.6871795654,0.0256722569,0.0218705088,0.0242850184,22.5640144348,55.8292274475,-144.1687774658,0.0832266212,0.0065699667,-0.0061617494,
1665.613,-3.2228438854,1.3261482716,173.5982818604,0.0592764020,0.0435092337,0.0042919517,-114.5085296631,74.1105880737,-51.1990127563,0.0316161513,0.0620237887,0.0099802017,-4.9915060997,82.7371673584,-168.6876068115,0.0222501159,0.0248165876,0.0286493301,22.5559024811,55.8315162659,-144.1734008789,0.0793427825,-0.0045744479,-0.0012797117,
1665.623,-3.2236819267,1.3265681267,173.5981903076,0.0583071634,0.0396175832,0.0042925477,-114.4987564087,74.1162185669,-51.1874656677,0.0282250643,0.0668411255,0.0128281862,-4.9771490097,82.7391433716,-168.6673278809,0.0266489983,0.0223402232,0.0198919177,22.5518188477,55.8332672119,-144.1743774414,0.0720356703,0.0008433312,0.0050764084,
1665.633,-3.2228059769,1.3256870508,173.5999755859,0.0631746054,0.0454617105,0.0033150315,-114.4990997314,74.1223678589,-51.1806793213,0.0248364806,0.0657694042,0.0113220960,-4.9885296822,82.7404937744,-168.6716918945,0.0227457285,0.0218753666,0.0199157000,22.5525913239,55.8347702026,-144.1726989746,0.0720504522,0.0042626411,0.0011931658,
1665.643,-3.2233264446,1.3253451586,173.6011352539,0.0587741062,0.0386348516,-0.0040088296,-114.4996643066,74.1308746338,-51.1713752747,0.0326895714,0.0671038330,0.0176132172,-4.9855093956,82.7386016846,-168.6568756104,0.0271360874,0.0272424519,0.0262320042,22.5602340698,55.8365592957,-144.1636352539,0.0710914135,0.0071330220,-0.0031488538,
1665.653,-3.2213242054,1.3250194788,173.6016693115,0.0612098277,0.0429945067,0.0091726184,-114.5137863159,74.1413650513,-51.1728210449,0.0312747955,0.0625217855,0.0132073313,-4.9777069092,82.7390594482,-168.6392364502,0.0295785069,0.0311307609,0.0164712071,22.5644950867,55.8360786438,-144.1557617188,0.0764577985,0.0090448558,0.0002787113,
1665.663,-3.2218439579,1.3259458542,173.6033477783,0.0612259954,0.0405621380,0.0057556033,-114.5279769897,74.1504135132,-51.1724395752,0.0366890430,0.0545421243,0.0176008940,-4.9828109741,82.7401428223,-168.6330718994,0.0261629224,0.0243045539,0.0203971863,22.5664806366,55.8363761902,-144.1501159668,0.0735310316,0.0065871477,0.0012667179,
1665.673,-3.2217693329,1.3247958422,173.6033935547,0.0572996773,0.0449553914,0.0018488765,-114.5527420044,74.1597213745,-51.1850776672,0.0357568264,0.0533765554,0.0108079612,-4.9627037048,82.7386322021,-168.6029510498,0.0300658345,0.0276800245,0.0232968330,22.5618343353,55.8323745728,-144.1492614746,0.0808160305,0.0036773831,0.0065669417,
1665.683,-3.2201888561,1.3251646757,173.6040039063,0.0563295558,0.0459044129,-0.0001057386,-114.6150207520,74.1677551270,-51.2378997803,0.0372599363,0.0555705726,-0.0060670376,-4.9590139389,82.7374725342,-168.5891418457,0.0281101465,0.0227906853,0.0237649083,22.5596408844,55.8301849365,-144.1486511230,0.0812828541,0.0002671778,0.0045763254,
1665.693,-3.2217762470,1.3270405531,173.6063232422,0.0539208762,0.0366546847,0.0116152763,-114.6937332153,74.1724319458,-51.3132896423,0.0372821689,0.0514375567,-0.0028279722,-4.9424705505,82.7344970703,-168.5624542236,0.0266387463,0.0237347931,0.0285937786,22.5552692413,55.8293762207,-144.1493835449,0.0778569579,-0.0011625737,0.0079670548,
1665.703,-3.2211790085,1.3280681372,173.6081237793,0.0544270873,0.0444567464,0.0047793388,-114.8008041382,74.1725006104,-51.4173240662,0.0392356515,0.0595232248,-0.0018754154,-4.9132938385,82.7345275879,-168.5228729248,0.0261505246,0.0197633654,0.0144304633,22.5599193573,55.8290443420,-144.1441192627,0.0754122734,0.0085591078,-0.0022737384,
1665.713,-3.2231178284,1.3304207325,173.6103973389,0.0564212650,0.0376545377,0.0077118874,-114.9058914185,74.1622619629,-51.5205497742,0.0357689261,0.0477488339,0.0089063644,-4.8909320831,82.7361755371,-168.4913940430,0.0290838480,0.0187346786,0.0193353295,22.5580482483,55.8292503357,-144.1430969238,0.0729728937,0.0046709478,0.0060228109,
1665.723,-3.2222464085,1.3329037428,173.6121368408,0.0535349026,0.0454517938,0.0018526316,-115.0320434570,74.1457138062,-51.6416969299,0.0278775692,0.0526288152,0.0002930760,-4.8618097305,82.7361221313,-168.4531097412,0.0271306038,0.0191581547,0.0232353210,22.5559120178,55.8292007446,-144.1447143555,0.0705310106,0.0051783025,0.0060141683,
1665.733,-3.2205331326,1.3344124556,173.6133117676,0.0525846630,0.0420039482,0.0033164620,-115.1392517090,74.1240386963,-51.7431526184,0.0341218114,0.0473690629,0.0145838857,-4.8438777924,82.7352066040,-168.4268035889,0.0285934210,0.0220491588,0.0232172012,22.5512790680,55.8313789368,-144.1463012695,0.0739703178,-0.0016036183,0.0001664162,
1665.743,-3.2186262608,1.3341308832,173.6151733398,0.0569742806,0.0468535461,0.0081968307,-115.2342758179,74.0988235474,-51.8309402466,0.0159349442,0.0441393852,0.0083398819,-4.8209662437,82.7345809937,-168.3973846436,0.0276154876,0.0234639198,0.0207595825,22.5484046936,55.8322792053,-144.1488342285,0.0686080456,0.0047750324,0.0045620799,
1665.753,-3.2196669579,1.3325244188,173.6175842285,0.0637821853,0.0429654643,0.0057564378,-115.3162918091,74.0755157471,-51.9082450867,0.0241241455,0.0521363914,0.0103276521,-4.7806749344,82.7341461182,-168.3525238037,0.0261496902,0.0282574743,0.0246523023,22.5469932556,55.8336639404,-144.1477661133,0.0749692917,0.0047955215,0.0001807213,
1665.763,-3.2217214108,1.3313057423,173.6187286377,0.0622960776,0.0351887830,0.0086871386,-115.3682556152,74.0583953857,-51.9589080811,0.0245304108,0.0605895817,0.0253245831,-4.7699961662,82.7329940796,-168.3355255127,0.0276119709,0.0262822509,0.0241413713,22.5448989868,55.8367385864,-144.1468048096,0.0701166391,0.0009252280,-0.0002744794,
1665.773,-3.2228174210,1.3315471411,173.6211242676,0.0574174821,0.0405789614,0.0086884499,-115.4156799316,74.0384674072,-52.0056190491,0.0273644924,0.0554212630,0.0163964778,-4.7579607964,82.7332305908,-168.3182678223,0.0193117261,0.0247901827,0.0182846785,22.5429000854,55.8372344971,-144.1473388672,0.0803753734,-0.0034484565,0.0060722232,
1665.783,-3.2205421925,1.3315962553,173.6216583252,0.0598597415,0.0439573005,0.0081980824,-115.4278411865,74.0152587891,-52.0245285034,0.0316475630,0.0474462807,0.0210106224,-4.7579498291,82.7301025391,-168.3119506836,0.0266290307,0.0252828896,0.0304382443,22.5465888977,55.8369750977,-144.1412200928,0.0789079666,0.0092120171,-0.0031945705,
1665.793,-3.2215602398,1.3337569237,173.6252136230,0.0550146326,0.0429984182,0.0018521547,-115.4549179077,73.9856109619,-52.0524559021,0.0334580541,0.0590683222,0.0081582367,-4.7764673233,82.7300186157,-168.3238372803,0.0212577581,0.0160469264,0.0201868415,22.5486278534,55.8363037109,-144.1386260986,0.0798779726,0.0072367042,0.0007103682,
1665.803,-3.2230110168,1.3320100307,173.6251678467,0.0637732148,0.0396057628,0.0052708983,-115.4615936279,73.9509506226,-52.0542297363,0.0318261981,0.0556717217,0.0167371780,-4.7723155022,82.7289657593,-168.3132019043,0.0280913711,0.0214103609,0.0235846043,22.5469894409,55.8358116150,-144.1401367188,0.0798731446,0.0057839453,0.0011857748,
1665.813,-3.2217266560,1.3331011534,173.6257019043,0.0584211573,0.0469075851,0.0101528764,-115.4527130127,73.9121780396,-52.0386772156,0.0282208920,0.0562752485,0.0189301074,-4.7598485947,82.7288284302,-168.2913970947,0.0266262293,0.0287069529,0.0250450373,22.5459308624,55.8375244141,-144.1393280029,0.0764719844,0.0058030188,0.0031577945,
1665.823,-3.2199723721,1.3331164122,173.6263122559,0.0579331405,0.0463887453,0.0111277103,-115.4201660156,73.8727645874,-52.0023574829,0.0202175379,0.0481493473,0.0161404759,-4.7781705856,82.7302093506,-168.3027496338,0.0315120816,0.0228864402,0.0157951713,22.5430583954,55.8379440308,-144.1390838623,0.0740346909,0.0048548281,0.0026643872,
1665.833,-3.2201757431,1.3321549892,173.6280822754,0.0613343343,0.0395563617,0.0038032532,-115.3485260010,73.8383255005,-51.9310417175,0.0161441565,0.0527241230,0.0263259560,-4.7763099670,82.7312927246,-168.2958984375,0.0280964971,0.0287400782,0.0221616626,22.5394554138,55.8394737244,-144.1393127441,0.0764910579,0.0014779270,-0.0002585053,
1665.843,-3.2206556797,1.3337104321,173.6298370361,0.0550138168,0.0405412614,0.0145468116,-115.2306365967,73.8099288940,-51.8167228699,0.0199123621,0.0543755293,0.0289379805,-4.7886362076,82.7315292358,-168.3021240234,0.0183314085,0.0292555690,0.0285144448,22.5379638672,55.8385086060,-144.1372375488,0.0706222057,0.0044157803,0.0036293268,
1665.853,-3.2186832428,1.3344855309,173.6303558350,0.0618632808,0.0492959358,0.0150330663,-115.0610046387,73.7828445435,-51.6496200562,0.0153858662,0.0487889051,0.0327740908,-4.8329205513,82.7348251343,-168.3403015137,0.0266394615,0.0264198482,0.0217432976,22.5400867462,55.8365745544,-144.1326904297,0.0749978423,0.0097569823,0.0021467209,
1665.863,-3.2181954384,1.3348168135,173.6315002441,0.0589393750,0.0419632234,0.0067321062,-114.8567276001,73.7590103149,-51.4500617981,0.0240586996,0.0583602488,0.0271523744,-4.8958816528,82.7359848022,-168.3977661133,0.0300599933,0.0236287862,0.0256808400,22.5424156189,55.8349914551,-144.1268310547,0.0696111917,0.0038676560,0.0109227896,
1665.873,-3.2175023556,1.3339432478,173.6320800781,0.0608772561,0.0448808484,0.0062429905,-114.6215515137,73.7351684570,-51.2252693176,0.0293133259,0.0582270026,0.0189473927,-4.9567022324,82.7377471924,-168.4518432617,0.0237162113,0.0232734084,0.0183981061,22.5454463959,55.8363571167,-144.1212158203,0.0735307932,0.0023830384,0.0021641850,
1665.883,-3.2166697979,1.3346649408,173.6326599121,0.0574718788,0.0453546084,0.0072190166,-114.3417282104,73.7121734619,-50.9581069946,0.0311539769,0.0532859266,0.0290865898,-5.0402827263,82.7410659790,-168.5286407471,0.0276297927,0.0200366080,0.0179823041,22.5471935272,55.8331680298,-144.1166076660,0.0813120604,0.0052790940,0.0074982643,
1665.893,-3.2190527916,1.3347347975,173.6325683594,0.0594262183,0.0385601893,0.0013619065,-114.0567932129,73.6835556030,-50.6862525940,0.0324786305,0.0499008000,0.0118910223,-5.0979142189,82.7448730469,-168.5797119141,0.0251967907,0.0294363648,0.0195244551,22.5480403900,55.8326721191,-144.1110992432,0.0744712949,0.0023391694,0.0060312152,
1665.903,-3.2181673050,1.3361248970,173.6331176758,0.0550559461,0.0434275381,0.0047795773,-113.7481460571,73.6511993408,-50.3883666992,0.0269487500,0.0466150045,0.0180439353,-5.1540226936,82.7513427734,-168.6273651123,0.0222813487,0.0275981575,0.0176920891,22.5523986816,55.8293342590,-144.1031951904,0.0739502907,0.0096052885,0.0103964210,
1665.913,-3.2190499306,1.3350722790,173.6349487305,0.0594321117,0.0414898135,0.0013619661,-113.4343719482,73.6123657227,-50.0810241699,0.0248045921,0.0546640456,0.0105362535,-5.2123341560,82.7565689087,-168.6791687012,0.0222928524,0.0296727717,0.0216986537,22.5578994751,55.8288879395,-144.0927124023,0.0729693174,0.0080882758,0.0025995970,
1665.923,-3.2204704285,1.3351590633,173.6348266602,0.0594336279,0.0376083069,0.0033165812,-113.0964889526,73.5705718994,-49.7449760437,0.0270399451,0.0549865663,0.0219710022,-5.2892279625,82.7597961426,-168.7488555908,0.0242530704,0.0254439414,0.0295811892,22.5597343445,55.8278121948,-144.0844726563,0.0744236708,0.0017179847,0.0060095787,
1665.933,-3.2214727402,1.3377588987,173.6359558105,0.0531313345,0.0410436839,0.0062483549,-112.7315521240,73.5239105225,-49.3757286072,0.0268092752,0.0554304719,0.0245126784,-5.3584074974,82.7607116699,-168.8108367920,0.0218136907,0.0260842592,0.0315645933,22.5667095184,55.8264656067,-144.0739288330,0.0734338760,0.0045770705,0.0006472468,
1665.943,-3.2225134373,1.3390668631,173.6377105713,0.0536424369,0.0386203676,0.0116210580,-112.3135757446,73.4666900635,-48.9487457275,0.0362911820,0.0419707000,0.0288164318,-5.4255709648,82.7627792358,-168.8708190918,0.0286541581,0.0272064358,0.0223373175,22.5696144104,55.8265686035,-144.0668792725,0.0763645768,-0.0008197874,-0.0037352443,
1665.953,-3.2212817669,1.3390330076,173.6401062012,0.0604777820,0.0444582961,0.0072253346,-111.8364486694,73.3991928101,-48.4632415771,0.0383966565,0.0448848605,0.0245894790,-5.5001354218,82.7679824829,-168.9372863770,0.0320835710,0.0190626234,0.0156041384,22.5703964233,55.8276481628,-144.0606384277,0.0807696581,0.0021088123,-0.0022531152,
1665.963,-3.2207901478,1.3404597044,173.6429901123,0.0619675219,0.0439614132,0.0086898208,-111.2963104248,73.3148956299,-47.9199562073,0.0369987488,0.0340011716,0.0260043144,-5.5486383438,82.7712631226,-168.9752807617,0.0267196894,0.0225826651,0.0195764899,22.5725574493,55.8283996582,-144.0545654297,0.0778473616,0.0055113733,0.0011830330,
1665.973,-3.2202589512,1.3385812044,173.6441650391,0.0643761456,0.0400459543,0.0028294921,-110.7323532104,73.2188796997,-47.3492927551,0.0326099992,0.0389538407,0.0161107779,-5.5927128792,82.7780227661,-169.0145874023,0.0233165622,0.0295049399,0.0187248588,22.5690517426,55.8287582397,-144.0515441895,0.0754094720,0.0006622970,0.0094753504,
1665.983,-3.2200806141,1.3408672810,173.6459197998,0.0522090085,0.0429724790,0.0062483549,-110.1618576050,73.1117477417,-46.7671012878,0.0276739597,0.0430998802,0.0106047392,-5.6483240128,82.7883529663,-169.0653076172,0.0233392119,0.0257044286,0.0106110573,22.5665550232,55.8293647766,-144.0490570068,0.0768802762,-0.0012648404,0.0104507208,
1665.993,-3.2203025818,1.3411216736,173.6459045410,0.0566079766,0.0439529009,-0.0000991225,-109.6081390381,72.9939804077,-46.2000198364,0.0256099701,0.0483432710,-0.0055465996,-5.7331919670,82.7957611084,-169.1472320557,0.0170077682,0.0239262283,0.0200324059,22.5681400299,55.8273124695,-144.0422515869,0.0817429423,0.0031039268,0.0133590698,
1666.003,-3.2194097042,1.3398882151,173.6476287842,0.0663520843,0.0434491001,-0.0010769367,-109.0467071533,72.8690338135,-45.6196022034,0.0239933729,0.0458866954,0.0104846358,-5.8170871735,82.7988052368,-169.2277832031,0.0189675689,0.0294771791,0.0323101878,22.5765342712,55.8283309937,-144.0322875977,0.0671045184,0.0064515918,0.0041270256,
1666.013,-3.2177581787,1.3398509026,173.6482238770,0.0580506474,0.0439086035,0.0091749430,-108.4858932495,72.7334213257,-45.0389442444,0.0286645889,0.0445591509,0.0113902241,-5.9416828156,82.8018035889,-169.3502655029,0.0160444379,0.0238873214,0.0353189111,22.5874652863,55.8261146545,-144.0194091797,0.0753835440,0.0078051388,0.0056034327,
1666.023,-3.2166142464,1.3395417929,173.6482391357,0.0565804094,0.0443769656,0.0042911768,-107.9411010742,72.5893173218,-44.4610061646,0.0313329697,0.0589510798,0.0060199797,-6.0558099747,82.8073348999,-169.4630126953,0.0219159126,0.0290116966,0.0281155109,22.5985851288,55.8238792419,-144.0066833496,0.0714554191,0.0111100525,0.0085454583,
1666.033,-3.2149732113,1.3408653736,173.6512145996,0.0580683500,0.0458131880,0.0096613169,-107.4218902588,72.4346160889,-43.8890800476,0.0358927250,0.0617363453,0.0002911836,-6.1669445038,82.8133163452,-169.5726318359,0.0253469348,0.0263158977,0.0243354440,22.6086978912,55.8248977661,-143.9944915771,0.0704888105,0.0027233064,-0.0026335716,
1666.043,-3.2156319618,1.3420802355,173.6522674561,0.0600426719,0.0380121432,0.0042913556,-106.9008331299,72.2723007202,-43.3100090027,0.0394284725,0.0607284606,0.0111386925,-6.2660226822,82.8177642822,-169.6685180664,0.0224269629,0.0318965912,0.0259004831,22.6122112274,55.8226394653,-143.9891967773,0.0763260722,-0.0056217909,0.0090685487,
1666.053,-3.2141098976,1.3415275812,173.6527709961,0.0639392808,0.0414036028,0.0038013458,-106.3924789429,72.1034469604,-42.7332153320,0.0302261710,0.0588167608,0.0068905354,-6.3781843185,82.8214797974,-169.7783966064,0.0214585066,0.0213938951,0.0279439092,22.6150798798,55.8240356445,-143.9825592041,0.0660858154,-0.0007571876,0.0012851954,
1666.063,-3.2145335674,1.3421602249,173.6538696289,0.0600440688,0.0409226902,0.0072196126,-105.8966369629,71.9259872437,-42.1617774963,0.0390354395,0.0579868257,0.0036687404,-6.4946475029,82.8271713257,-169.8924255371,0.0297716856,0.0182208717,0.0178143382,22.6188869476,55.8229942322,-143.9786529541,0.0763295293,-0.0007974356,-0.0016437769,
1666.073,-3.2129044533,1.3434128761,173.6544342041,0.0556713939,0.0438239649,0.0091719031,-105.3846588135,71.7494277954,-41.5750350952,0.0453991294,0.0581328273,0.0139728785,-6.5936455727,82.8315200806,-169.9908599854,0.0253866315,0.0203826874,0.0213311315,22.6196117401,55.8237075806,-143.9767456055,0.0836607218,-0.0022648871,-0.0016316772,
1666.083,-3.2140486240,1.3417139053,173.6556396484,0.0639425293,0.0448205099,0.0077076554,-104.8688735962,71.5660018921,-40.9836311340,0.0453682542,0.0578920245,0.0125096142,-6.6485514641,82.8346710205,-170.0477294922,0.0302762985,0.0273328274,0.0204217434,22.6194000244,55.8246116638,-143.9747314453,0.0748805404,0.0050662458,0.0037506223,
1666.093,-3.2159204483,1.3396754265,173.6568298340,0.0629303977,0.0380172245,0.0062433481,-104.3284149170,71.3853836060,-40.3570518494,0.0414370298,0.0717866123,0.0206068754,-6.7074308395,82.8361434937,-170.1076660156,0.0258849859,0.0191581249,0.0243681669,22.6202526093,55.8273735046,-143.9732513428,0.0812553167,0.0065387189,0.0028141737,
1666.103,-3.2152338028,1.3403658867,173.6580047607,0.0575713515,0.0448411778,0.0033135414,-103.7894515991,71.1962890625,-39.7036666870,0.0315893292,0.0623612404,0.0174527615,-6.7492589951,82.8348922729,-170.1501159668,0.0278353691,0.0255999863,0.0258221626,22.6154727936,55.8324851990,-143.9758758545,0.0764225721,0.0031923950,0.0009111166,
1666.113,-3.2130448818,1.3413492441,173.6591796875,0.0566119477,0.0457795858,0.0052651167,-103.2482070923,71.0012741089,-39.0378150940,0.0309750438,0.0598517656,0.0196152776,-6.7857193947,82.8368301392,-170.1872253418,0.0249099135,0.0271406919,0.0239125490,22.6145629883,55.8384170532,-143.9747314453,0.0735509992,0.0032334924,-0.0009666085,
1666.123,-3.2128174305,1.3422907591,173.6590270996,0.0610229075,0.0389396660,0.0116125345,-102.7131042480,70.7985076904,-38.3696289063,0.0200514197,0.0593938828,0.0222620070,-6.8314700127,82.8418426514,-170.2338867188,0.0263856649,0.0326019675,0.0259611011,22.6137065887,55.8385200500,-143.9733428955,0.0779466033,0.0042183995,0.0127035379,
1666.133,-3.2135586739,1.3413858414,173.6613922119,0.0634485260,0.0418822877,0.0052655339,-102.1949234009,70.5892639160,-37.7044868469,0.0276330709,0.0609557927,0.0171464980,-6.9197812080,82.8492736816,-170.3206024170,0.0244486928,0.0269204825,0.0197637677,22.6182479858,55.8386459351,-143.9647216797,0.0720884204,0.0061310828,0.0078393817,
1666.143,-3.2161922455,1.3406226635,173.6619415283,0.0605055206,0.0375336558,0.0067326427,-101.7011947632,70.3707427979,-37.0615081787,0.0297766924,0.0543181300,0.0116472095,-7.0243039131,82.8494110107,-170.4234161377,0.0215193033,0.0212893337,0.0315124989,22.6257724762,55.8380622864,-143.9546051025,0.0730592608,0.0075246245,0.0034654737,
1666.153,-3.2186214924,1.3402451277,173.6637268066,0.0570809618,0.0361111425,0.0013638139,-101.2274017334,70.1344070435,-36.4427871704,0.0420548916,0.0493916571,-0.0015579611,-7.1412520409,82.8513107300,-170.5363311768,0.0234765410,0.0239823014,0.0266934633,22.6307868958,55.8351325989,-143.9457855225,0.0735188723,0.0035567582,0.0156526566,
1666.163,-3.2188642025,1.3405972719,173.6660919189,0.0590402335,0.0414864533,0.0047821999,-100.7756958008,69.8842544556,-35.8389930725,0.0464216471,0.0568544269,0.0009660274,-7.2265334129,82.8547973633,-170.6194610596,0.0264137983,0.0290439725,0.0204277039,22.6325244904,55.8300895691,-143.9409027100,0.0817701817,0.0035129786,0.0063144565,
1666.173,-3.2192761898,1.3392252922,173.6660003662,0.0643873885,0.0390522592,-0.0001008511,-100.3519515991,69.6192245483,-35.2540702820,0.0477504730,0.0562092960,0.0046091378,-7.3129911423,82.8583068848,-170.7035369873,0.0308159590,0.0223891735,0.0195342898,22.6341743469,55.8300323486,-143.9370727539,0.0798164606,0.0039859563,0.0048549771,
1666.183,-3.2197647095,1.3401981592,173.6659088135,0.0565918647,0.0385724604,0.0111304522,-99.9569549561,69.3421401978,-34.6929931641,0.0484967232,0.0527827740,-0.0023486614,-7.3669681549,82.8627319336,-170.7568359375,0.0278958678,0.0234736800,0.0162075758,22.6357479095,55.8282737732,-143.9345397949,0.0812640786,0.0059151351,0.0038610101,
1666.193,-3.2182502747,1.3421798944,173.6675720215,0.0595561303,0.0434288457,0.0023408532,-99.5785980225,69.0610198975,-34.1472702026,0.0462662578,0.0562271178,0.0029478669,-7.3947381973,82.8670501709,-170.7845458984,0.0288817883,0.0259663463,0.0162866116,22.6307907104,55.8324356079,-143.9372100830,0.0764220953,-0.0003646314,-0.0053802133,
1666.203,-3.2194440365,1.3416160345,173.6699829102,0.0600345731,0.0424730927,0.0028296709,-99.1967773438,68.7727279663,-33.6036682129,0.0327374935,0.0446391404,0.0091546029,-7.4227581024,82.8673553467,-170.8143615723,0.0279058814,0.0255382806,0.0270434022,22.6266670227,55.8362541199,-143.9396362305,0.0730415583,0.0016471595,0.0078397989,
1666.213,-3.2206516266,1.3418127298,173.6705017090,0.0615028441,0.0424941219,0.0086905360,-98.8136291504,68.4847412109,-33.0652122498,0.0294409990,0.0457278192,0.0123571455,-7.4648122787,82.8692169189,-170.8576202393,0.0244919658,0.0246492326,0.0261099339,22.6249332428,55.8429489136,-143.9415893555,0.0711539984,0.0060944259,-0.0018441081,
1666.223,-3.2218537331,1.3404171467,173.6703796387,0.0644081831,0.0342143178,-0.0015627146,-98.4369659424,68.1947326660,-32.5352745056,0.0202485919,0.0502455533,0.0072392821,-7.5270676613,82.8738479614,-170.9237823486,0.0235254169,0.0286807269,0.0262057185,22.6294898987,55.8462600708,-143.9360504150,0.0682567954,0.0080247670,0.0011472106,
1666.233,-3.2228066921,1.3402695656,173.6721954346,0.0585462376,0.0454613902,0.0052741170,-98.0414276123,67.8964920044,-31.9928016663,0.0226970315,0.0441535115,0.0253902674,-7.6005058289,82.8772277832,-171.0012969971,0.0206030607,0.0317626148,0.0301900506,22.6357078552,55.8488540649,-143.9287414551,0.0663291216,0.0035883933,0.0060881972,
1666.243,-3.2223749161,1.3393479586,173.6733856201,0.0609715581,0.0439890437,0.0008786917,-97.6550827026,67.5888748169,-31.4605388641,0.0274993777,0.0459967852,0.0201152563,-7.7147264481,82.8834838867,-171.1194763184,0.0211048722,0.0261371732,0.0220293999,22.6479301453,55.8505477905,-143.9164733887,0.0712285042,0.0088583827,-0.0006790161,
1666.253,-3.2211568356,1.3414138556,173.6751251221,0.0551482327,0.0444560610,0.0072261691,-97.2842102051,67.2734832764,-30.9390678406,0.0361289382,0.0503740013,0.0085414350,-7.8609771729,82.8917007446,-171.2702484131,0.0230757594,0.0215527713,0.0090283751,22.6582527161,55.8495216370,-143.9043579102,0.0756129622,0.0043646395,0.0066697598,
1666.263,-3.2215032578,1.3425139189,173.6756439209,0.0561439916,0.0390909798,0.0072265267,-96.9159698486,66.9494247437,-30.4172821045,0.0456478596,0.0543801188,0.0140232891,-7.9916915894,82.8943252563,-171.4036865234,0.0225931406,0.0223184973,0.0291301012,22.6674766541,55.8474769592,-143.8941192627,0.0790109038,0.0106176436,0.0047253966,
1666.273,-3.2204620838,1.3439264297,173.6773834229,0.0571451969,0.0439556129,-0.0015627146,-96.5594482422,66.6159210205,-29.8979625702,0.0497009158,0.0629009306,0.0112328827,-8.0961170197,82.8972549438,-171.5113372803,0.0279705524,0.0230260491,0.0262820721,22.6669864655,55.8496704102,-143.8935852051,0.0804972649,-0.0015728474,0.0013339520,
1666.283,-3.2188420296,1.3447682858,173.6778717041,0.0610661358,0.0439273752,-0.0000991225,-96.2285156250,66.2752761841,-29.3951206207,0.0575789213,0.0680760741,0.0051471293,-8.1645441055,82.8984146118,-171.5834503174,0.0294378996,0.0226831287,0.0214402080,22.6660480499,55.8509635925,-143.8956909180,0.0814864635,-0.0010688901,0.0037891269,
1666.293,-3.2197928429,1.3457863331,173.6771392822,0.0586424954,0.0390611067,0.0165037513,-95.9203338623,65.9249114990,-28.9043693542,0.0521718264,0.0601848662,0.0030791610,-8.1859960556,82.9011535645,-171.6097259521,0.0294438004,0.0261410326,0.0170977116,22.6658687592,55.8549537659,-143.8959960938,0.0810372829,0.0033494681,-0.0025059581,
1666.303,-3.2193014622,1.3493670225,173.6788330078,0.0518690348,0.0419821516,0.0028329492,-95.6316680908,65.5699386597,-28.4264030457,0.0481621027,0.0552622378,0.0079321563,-8.1974925995,82.9007873535,-171.6259307861,0.0313961506,0.0227486789,0.0273503065,22.6601314545,55.8571968079,-143.9029541016,0.0820357800,0.0068317354,0.0067794323,
1666.313,-3.2194232941,1.3512183428,173.6794128418,0.0514130555,0.0419842303,0.0086932778,-95.3722686768,65.2160873413,-27.9784126282,0.0372897387,0.0546756387,0.0012193918,-8.2239551544,82.9045791626,-171.6565246582,0.0260332227,0.0227967203,0.0220513344,22.6573066711,55.8618659973,-143.9066009521,0.0737807751,0.0073716193,0.0053664446,
1666.323,-3.2198679447,1.3528436422,173.6811218262,0.0587656349,0.0429684967,0.0052760243,-95.1205596924,64.8566360474,-27.5403785706,0.0317123532,0.0443871021,0.0101435483,-8.2396011353,82.9090347290,-171.6771697998,0.0187186003,0.0316089094,0.0196886063,22.6536121368,55.8636627197,-143.9102783203,0.0737983584,0.0044853389,0.0112358928,
1666.333,-3.2196600437,1.3539185524,173.6817169189,0.0519484505,0.0410117283,0.0072296262,-94.8878021240,64.4975433350,-27.1315402985,0.0290316343,0.0457795262,0.0152513608,-8.2886791229,82.9128494263,-171.7294158936,0.0216565132,0.0263342857,0.0314891338,22.6595268250,55.8683586121,-143.9048156738,0.0674967170,0.0083642304,-0.0008864403,
1666.343,-3.2204189301,1.3548842669,173.6828002930,0.0607543662,0.0420014895,-0.0000934005,-94.6707916260,64.1388397217,-26.7529277802,0.0351076126,0.0490881205,0.0038296208,-8.3668727875,82.9182815552,-171.8114929199,0.0187385082,0.0269781947,0.0252562165,22.6608734131,55.8690834045,-143.9014282227,0.0675038099,0.0029849410,0.0108470321,
1666.353,-3.2241322994,1.3537062407,173.6827392578,0.0617103726,0.0381599590,0.0033278465,-94.4605484009,63.7793388367,-26.3982467651,0.0387006998,0.0431104004,-0.0017253757,-8.4732408524,82.9211273193,-171.9217834473,0.0255805850,0.0242708921,0.0307095647,22.6685695648,55.8672828674,-143.8915252686,0.0748103857,0.0082764477,-0.0003783107,
1666.363,-3.2226414680,1.3529406786,173.6851654053,0.0587673262,0.0410636887,0.0077204704,-94.2435836792,63.4218597412,-26.0603523254,0.0398328304,0.0458728969,0.0038532987,-8.5672369003,82.9261245728,-172.0184783936,0.0280327201,0.0269024521,0.0220342875,22.6688766479,55.8689155579,-143.8893280029,0.0694552660,-0.0039243102,0.0045273304,
1666.373,-3.2252912521,1.3526991606,173.6862487793,0.0631576478,0.0352504812,0.0086996555,-94.0200195313,63.0675468445,-25.7319812775,0.0419317484,0.0519881248,0.0054260343,-8.6543769836,82.9286117554,-172.1094970703,0.0231552720,0.0261070728,0.0225945115,22.6746501923,55.8688774109,-143.8840484619,0.0782439709,0.0048123896,-0.0003341436,
1666.383,-3.2251338959,1.3530951738,173.6885833740,0.0587700233,0.0386657007,0.0013753772,-93.7984085083,62.7178382874,-25.4170284271,0.0484279990,0.0594741702,0.0094069615,-8.7268629074,82.9357223511,-172.1857757568,0.0256119370,0.0262450129,0.0188301802,22.6767215729,55.8678855896,-143.8817138672,0.0816522241,0.0042998195,0.0084493756,
1666.393,-3.2247838974,1.3538826704,173.6897888184,0.0553657934,0.0435424000,0.0121175051,-93.5956268311,62.3691101074,-25.1192035675,0.0539224148,0.0644743443,-0.0011533126,-8.7952814102,82.9398651123,-172.2582855225,0.0246442556,0.0180803984,0.0179477334,22.6773338318,55.8661842346,-143.8821411133,0.0840769410,0.0062379390,0.0094055533,
1666.403,-3.2244546413,1.3537682295,173.6915283203,0.0626880154,0.0435366631,0.0047929883,-93.4161529541,62.0200729370,-24.8353824615,0.0501042008,0.0645641685,0.0006454587,-8.8154811859,82.9454803467,-172.2858734131,0.0329570770,0.0293396562,0.0151191354,22.6791172028,55.8677825928,-143.8821716309,0.0826277733,0.0047659129,0.0025978684,
1666.413,-3.2246694565,1.3546998501,173.6932678223,0.0587980226,0.0459817871,-0.0020424128,-93.2702102661,61.6731071472,-24.5697059631,0.0482234955,0.0719110668,-0.0007329807,-8.8347043991,82.9486770630,-172.3106842041,0.0271045566,0.0293726772,0.0264090300,22.6786079407,55.8705978394,-143.8839569092,0.0807022452,0.0096690655,0.0084929466,
1666.423,-3.2227401733,1.3530683517,173.6938934326,0.0612109601,0.0449716561,0.0013730526,-93.1584320068,61.3206138611,-24.3247661591,0.0438228250,0.0617297292,-0.0008720309,-8.8477315903,82.9483947754,-172.3298492432,0.0236859918,0.0279364884,0.0303152800,22.6806392670,55.8753471375,-143.8843383789,0.0768424869,0.0082122236,0.0027043819,
1666.433,-3.2223958969,1.3521401882,173.6956787109,0.0636361688,0.0435008407,0.0111379027,-93.0616607666,60.9717979431,-24.0895500183,0.0335606337,0.0558621883,0.0054378286,-8.8801660538,82.9503173828,-172.3671417236,0.0271080732,0.0255596191,0.0191283226,22.6778697968,55.8802795410,-143.8871154785,0.0685899854,0.0028936267,0.0047127008,
1666.443,-3.2226912975,1.3523182869,173.6955718994,0.0611978732,0.0415528566,0.0018608570,-92.9656677246,60.6289367676,-23.8604679108,0.0330827236,0.0630686879,0.0205203891,-8.9009113312,82.9520416260,-172.3897247314,0.0192992687,0.0275527835,0.0284411907,22.6832675934,55.8831367493,-143.8841400146,0.0783835649,0.0150677860,0.0008649826,
1666.453,-3.2237174511,1.3529424667,173.6947784424,0.0636501759,0.0391293094,-0.0015556812,-92.8716888428,60.2917480469,-23.6398010254,0.0375055075,0.0560110509,0.0150891542,-8.9516754150,82.9573898315,-172.4447937012,0.0217521191,0.0261826217,0.0178065300,22.6854877472,55.8840484619,-143.8833923340,0.0764393806,0.0067520738,0.0013737679,
1666.463,-3.2254171371,1.3534917831,173.6977844238,0.0563355386,0.0406237468,0.0047934651,-92.7594833374,59.9598083496,-23.4177989960,0.0395026207,0.0522817373,0.0226615071,-8.9947538376,82.9607009888,-172.4917297363,0.0217592120,0.0306608826,0.0212931037,22.6856822968,55.8872261047,-143.8828735352,0.0730525255,0.0062796175,0.0004396439,
1666.473,-3.2251327038,1.3509536982,173.6978149414,0.0621506274,0.0435485467,0.0023510456,-92.6417999268,59.6366996765,-23.2104568481,0.0366657972,0.0444985032,0.0052561536,-9.0591716766,82.9634323120,-172.5605468750,0.0261595845,0.0254201889,0.0267341137,22.6797809601,55.8887329102,-143.8876647949,0.0759969354,-0.0004945844,0.0092269182,
1666.483,-3.2246401310,1.3516483307,173.6996917725,0.0514205582,0.0440282263,0.0086984634,-92.5115890503,59.3223075867,-23.0125999451,0.0397385359,0.0507321358,0.0087091625,-9.1312150955,82.9732818604,-172.6357727051,0.0261806250,0.0284776539,0.0073919296,22.6780223846,55.8910064697,-143.8888549805,0.0735778213,0.0039284825,0.0024147630,
1666.493,-3.2255992889,1.3526415825,173.6990051270,0.0563207008,0.0391621031,0.0086998940,-92.3784637451,59.0149841309,-22.8343086243,0.0399191380,0.0544038415,0.0057610273,-9.2048273087,82.9721603394,-172.7150421143,0.0369204283,0.0252200812,0.0269299746,22.6756935120,55.8922767639,-143.8898925781,0.0716371536,0.0015152693,0.0073059797,
1666.503,-3.2279682159,1.3525574207,173.7007598877,0.0582723543,0.0362736844,0.0038192868,-92.2499465942,58.7141876221,-22.6743927002,0.0391577482,0.0579590797,0.0018529147,-9.2589979172,82.9758529663,-172.7749176025,0.0271626711,0.0297202617,0.0221282840,22.6777095795,55.8925704956,-143.8902435303,0.0770111084,0.0029635131,0.0092703700,
1666.513,-3.2288975716,1.3540505171,173.7006378174,0.0568335690,0.0392195284,0.0087035894,-92.1339950562,58.4171295166,-22.5263919830,0.0388952494,0.0619271994,0.0048726946,-9.3134136200,82.9740600586,-172.8327026367,0.0256940126,0.0298414379,0.0387188196,22.6830101013,55.8931159973,-143.8857421875,0.0765281320,0.0078014582,0.0044146776,
1666.523,-3.2313768864,1.3536891937,173.7017822266,0.0592686683,0.0358447619,0.0082178116,-92.0353546143,58.1263122559,-22.3904800415,0.0415971279,0.0677352548,0.0094949529,-9.3846616745,82.9761581421,-172.9072570801,0.0261867642,0.0290113837,0.0246180296,22.6893482208,55.8944892883,-143.8820648193,0.0780063868,0.0067752898,0.0034804344,
1666.533,-3.2292735577,1.3540540934,173.7035369873,0.0612281598,0.0475268550,0.0106572509,-91.9526672363,57.8387069702,-22.2615890503,0.0364943743,0.0641988516,0.0137603953,-9.4569301605,82.9830856323,-172.9831695557,0.0222952962,0.0227984190,0.0169491172,22.6961879730,55.8935813904,-143.8737640381,0.0794623494,0.0120795369,0.0020292401,
1666.543,-3.2289705276,1.3525394201,173.7041015625,0.0631548539,0.0392208286,0.0072383881,-91.8818054199,57.5536842346,-22.1343307495,0.0411601663,0.0703725219,0.0190992132,-9.5440320969,82.9875564575,-173.0739440918,0.0218165517,0.0215068012,0.0224258900,22.6976661682,55.8952064514,-143.8719635010,0.0750837326,-0.0015966743,-0.0038028955,
1666.553,-3.2291505337,1.3518984318,173.7046203613,0.0621671081,0.0397122651,0.0052847862,-91.8200683594,57.2705116272,-22.0102214813,0.0380100012,0.0623428226,0.0186527744,-9.6208000183,82.9940567017,-173.1513824463,0.0286663175,0.0240933895,0.0176791549,22.6969318390,55.8946609497,-143.8708801270,0.0736135840,0.0008483529,0.0083941817,
1666.563,-3.2288999557,1.3544197083,173.7050170898,0.0597696975,0.0411726870,0.0082156062,-91.7623977661,56.9906730652,-21.8908519745,0.0421951413,0.0527847409,0.0123749599,-9.7102613449,82.9996261597,-173.2433013916,0.0277016163,0.0218261778,0.0173184872,22.7008113861,55.8953132629,-143.8667449951,0.0716668367,0.0056997538,-0.0023247004,
1666.573,-3.2274990082,1.3541760445,173.7061767578,0.0607420057,0.0431014039,0.0008895993,-91.6924133301,56.7234077454,-21.7794227600,0.0386683345,0.0552400947,0.0069420263,-9.7858562469,83.0058517456,-173.3190002441,0.0262500048,0.0268519372,0.0150073767,22.7033996582,55.8957710266,-143.8648529053,0.0770424008,0.0022609830,-0.0008439422,
1666.583,-3.2293419838,1.3536562920,173.7079162598,0.0597563758,0.0338561833,0.0028446317,-91.5984497070,56.4668807983,-21.6710968018,0.0474338531,0.0555806160,0.0139587000,-9.8661623001,83.0119400024,-173.4018554688,0.0218684077,0.0260281265,0.0151394606,22.7093429565,55.8974914551,-143.8586120605,0.0760827065,0.0070997179,-0.0037282705,
1666.593,-3.2295465469,1.3530156612,173.7097015381,0.0602334775,0.0416722596,0.0043094754,-91.4948272705,56.2259712219,-21.5722637177,0.0431506038,0.0620332360,0.0076789260,-9.9442024231,83.0118255615,-173.4818725586,0.0223564506,0.0237525105,0.0337221026,22.7120399475,55.8981781006,-143.8569946289,0.0775542259,0.0012197793,0.0006856918,
1666.603,-3.2280430794,1.3528460264,173.7091217041,0.0563242696,0.0455523245,0.0155383348,-91.3913574219,56.0006561279,-21.4787521362,0.0448642969,0.0721545219,0.0052894279,-10.0358285904,83.0093307495,-173.5791473389,0.0291870832,0.0234660804,0.0268779993,22.7180728912,55.8985633850,-143.8527679443,0.0780462623,0.0021439940,0.0041314363,
1666.613,-3.2284386158,1.3521583080,173.7090454102,0.0621716455,0.0411646962,0.0043079257,-91.2947921753,55.7795906067,-21.3921031952,0.0431889296,0.0670670867,0.0029533431,-10.1090555191,83.0116348267,-173.6535644531,0.0223560333,0.0211731195,0.0240146518,22.7189846039,55.9006462097,-143.8515472412,0.0726955533,0.0021474063,0.0066040754,
1666.623,-3.2270851135,1.3513271809,173.7102508545,0.0606922992,0.0450473875,0.0018649101,-91.1998138428,55.5732383728,-21.3027915955,0.0348104835,0.0739645362,0.0172197968,-10.1552762985,83.0141296387,-173.7028961182,0.0179668069,0.0276112407,0.0216327310,22.7185363770,55.8995780945,-143.8519897461,0.0761030912,0.0026337802,0.0075647831,
1666.633,-3.2278280258,1.3510874510,173.7107543945,0.0626412407,0.0421306528,-0.0015528202,-91.1233978271,55.3702011108,-21.2213344574,0.0376846790,0.0705484152,0.0048039034,-10.2233085632,83.0173034668,-173.7733764648,0.0262743235,0.0233513713,0.0187817216,22.7206382751,55.9012222290,-143.8498687744,0.0795371532,0.0050653815,-0.0021710992,
1666.643,-3.2269957066,1.3496577740,173.7120208740,0.0606631711,0.0474872775,0.0023526549,-91.0505294800,55.1670112610,-21.1367263794,0.0337111354,0.0724969506,0.0090169758,-10.2684955597,83.0224227905,-173.8206176758,0.0179843903,0.0322205871,0.0193730593,22.7253780365,55.9015159607,-143.8451232910,0.0770986080,0.0060007572,0.0022451878,
