Time(sec),Gyr1_X(deg/sec),Gyr1_Y(deg/sec),Gyr1_Z(deg/sec),Acc1_X(m/s^2),Acc1_Y(m/s^2),Acc1_Z(m/s^2),Gyr2_X(deg/sec),Gyr2_Y(deg/sec),Gyr2_Z(deg/sec),Acc2_X(m/s^2),Acc2_Y(m/s^2),Acc2_Z(m/s^2),Gyr_X(deg/sec),Gyr_Y(deg/sec),Gyr_Z(deg/sec),Acc_X(m/s^2),Acc_Y(m/s^2),Acc_Z(m/s^2),Gyr_X(deg/sec),Gyr_Y(deg/sec),Gyr_Z(deg/sec),Acc_X(m/s^2),Acc_Y(m/s^2),Acc_Z(m/s^2),
1738.203,-3.2061705589,1.3317984343,-178.8260040283,0.0559570193,0.0456600450,0.0057426691,-115.1465225220,74.5919647217,-29.7295341492,0.0289995670,0.0602783859,0.0107965171,-5.7700295448,82.7626113892,-110.0340042114,0.0286538005,0.0284588635,0.0233848095,22.7178440094,55.9041786194,-122.2395324707,0.0805426240,0.0046187639,0.0100643635,
1738.213,-3.2067806721,1.3322556019,-178.8260955811,0.0584064014,0.0402995758,0.0111144781,-115.1482696533,74.5941238403,-29.7255172729,0.0324275494,0.0617069602,0.0103000998,-5.7559309006,82.7659988403,-110.0105743408,0.0301260948,0.0284217894,0.0170917511,22.7144012451,55.9036293030,-122.2386322021,0.0707716346,0.0012288988,0.0105329752,
1738.223,-3.2064468861,1.3344838619,-178.8237304688,0.0545390323,0.0456647985,0.0018376708,-115.1465911865,74.5939178467,-29.7182807922,0.0368211269,0.0602487326,0.0142007470,-5.7718219757,82.7639923096,-110.0183029175,0.0276802778,0.0235776305,0.0321979523,22.7121200562,55.9032020569,-122.2377166748,0.0736971498,0.0051533133,0.0031939149,
1738.233,-3.2048521042,1.3363202810,-178.8226318359,0.0579890423,0.0436838493,0.0076963902,-115.1490020752,74.5927658081,-29.7131557465,0.0353509188,0.0558668077,0.0088480413,-5.7697963715,82.7637710571,-110.0063247681,0.0237735510,0.0265032649,0.0214509368,22.7131271362,55.9038963318,-122.2341537476,0.0727273822,0.0041715652,0.0022307634,
1738.243,-3.2038221359,1.3357818127,-178.8220672607,0.0594444945,0.0397596732,-0.0010942817,-115.1408233643,74.5928421021,-29.6993484497,0.0304684639,0.0573467612,0.0151607394,-5.7635512352,82.7641601563,-109.9917907715,0.0281689167,0.0235590339,0.0165736079,22.7125396729,55.9041519165,-122.2313613892,0.0746830106,0.0051548779,0.0007671118,
1738.253,-3.2047021389,1.3355716467,-178.8215484619,0.0609056652,0.0392867252,0.0120908022,-115.1298522949,74.5929718018,-29.6824798584,0.0314456224,0.0544368625,0.0199963152,-5.7668142319,82.7673034668,-109.9868469238,0.0252461433,0.0245374739,0.0200454593,22.7157402039,55.9049606323,-122.2248611450,0.0761557817,0.0041539520,-0.0031161308,
1738.263,-3.2052040100,1.3355456591,-178.8203735352,0.0604169369,0.0427134372,0.0130668879,-115.1385421753,74.5918655396,-29.6861286163,0.0358350277,0.0573663712,0.0058807731,-5.7627253532,82.7695541382,-109.9747009277,0.0228096843,0.0274542272,0.0215477347,22.7195663452,55.9093208313,-122.2198867798,0.0718038678,0.0065849721,-0.0069507360,
1738.273,-3.2041602135,1.3358068466,-178.8173675537,0.0594449267,0.0480663367,0.0037894249,-115.1405868530,74.5944595337,-29.6832256317,0.0285228491,0.0607401729,0.0117302835,-5.7607307434,82.7728958130,-109.9650802612,0.0252584219,0.0245144367,0.0133029222,22.7183208466,55.9074859619,-122.2181167603,0.0737390518,0.0065861046,0.0101109743,
1738.283,-3.2031691074,1.3335877657,-178.8166809082,0.0613593347,0.0480491184,0.0076932907,-115.1474914551,74.5926055908,-29.6861038208,0.0275377035,0.0592906773,0.0044482946,-5.7615036964,82.7708282471,-109.9569549561,0.0272070169,0.0220782459,0.0288932920,22.7187652588,55.9050598145,-122.2149047852,0.0771332979,0.0046153367,-0.0011509061,
1738.293,-3.2030143738,1.3338376284,-178.8149108887,0.0594105683,0.0407222025,0.0086701512,-115.1485519409,74.5952758789,-29.6814937592,0.0334094763,0.0612005293,0.0200587511,-5.7870020866,82.7698516846,-109.9766159058,0.0272048712,0.0187183917,0.0239999294,22.7242965698,55.9076194763,-122.2077026367,0.0800880194,0.0065329075,-0.0054899454,
1738.303,-3.2037944794,1.3340523243,-178.8155670166,0.0569729060,0.0397592261,0.0106237531,-115.1528320313,74.5962219238,-29.6808662415,0.0363435149,0.0577607155,0.0103044510,-5.7944507599,82.7685775757,-109.9765243530,0.0296434760,0.0250847638,0.0234914422,22.7217884064,55.9069023132,-122.2075958252,0.0795927048,0.0021570176,-0.0016027093,
1738.313,-3.2019445896,1.3342531919,-178.8149414063,0.0550232902,0.0446098074,0.0076926351,-115.1539535522,74.5979003906,-29.6772174835,0.0339099169,0.0587086976,0.0137151480,-5.8038387299,82.7652969360,-109.9762573242,0.0174292326,0.0182752311,0.0278329253,22.7178287506,55.9068489075,-122.2072677612,0.0708031654,-0.0007372200,0.0066825151,
1738.323,-3.2011175156,1.3345146179,-178.8144989014,0.0657700375,0.0431305505,0.0135513544,-115.1474380493,74.5975494385,-29.6658897400,0.0392793417,0.0587269664,0.0175964236,-5.7978539467,82.7649688721,-109.9626770020,0.0208464861,0.0250985026,0.0244076252,22.7185192108,55.9071159363,-122.2033615112,0.0795948505,0.0036525577,0.0013174415,
1738.333,-3.2023005486,1.3342949152,-178.8133544922,0.0608833916,0.0382683463,0.0072047114,-115.1493759155,74.5984039307,-29.6616973877,0.0275645852,0.0587103665,0.0122274458,-5.8034272194,82.7669219971,-109.9588088989,0.0276867151,0.0236426294,0.0151647925,22.7239665985,55.9045295715,-122.1941833496,0.0785928965,0.0118896961,0.0056980848,
1738.343,-3.2011604309,1.3353167772,-178.8123016357,0.0628543496,0.0421547107,0.0042743683,-115.1571731567,74.5996475220,-29.6642646790,0.0305000544,0.0611172020,0.0054154694,-5.7929530144,82.7658615112,-109.9419326782,0.0267078280,0.0241096914,0.0263729692,22.7241992950,55.9075393677,-122.1903533936,0.0727630258,0.0060450435,0.0032978058,
1738.353,-3.2002329826,1.3380978107,-178.8112487793,0.0565552153,0.0436033346,-0.0006081462,-115.1672821045,74.5999603271,-29.6692752838,0.0324546099,0.0615808368,0.0064323545,-5.7848281860,82.7669754028,-109.9249877930,0.0242688656,0.0270193219,0.0229740143,22.7269554138,55.9082412720,-122.1848754883,0.0766761303,0.0070005506,-0.0020541549,
1738.363,-3.2013490200,1.3386478424,-178.8100891113,0.0585179403,0.0426462032,0.0169712305,-115.1763381958,74.6016006470,-29.6737174988,0.0300208330,0.0649562776,0.0064588189,-5.7836117744,82.7648086548,-109.9142074585,0.0208461285,0.0211609602,0.0283080339,22.7275657654,55.9096374512,-122.1814880371,0.0747366548,0.0070029497,0.0033388138,
1738.373,-3.2034585476,1.3401275873,-178.8096618652,0.0614734441,0.0392649435,0.0135559440,-115.1759948730,74.5988540649,-29.6696987152,0.0314729214,0.0527910590,0.0094066560,-5.7842531204,82.7629318237,-109.9071731567,0.0271896720,0.0216538906,0.0282762647,22.7275276184,55.9103698730,-122.1778335571,0.0723024607,0.0045658797,0.0023710728,
1738.383,-3.2075960636,1.3402010202,-178.8085174561,0.0575684756,0.0344542190,0.0028178096,-115.1778411865,74.5981597900,-29.6671085358,0.0290282965,0.0610990226,0.0108842552,-5.7773442268,82.7643203735,-109.8901672363,0.0213333368,0.0250541270,0.0185331106,22.7248134613,55.9123573303,-122.1761474609,0.0728101134,0.0006952882,-0.0010303259,
1738.393,-3.2062010765,1.3418066502,-178.8085327148,0.0522253960,0.0451720692,0.0111178756,-115.1793441772,74.5984649658,-29.6630172729,0.0309828520,0.0640210807,0.0138180554,-5.7812561989,82.7644577026,-109.8853607178,0.0257281661,0.0255509913,0.0219524503,22.7259483337,55.9127349854,-122.1712341309,0.0762318373,0.0065465271,0.0048383474,
1738.403,-3.2078993320,1.3421479464,-178.8079681396,0.0566258803,0.0408071131,0.0062367916,-115.1766433716,74.6003036499,-29.6545562744,0.0309913754,0.0586275756,0.0196529627,-5.7556524277,82.7634506226,-109.8502883911,0.0330501795,0.0298902392,0.0292571187,22.7239360809,55.9127960205,-122.1696166992,0.0776972771,0.0021705329,0.0004370809,
1738.413,-3.2099261284,1.3411822319,-178.8067321777,0.0570973158,0.0374244787,0.0081915855,-115.1762161255,74.6004180908,-29.6489791870,0.0388044119,0.0581382513,0.0176972747,-5.7684297562,82.7650756836,-109.8568496704,0.0262178183,0.0211270452,0.0209825635,22.7227191925,55.9148941040,-122.1670761108,0.0733232498,0.0021931827,-0.0000278950,
1738.423,-3.2133309841,1.3399497271,-178.8055419922,0.0600055009,0.0369955413,0.0033116341,-115.1662826538,74.6022720337,-29.6335468292,0.0305122137,0.0600829720,0.0191070735,-5.7702159882,82.7629089355,-109.8514785767,0.0227950811,0.0250406861,0.0229029059,22.7228317261,55.9166603088,-122.1647262573,0.0752936006,0.0017137080,-0.0048868656,
1738.433,-3.2151620388,1.3398039341,-178.8037567139,0.0585381091,0.0423985384,0.0052664876,-115.1581878662,74.6035690308,-29.6211147308,0.0349127650,0.0542198122,0.0141808093,-5.7618436813,82.7637710571,-109.8356323242,0.0213321447,0.0264857113,0.0229130983,22.7220821381,55.9176902771,-122.1634216309,0.0718857050,-0.0007151961,-0.0014581084,
1738.443,-3.2136058807,1.3360290527,-178.8043060303,0.0667730272,0.0457894839,0.0125876069,-115.1714324951,74.6035079956,-29.6291618347,0.0305179358,0.0571241081,0.0010534227,-5.7494688034,82.7625350952,-109.8138427734,0.0286536217,0.0303663909,0.0238690376,22.7221469879,55.9164428711,-122.1584167480,0.0821274519,0.0051366538,0.0092677474,
1738.453,-3.2135374546,1.3355795145,-178.8025512695,0.0618823692,0.0404172018,0.0091694593,-115.1686782837,74.6063156128,-29.6196937561,0.0315074921,0.0634348691,0.0093226135,-5.7479615211,82.7593841553,-109.8055572510,0.0266935825,0.0259742141,0.0291823745,22.7216796875,55.9145736694,-122.1561508179,0.0772263408,0.0017125309,0.0024054050,
1738.463,-3.2122712135,1.3348301649,-178.8018798828,0.0560099185,0.0447896980,0.0013550520,-115.1683654785,74.6053619385,-29.6125907898,0.0358976126,0.0536845326,0.0107929707,-5.7468194962,82.7607955933,-109.7948837280,0.0257201195,0.0264572203,0.0189563632,22.7198791504,55.9144783020,-122.1547164917,0.0723426342,0.0012398660,0.0023966432,
1738.473,-3.2120542526,1.3336600065,-178.8019561768,0.0638020039,0.0433211029,0.0028194785,-115.1753463745,74.6056747437,-29.6125946045,0.0368756056,0.0585482419,0.0069139004,-5.7691807747,82.7633972168,-109.8066635132,0.0242609978,0.0191784203,0.0155836940,22.7187747955,55.9180450439,-122.1528549194,0.0704243779,-0.0031246990,0.0043940544,
1738.483,-3.2128469944,1.3340716362,-178.8014068604,0.0584380925,0.0418700576,0.0037969947,-115.1837844849,74.6053771973,-29.6148166656,0.0378507972,0.0595136285,0.0084163845,-5.7606363297,82.7642669678,-109.7903289795,0.0247511864,0.0245288908,0.0214586854,22.7180995941,55.9161720276,-122.1499252319,0.0811482072,0.0071247667,0.0092484951,
1738.493,-3.2129809856,1.3330183029,-178.8014526367,0.0613493957,0.0399192907,0.0052616596,-115.1856460571,74.6070404053,-29.6091613770,0.0324873924,0.0555772185,0.0089007616,-5.7530012131,82.7666244507,-109.7759704590,0.0232915282,0.0284144282,0.0175875425,22.7178459167,55.9137496948,-122.1478347778,0.0806362629,0.0061370432,0.0072629452,
1738.503,-3.2156512737,1.3365309238,-178.8016967773,0.0560395941,0.0375243202,0.0038003922,-115.1879119873,74.6119003296,-29.6064128876,0.0349513292,0.0603825748,0.0113168359,-5.7469182014,82.7664566040,-109.7603073120,0.0276857018,0.0259595215,0.0200286508,22.7151222229,55.9156265259,-122.1470260620,0.0689358711,0.0027540624,0.0028824210,
1738.513,-3.2139182091,1.3352904320,-178.7998657227,0.0623656064,0.0462832265,0.0052633882,-115.1910247803,74.6110229492,-29.6057682037,0.0295761824,0.0530656278,0.0069417059,-5.7205948830,82.7651062012,-109.7270889282,0.0330538154,0.0268802643,0.0292744637,22.7137203217,55.9165840149,-122.1468505859,0.0738280416,0.0013072193,-0.0015041828,
1738.523,-3.2134747505,1.3358426094,-178.7980804443,0.0584689900,0.0438340753,0.0120991468,-115.1848602295,74.6080627441,-29.5939998627,0.0363984108,0.0521459579,0.0118196607,-5.7199430466,82.7636947632,-109.7188110352,0.0257264972,0.0244398117,0.0248560309,22.7151088715,55.9199600220,-122.1435546875,0.0782555938,0.0003370047,-0.0063369274,
1738.533,-3.2127599716,1.3359133005,-178.7975158691,0.0574936643,0.0428450629,0.0037976503,-115.1809539795,74.6077117920,-29.5857181549,0.0324904919,0.0565532446,0.0122940838,-5.7233419418,82.7648315430,-109.7152252197,0.0213344693,0.0254218280,0.0185301900,22.7144546509,55.9199142456,-122.1402359009,0.0733723640,0.0047371835,0.0073319077,
1738.543,-3.2125928402,1.3361568451,-178.7963409424,0.0570096299,0.0408890173,0.0037977099,-115.1824340820,74.6050796509,-29.5860862732,0.0383377075,0.0561020374,0.0108542144,-5.7246904373,82.7641830444,-109.7079238892,0.0267041326,0.0264026225,0.0287714601,22.7146148682,55.9171180725,-122.1370773315,0.0821340680,0.0037435591,0.0092482567,
1738.553,-3.2141034603,1.3334295750,-178.7945556641,0.0652628243,0.0350560173,0.0013566017,-115.1852188110,74.6057586670,-29.5849113464,0.0275986195,0.0634112060,0.0093962550,-5.7312192917,82.7650222778,-109.7062072754,0.0232880116,0.0244624019,0.0170701146,22.7122898102,55.9137916565,-122.1353454590,0.0796601176,0.0071640015,0.0091954470,
1738.563,-3.2152273655,1.3345624208,-178.7935028076,0.0603997782,0.0384935439,0.0062409043,-115.1735153198,74.6037826538,-29.5698070526,0.0300309062,0.0590685010,0.0132674277,-5.7390751839,82.7653427124,-109.7053985596,0.0267066956,0.0259443223,0.0190278888,22.7122707367,55.9124259949,-122.1315078735,0.0791584849,0.0012971759,0.0052710176,
1738.573,-3.2133257389,1.3338389397,-178.7928924561,0.0603871569,0.0448080860,0.0072153211,-115.1724777222,74.6012878418,-29.5641269684,0.0368552804,0.0556921661,0.0074213147,-5.7485208511,82.7639923096,-109.7077407837,0.0271919966,0.0240141749,0.0234048963,22.7133941650,55.9098815918,-122.1276397705,0.0805984139,0.0076204836,0.0037763119,
1738.583,-3.2144696712,1.3324745893,-178.7910766602,0.0608516261,0.0404335111,0.0106338263,-115.1683883667,74.6012039185,-29.5558624268,0.0300189257,0.0654657483,0.0103345811,-5.7548975945,82.7651367188,-109.7072753906,0.0262179375,0.0240265429,0.0204936266,22.7143077850,55.9075965881,-122.1238021851,0.0756932497,0.0036932230,0.0061906576,
1738.593,-3.2165234089,1.3313062191,-178.7904663086,0.0574132763,0.0375396349,-0.0001066923,-115.1709594727,74.5990600586,-29.5551967621,0.0319621563,0.0557287633,0.0074309409,-5.7590932846,82.7652435303,-109.7030868530,0.0223119259,0.0211058557,0.0219627023,22.7169780731,55.9076652527,-122.1185607910,0.0796002150,0.0041578114,-0.0016106963,
1738.603,-3.2179422379,1.3293520212,-178.7887268066,0.0671447963,0.0395175256,0.0086829066,-115.1657409668,74.5958251953,-29.5468673706,0.0329236984,0.0562755466,0.0040139854,-5.7668070793,82.7648620605,-109.7025756836,0.0208462477,0.0235649943,0.0239112377,22.7159271240,55.9065971375,-122.1162796021,0.0732420683,0.0066027045,0.0047187805,
1738.613,-3.2209272385,1.3288221359,-178.7869567871,0.0598113388,0.0405461043,0.0033144951,-115.1601943970,74.5964889526,-29.5368537903,0.0387861729,0.0601828098,0.0137515366,-5.7713937759,82.7637710571,-109.6998214722,0.0257266760,0.0284599960,0.0238918066,22.7194538116,55.9054260254,-122.1109619141,0.0786017179,0.0114471912,0.0037400126,
1738.623,-3.2204823494,1.3257794380,-178.7874908447,0.0617113709,0.0420032665,0.0038011074,-115.1446228027,74.5959777832,-29.5180549622,0.0299947262,0.0514322519,0.0141779482,-5.7670059204,82.7626419067,-109.6889266968,0.0262124538,0.0235692859,0.0258262157,22.7223072052,55.9044570923,-122.1063156128,0.0800570846,0.0094628632,0.0100854039,
1738.633,-3.2210273743,1.3282037973,-178.7858276367,0.0602888316,0.0468955077,0.0062440038,-115.1473541260,74.5975723267,-29.5150585175,0.0280489922,0.0616562665,0.0102717280,-5.7750506401,82.7619857788,-109.6899490356,0.0296289921,0.0206585526,0.0297231078,22.7277812958,55.9046020508,-122.0979309082,0.0781053901,0.0084377527,-0.0035637617,
1738.643,-3.2212219238,1.3284986019,-178.7835235596,0.0612705350,0.0395746753,0.0018497705,-115.1441574097,74.5988845825,-29.5058078766,0.0295199156,0.0562726259,0.0151317716,-5.7991738319,82.7626419067,-109.7052383423,0.0223062038,0.0211991668,0.0194859505,22.7323837280,55.9049568176,-122.0921096802,0.0810385346,0.0093747079,-0.0015886426,
1738.653,-3.2197210789,1.3288646936,-178.7804870605,0.0568823926,0.0454078987,0.0018483996,-115.1435165405,74.6009521484,-29.4978885651,0.0280646682,0.0591713190,0.0151142180,-5.7974400520,82.7632369995,-109.6959838867,0.0262137651,0.0255888104,0.0243784785,22.7346725464,55.9054565430,-122.0858688354,0.0766488910,0.0039857328,-0.0020616055,
1738.663,-3.2207510471,1.3302321434,-178.7787933350,0.0578828156,0.0385898687,0.0160102248,-115.1453170776,74.6044616699,-29.4924278259,0.0319871902,0.0649747550,0.0175381899,-5.8047599792,82.7605209351,-109.6953201294,0.0223015547,0.0270747244,0.0340977311,22.7392787933,55.9070053101,-122.0779342651,0.0795937181,0.0049293637,-0.0044649839,
1738.673,-3.2208662033,1.3302774429,-178.7764739990,0.0627664179,0.0395684391,0.0184516907,-115.1540069580,74.6057357788,-29.4919223785,0.0398055911,0.0620069802,0.0112181604,-5.8003706932,82.7604141235,-109.6825561523,0.0262075663,0.0226705074,0.0287255645,22.7415103912,55.9072990417,-122.0721511841,0.0800848603,0.0097936690,0.0067778826,
1738.683,-3.2203071117,1.3309602737,-178.7760009766,0.0618017688,0.0444414951,0.0047796369,-115.1589355469,74.6084365845,-29.4900436401,0.0315173268,0.0595164299,0.0112195909,-5.7875595093,82.7616348267,-109.6597747803,0.0247454047,0.0275228620,0.0253249407,22.7355060577,55.9067230225,-122.0719909668,0.0781261325,0.0025205016,0.0062594414,
1738.693,-3.2194788456,1.3328771591,-178.7742614746,0.0559758395,0.0429621860,0.0169867277,-115.1663513184,74.6069107056,-29.4900054932,0.0305336714,0.0580585599,0.0078438222,-5.7801351547,82.7610092163,-109.6447448730,0.0257205963,0.0255543590,0.0204297900,22.7299766541,55.9052619934,-122.0742416382,0.0776235461,0.0040270686,0.0096368790,
1738.703,-3.2195899487,1.3329802752,-178.7737426758,0.0593956113,0.0400344245,0.0003851652,-115.1684722900,74.6083602905,-29.4869213104,0.0315169692,0.0594983101,0.0083305538,-5.7937412262,82.7635116577,-109.6507339478,0.0247495174,0.0216739774,0.0175454617,22.7232093811,55.9035835266,-122.0773162842,0.0776071548,0.0001725554,0.0086125135,
1738.713,-3.2183916569,1.3323293924,-178.7731628418,0.0598725304,0.0424549691,-0.0001044869,-115.1759719849,74.6081924438,-29.4881858826,0.0276099443,0.0599733591,0.0083633363,-5.7812242508,82.7624511719,-109.6280441284,0.0262120366,0.0245776474,0.0282680392,22.7215042114,55.9050636292,-122.0758514404,0.0761567950,0.0001961142,-0.0011405945,
1738.723,-3.2164919376,1.3315333128,-178.7712249756,0.0544875525,0.0468164273,0.0081941485,-115.1688919067,74.6079635620,-29.4729404449,0.0300502777,0.0555971861,0.0137063563,-5.7574033737,82.7638854980,-109.5948638916,0.0218206644,0.0279405415,0.0194957852,22.7170677185,55.9070816040,-122.0757446289,0.0747116804,-0.0007290244,0.0013120174,
1738.733,-3.2158548832,1.3308013678,-178.7700805664,0.0647286847,0.0468053408,0.0047752261,-115.1750717163,74.6080932617,-29.4710903168,0.0324922800,0.0585120022,0.0098252594,-5.7472720146,82.7619857788,-109.5757980347,0.0237696171,0.0269444585,0.0287424922,22.7185020447,55.9061889648,-122.0724639893,0.0795857310,0.0065771937,-0.0011367202,
1738.743,-3.2155938148,1.3313809633,-178.7695312500,0.0579028577,0.0433828160,0.0052635670,-115.1755752563,74.6090240479,-29.4614486694,0.0246840715,0.0624040961,0.0122620761,-5.7513303757,82.7624511719,-109.5699920654,0.0252354741,0.0240233243,0.0214225650,22.7175502777,55.9028701782,-122.0694503784,0.0790649652,0.0099852383,0.0110229850,
1738.753,-3.2150878906,1.3327558041,-178.7672424316,0.0598799735,0.0419091247,0.0086815953,-115.1849899292,74.6072311401,-29.4609680176,0.0359062552,0.0580172241,0.0084082484,-5.7578105927,82.7642135620,-109.5645370483,0.0208448172,0.0264757872,0.0204811096,22.7172870636,55.9029312134,-122.0672225952,0.0785772800,0.0055934787,-0.0006959438,
1738.763,-3.2151618004,1.3329385519,-178.7666168213,0.0550003499,0.0443518162,0.0047751069,-115.1920928955,74.6063461304,-29.4595470428,0.0315076113,0.0550876558,0.0099092424,-5.7551403046,82.7674331665,-109.5522003174,0.0267112851,0.0298826396,0.0205312371,22.7155075073,55.9040298462,-122.0647888184,0.0712638497,0.0041508079,0.0027298331,
1738.773,-3.2142658234,1.3333678246,-178.7666473389,0.0584258065,0.0477541722,0.0086808801,-115.1870651245,74.6028442383,-29.4468364716,0.0378390551,0.0546618104,0.0099131763,-5.7523612976,82.7662200928,-109.5387802124,0.0242671967,0.0289017260,0.0219780803,22.7195739746,55.9053306580,-122.0580139160,0.0727413893,0.0075392425,0.0047150850,
1738.783,-3.2129368782,1.3327302933,-178.7637481689,0.0672037452,0.0404068083,0.0120972395,-115.1837539673,74.6021347046,-29.4337768555,0.0314881206,0.0595620871,0.0177168548,-5.7625989914,82.7681732178,-109.5407257080,0.0272011757,0.0211085975,0.0171304941,22.7172737122,55.9030761719,-122.0549697876,0.0800435543,0.0031529814,0.0061420798,
1738.793,-3.2125797272,1.3331968784,-178.7620391846,0.0628173575,0.0457716733,0.0052611232,-115.1828155518,74.6026382446,-29.4288215637,0.0310021639,0.0536976755,0.0147794485,-5.7646226883,82.7687149048,-109.5331497192,0.0228078365,0.0206238925,0.0166516304,22.7202720642,55.9032287598,-122.0496826172,0.0800451040,0.0065447092,0.0002952814,
1738.803,-3.2117197514,1.3346118927,-178.7608795166,0.0550295487,0.0433152504,0.0028194785,-115.1733245850,74.6000213623,-29.4154644012,0.0344079733,0.0522906184,0.0113402307,-5.7677426338,82.7671661377,-109.5280532837,0.0228044391,0.0230748951,0.0278560519,22.7205314636,55.9034156799,-122.0470962524,0.0839531422,0.0045903027,0.0022523403,
1738.813,-3.2096791267,1.3342691660,-178.7597045898,0.0613712221,0.0452328287,0.0086767673,-115.1655883789,74.5996017456,-29.4080638885,0.0329412222,0.0567070246,0.0093576610,-5.7739629745,82.7682037354,-109.5273208618,0.0276895165,0.0240634680,0.0181093216,22.7150192261,55.9041252136,-122.0483016968,0.0815187097,-0.0031684339,0.0051707625,
1738.823,-3.2086322308,1.3356434107,-178.7585144043,0.0530944243,0.0417965949,0.0047700405,-115.1688156128,74.6016845703,-29.4088325500,0.0270915031,0.0581336319,0.0098445117,-5.7813944817,82.7666244507,-109.5271606445,0.0242680907,0.0250591636,0.0210143924,22.7148990631,55.9039649963,-122.0440368652,0.0761460066,0.0109918714,0.0076094270,
1738.833,-3.2077720165,1.3363146782,-178.7567749023,0.0599420741,0.0432464406,0.0047695637,-115.1689910889,74.6040573120,-29.4058609009,0.0319852829,0.0605388284,0.0117814243,-5.7832827568,82.7647476196,-109.5204544067,0.0227991343,0.0299494565,0.0248883963,22.7163887024,55.9050369263,-122.0395202637,0.0746916533,0.0075664520,0.0061644316,
1738.843,-3.2071657181,1.3350507021,-178.7574768066,0.0662676692,0.0447007455,0.0057449937,-115.1670074463,74.6068115234,-29.4004344940,0.0290683508,0.0580597818,0.0161480904,-5.7908945084,82.7618789673,-109.5180206299,0.0281639099,0.0255766213,0.0267959237,22.7148094177,55.9028701782,-122.0378494263,0.0815064311,0.0070803761,0.0061297417,
1738.853,-3.2082839012,1.3357425928,-178.7568817139,0.0555375591,0.0427670889,0.0106292367,-115.1731414795,74.6066970825,-29.4015388489,0.0305327177,0.0604907572,0.0088504553,-5.8057866096,82.7649459839,-109.5250244141,0.0276823640,0.0256046355,0.0200115442,22.7146472931,55.8999443054,-122.0335388184,0.0746418238,0.0109716952,0.0090195537,
1738.863,-3.2093980312,1.3363529444,-178.7563476563,0.0579896122,0.0427864790,0.0111184716,-115.1761627197,74.6069564819,-29.3999595642,0.0334635973,0.0653634667,0.0098378658,-5.8046426773,82.7650756836,-109.5148620605,0.0296357870,0.0236484706,0.0185521841,22.7152137756,55.9007797241,-122.0307083130,0.0736734271,0.0021822304,0.0041503310,
1738.873,-3.2113621235,1.3351912498,-178.7551727295,0.0618755966,0.0398910381,0.0028194189,-115.1829223633,74.6082305908,-29.4017467499,0.0354226232,0.0638658404,0.0108337700,-5.7864689827,82.7648620605,-109.4885253906,0.0281704664,0.0284914076,0.0234270692,22.7157497406,55.9003753662,-122.0283279419,0.0687866807,0.0046165586,0.0051234961,
1738.883,-3.2134058475,1.3337848186,-178.7552490234,0.0623393357,0.0355321392,-0.0010854006,-115.1988525391,74.6074371338,-29.4140739441,0.0354189277,0.0594519973,0.0138362646,-5.7886466980,82.7650756836,-109.4832611084,0.0179170370,0.0280075967,0.0205011964,22.7122707367,55.9008636475,-122.0293960571,0.0697680116,0.0007443577,0.0041400194,
1738.893,-3.2124149799,1.3333042860,-178.7546539307,0.0594012588,0.0438156724,0.0033079982,-115.2348098755,74.6026382446,-29.4482021332,0.0422326326,0.0570124686,0.0013265312,-5.7829346657,82.7635116577,-109.4696350098,0.0267026424,0.0309274793,0.0258424878,22.7123794556,55.9007682800,-122.0278625488,0.0761147141,0.0051374137,0.0021861792,
1738.903,-3.2103078365,1.3312692642,-178.7539978027,0.0627837181,0.0476852618,0.0057465434,-115.2912368774,74.5948944092,-29.5004425049,0.0378022194,0.0604355037,0.0025960803,-5.7559394836,82.7655639648,-109.4325714111,0.0276837349,0.0318403840,0.0156212449,22.7109222412,55.8996963501,-122.0252990723,0.0736628175,0.0022148937,0.0041193366,
1738.913,-3.2092046738,1.3307811022,-178.7546386719,0.0593572408,0.0442480855,0.0081862807,-115.3598937988,74.5849227905,-29.5672378540,0.0387325287,0.0550799668,0.0083277225,-5.7344198227,82.7643737793,-109.4016723633,0.0286576748,0.0259357393,0.0234040022,22.7093830109,55.8999710083,-122.0240936279,0.0765952468,0.0036952198,0.0006996393,
1738.923,-3.2107539177,1.3301149607,-178.7540893555,0.0603221767,0.0369508713,0.0111179352,-115.4518585205,74.5730819702,-29.6593189240,0.0396541357,0.0555637181,0.0058704019,-5.7200059891,82.7654571533,-109.3780822754,0.0223124027,0.0215070844,0.0190288424,22.7106819153,55.8976097107,-122.0208969116,0.0799900889,0.0085531324,0.0040909052,
1738.933,-3.2109405994,1.3295805454,-178.7523345947,0.0617776960,0.0418369472,-0.0015783310,-115.5490798950,74.5589370728,-29.7548713684,0.0351939201,0.0575353801,0.0054051578,-5.7000818253,82.7633438110,-109.3511581421,0.0276788473,0.0239081979,0.0199615359,22.7096328735,55.8985061646,-122.0188522339,0.0795105696,0.0061261654,0.0006811023,
1738.943,-3.2106745243,1.3278330564,-178.7511291504,0.0641886145,0.0432971939,0.0096519589,-115.6345748901,74.5397109985,-29.8393974304,0.0282685757,0.0444709361,0.0229943097,-5.6409430504,82.7609329224,-109.2823638916,0.0286501050,0.0315933824,0.0277233720,22.7054901123,55.8967704773,-122.0199737549,0.0814467072,0.0056656599,0.0069897771,
1738.953,-3.2101690769,1.3301941156,-178.7506408691,0.0539759025,0.0398703702,0.0106285214,-115.7332077026,74.5228347778,-29.9343719482,0.0247720480,0.0513620973,0.0088840127,-5.5998077393,82.7597122192,-109.2323989868,0.0222997665,0.0280864239,0.0291559696,22.7017478943,55.8948249817,-122.0213623047,0.0784980059,0.0012941062,0.0049968362,
1738.963,-3.2099223137,1.3273941278,-178.7481994629,0.0636926740,0.0388895757,0.0062328577,-115.8110656738,74.5026779175,-30.0065193176,0.0305374861,0.0544382036,0.0108238459,-5.5650682449,82.7599258423,-109.1899948120,0.0213236809,0.0294736922,0.0232946277,22.6961727142,55.8955993652,-122.0237808228,0.0750876069,0.0008604825,0.0005914569,
1738.973,-3.2100780010,1.3261367083,-178.7489013672,0.0641590133,0.0398688763,0.0072089434,-115.8490982056,74.4879913330,-30.0398902893,0.0285158157,0.0575121939,0.0213455558,-5.5647783279,82.7633438110,-109.1815032959,0.0213311911,0.0240962803,0.0155402422,22.6941261292,55.8931236267,-122.0241775513,0.0818992853,0.0081893802,0.0088514090,
1738.983,-3.2091290951,1.3265665770,-178.7483825684,0.0602602623,0.0437585823,-0.0030456185,-115.8528137207,74.4779281616,-30.0395393372,0.0270040035,0.0581440330,0.0224112272,-5.5434603691,82.7634811401,-109.1557693481,0.0223080516,0.0284434557,0.0233486295,22.6918411255,55.8939704895,-122.0231552124,0.0755599141,0.0052850842,0.0044596195,
1738.993,-3.2066931725,1.3265117407,-178.7471923828,0.0602593049,0.0466458350,0.0057410598,-115.8326263428,74.4686431885,-30.0170745850,0.0269606113,0.0534436405,0.0228821933,-5.5630970001,82.7619323730,-109.1696090698,0.0291405916,0.0231183171,0.0277230144,22.6918678284,55.8939018250,-122.0199737549,0.0706764460,0.0028430372,0.0093417168,
1739.003,-3.2071173191,1.3280613422,-178.7460479736,0.0568683743,0.0451883450,0.0081834197,-115.7835845947,74.4678955078,-29.9685420990,0.0328165293,0.0623430610,0.0368404388,-5.5717687607,82.7630157471,-109.1710281372,0.0247484446,0.0294835567,0.0228585601,22.6948604584,55.8929901123,-122.0145187378,0.0745737553,0.0052523017,0.0078759789,
1739.013,-3.2072682381,1.3280034065,-178.7448730469,0.0602853373,0.0461675376,0.0062305927,-115.7349929810,74.4677276611,-29.9191131592,0.0254914761,0.0580502152,0.0166168511,-5.6036691666,82.7600936890,-109.1959609985,0.0242537260,0.0241878927,0.0325838923,22.6998043060,55.8911476135,-122.0076751709,0.0813916922,0.0051973164,0.0054280758,
1739.023,-3.2076628208,1.3306450844,-178.7443847656,0.0549603328,0.0432446636,0.0047671795,-115.6672668457,74.4739761353,-29.8537025452,0.0260089636,0.0673708320,0.0226326585,-5.6349616051,82.7592239380,-109.2205276489,0.0257166624,0.0208410919,0.0286656618,22.7035961151,55.8889541626,-122.0009689331,0.0833233595,0.0095455050,0.0029727221,
1739.033,-3.2068288326,1.3295201063,-178.7438201904,0.0617766380,0.0432301648,0.0067186356,-115.5976257324,74.4792556763,-29.7843265533,0.0294516087,0.0615726709,0.0100929439,-5.6596193314,82.7600936890,-109.2369079590,0.0266951323,0.0228472054,0.0238063335,22.7024211884,55.8835983276,-121.9989471436,0.0749701262,0.0124559402,0.0175451040,
1739.043,-3.2058336735,1.3276387453,-178.7438354492,0.0641852170,0.0417480208,0.0037875772,-115.5307006836,74.4888000488,-29.7174720764,0.0358438492,0.0664463043,0.0170650482,-5.6989426613,82.7602539063,-109.2675323486,0.0232775211,0.0185398459,0.0272325873,22.7048721313,55.8850402832,-121.9945602417,0.0715662241,0.0026760697,-0.0029350519,
1739.053,-3.2072272301,1.3267500401,-178.7432861328,0.0607517436,0.0398191884,0.0013471246,-115.4701232910,74.4963912964,-29.6549758911,0.0344144106,0.0620589256,0.0104063451,-5.7126131058,82.7631835938,-109.2723464966,0.0252370834,0.0244242847,0.0238710046,22.7050800323,55.8858757019,-121.9899978638,0.0637619495,0.0036555529,0.0068434477,
1739.063,-3.2093198299,1.3268256187,-178.7427673340,0.0617296286,0.0437618941,0.0033024549,-115.4153823853,74.5052566528,-29.5966567993,0.0320143700,0.0630111992,0.0105993450,-5.7247805595,82.7635803223,-109.2765426636,0.0286559463,0.0259155333,0.0243671536,22.7083225250,55.8853988647,-121.9840164185,0.0701049566,0.0070414990,0.0063602924,
1739.073,-3.2088909149,1.3272278309,-178.7410430908,0.0607600808,0.0418012887,0.0013486147,-115.3764343262,74.5063247681,-29.5531311035,0.0369021297,0.0542841852,0.0021262169,-5.7504711151,82.7660293579,-109.2934570313,0.0257316232,0.0210855007,0.0234377384,22.7106399536,55.8838119507,-121.9772109985,0.0813198686,0.0021288693,-0.0004876852,
1739.083,-3.2086319923,1.3272198439,-178.7417297363,0.0597833768,0.0413084999,0.0072080493,-115.3461532593,74.5069351196,-29.5158615112,0.0359284282,0.0572649837,0.0088295639,-5.7608132362,82.7665405273,-109.2926254272,0.0306155682,0.0259903371,0.0214958191,22.7098522186,55.8808097839,-121.9732513428,0.0710365772,0.0016310513,0.0194891691,
1739.093,-3.2089011669,1.3273650408,-178.7411651611,0.0573445074,0.0393600576,0.0072082877,-115.3281784058,74.5026245117,-29.4925403595,0.0359083414,0.0559015274,0.0068313479,-5.7679438591,82.7668685913,-109.2898559570,0.0262217522,0.0289351344,0.0205278993,22.7093315125,55.8794136047,-121.9691162109,0.0754174590,0.0079755485,0.0053077936,
1739.103,-3.2095482349,1.3277934790,-178.7406616211,0.0602816679,0.0403478853,-0.0025563240,-115.3176803589,74.4972686768,-29.4762153625,0.0417426825,0.0545391142,0.0043839812,-5.7573695183,82.7673797607,-109.2699050903,0.0262228847,0.0259813368,0.0234616399,22.7045269012,55.8788490295,-121.9692916870,0.0768767595,-0.0002849400,0.0047942996,
1739.113,-3.2090346813,1.3284819126,-178.7382354736,0.0558991507,0.0461982973,0.0101387501,-115.3220977783,74.4914321899,-29.4763584137,0.0358561277,0.0585240126,0.0020029545,-5.7702150345,82.7658615112,-109.2745819092,0.0296375155,0.0250357091,0.0258817077,22.7047901154,55.8758125305,-121.9659957886,0.0846595168,0.0060433894,0.0057312250,
1739.123,-3.2086215019,1.3321312666,-178.7371063232,0.0515682921,0.0481441468,0.0047683120,-115.3337173462,74.4851531982,-29.4866600037,0.0377799273,0.0571310818,0.0035620630,-5.7411546707,82.7652435303,-109.2368469238,0.0232884884,0.0313201845,0.0263510346,22.7070655823,55.8777046204,-121.9618988037,0.0754007101,0.0074982643,-0.0020474195,
1739.133,-3.2110660076,1.3351336718,-178.7367095947,0.0560152195,0.0359796323,0.0106315613,-115.3526382446,74.4776229858,-29.5052375793,0.0377447605,0.0542786121,0.0032079518,-5.7276635170,82.7645874023,-109.2150497437,0.0252401829,0.0264084041,0.0204798579,22.7064933777,55.8755798340,-121.9596862793,0.0753799081,0.0099329948,0.0047581196,
1739.143,-3.2117419243,1.3344873190,-178.7361297607,0.0579570606,0.0379445441,0.0067257881,-115.3771743774,74.4720535278,-29.5279502869,0.0391836166,0.0626129806,0.0092114210,-5.7083635330,82.7653427124,-109.1892929077,0.0262184143,0.0244112015,0.0224417448,22.7046890259,55.8767242432,-121.9591445923,0.0846684575,0.0011666417,-0.0001161695,
1739.153,-3.2118349075,1.3349019289,-178.7344055176,0.0633353889,0.0462469384,0.0140503049,-115.4082794189,74.4666137695,-29.5539989471,0.0357401967,0.0631228983,-0.0023364127,-5.6798481941,82.7622604370,-109.1524124146,0.0286530256,0.0258180499,0.0228713751,22.7040920258,55.8776512146,-121.9563369751,0.0802829862,0.0026419759,0.0042883158,
1739.163,-3.2107443810,1.3347477913,-178.7332000732,0.0584498867,0.0462279394,0.0052600503,-115.4291076660,74.4625167847,-29.5703392029,0.0327913761,0.0592351556,0.0075470805,-5.6753520966,82.7629623413,-109.1410751343,0.0310959816,0.0243423283,0.0219021440,22.6981754303,55.8774833679,-121.9589767456,0.0758868456,-0.0007233769,0.0086582899,
1739.173,-3.2135994434,1.3350090981,-178.7332763672,0.0589427277,0.0389534533,0.0067277551,-115.4410934448,74.4645843506,-29.5770912170,0.0284065008,0.0625987649,0.0134422481,-5.6618194580,82.7597351074,-109.1196517944,0.0198584199,0.0233409405,0.0277072191,22.6911106110,55.8782005310,-121.9635696411,0.0734524727,-0.0006556213,0.0013167858,
1739.183,-3.2132179737,1.3362418413,-178.7333374023,0.0555462688,0.0438295975,0.0067279935,-115.4447631836,74.4739761353,-29.5778217316,0.0284503698,0.0683080554,0.0251089931,-5.6462769508,82.7579193115,-109.0966033936,0.0262020826,0.0286806226,0.0247429609,22.6878795624,55.8768920898,-121.9628295898,0.0788107514,0.0071788132,0.0105646253,
1739.193,-3.2151076794,1.3349949121,-178.7309875488,0.0648018569,0.0399562940,0.0091704130,-115.4586868286,74.4844131470,-29.5870704651,0.0319170952,0.0627520680,0.0114208758,-5.6480069160,82.7534561157,-109.0905609131,0.0217977166,0.0203912556,0.0295494795,22.6891574860,55.8772964478,-121.9591827393,0.0812560916,0.0071695745,-0.0026083589,
1739.203,-3.2145345211,1.3364050388,-178.7298736572,0.0570139624,0.0423876829,-0.0020598173,-115.4519348145,74.4972381592,-29.5742664337,0.0300238132,0.0635466874,0.0205773115,-5.6599354744,82.7547531128,-109.0943603516,0.0237537026,0.0243217647,0.0217620134,22.6912765503,55.8786087036,-121.9552230835,0.0788275003,0.0071576983,-0.0020946860,
1739.213,-3.2137355804,1.3374730349,-178.7293548584,0.0584974363,0.0409088992,0.0101469755,-115.4641494751,74.5082626343,-29.5768451691,0.0295869708,0.0614038110,0.0049243867,-5.6628746986,82.7579727173,-109.0896301270,0.0232725143,0.0223697424,0.0179111362,22.6926498413,55.8797073364,-121.9514389038,0.0773734450,0.0051982850,0.0023195148,
1739.223,-3.2145226002,1.3357055187,-178.7294769287,0.0682322234,0.0418992080,0.0077056289,-115.4642562866,74.5195617676,-29.5658378601,0.0286630392,0.0592782199,0.0146091282,-5.6586875916,82.7570266724,-109.0771789551,0.0296180844,0.0243150592,0.0247313976,22.6925392151,55.8801803589,-121.9477996826,0.0744483471,0.0042253286,0.0018370152,
1739.233,-3.2129673958,1.3344157934,-178.7300872803,0.0623503476,0.0457783937,0.0130746365,-115.4449844360,74.5296478271,-29.5350418091,0.0311514139,0.0562354922,0.0188495517,-5.6495094299,82.7552719116,-109.0586853027,0.0242431164,0.0267392397,0.0271387100,22.6940708160,55.8808975220,-121.9426956177,0.0720139742,0.0076334476,0.0038053989,
1739.243,-3.2127048969,1.3330823183,-178.7289276123,0.0647684857,0.0433324464,0.0067257881,-115.4205017090,74.5380172729,-29.4973049164,0.0282607079,0.0459029377,0.0177094340,-5.6675333977,82.7581405640,-109.0647888184,0.0252259970,0.0238444805,0.0262178779,22.6975326538,55.8796463013,-121.9364089966,0.0827439427,0.0075952113,0.0077081323,
1739.253,-3.2126531601,1.3350312710,-178.7277526855,0.0530837402,0.0447963476,-0.0001087189,-115.3810424805,74.5430450439,-29.4455547333,0.0297489166,0.0512768328,0.0160419047,-5.6665225029,82.7593383789,-109.0558395386,0.0237637758,0.0277467966,0.0213509798,22.6988544464,55.8811950684,-121.9307708740,0.0744583607,0.0041739345,-0.0039848685,
1739.263,-3.2137539387,1.3375113010,-178.7267150879,0.0555684194,0.0365146808,0.0023339391,-115.3280258179,74.5464782715,-29.3767890930,0.0248820782,0.0513308346,0.0104224384,-5.6960577965,82.7601470947,-109.0747604370,0.0223007202,0.0239044428,0.0267454386,22.7003250122,55.8804244995,-121.9229431152,0.0744507909,0.0051329136,0.0052875280,
1739.273,-3.2143290043,1.3358818293,-178.7267150879,0.0613993630,0.0404309891,0.0101471543,-115.2435607910,74.5466079712,-29.2755012512,0.0263475180,0.0539387465,0.0222719312,-5.7232384682,82.7587356567,-109.0909957886,0.0252273083,0.0264087021,0.0306314826,22.7018089294,55.8800277710,-121.9173965454,0.0710289478,0.0031642020,0.0082178116,
1739.283,-3.2144060135,1.3350626230,-178.7261657715,0.0628499091,0.0443385914,0.0067279935,-115.1503677368,74.5366592407,-29.1667404175,0.0297192335,0.0440200269,0.0121834278,-5.7499012947,82.7602767944,-109.1077423096,0.0301135182,0.0250002146,0.0233411789,22.7070960999,55.8784523010,-121.9093093872,0.0768728852,0.0060373247,-0.0010604858,
1739.293,-3.2173802853,1.3346205950,-178.7238006592,0.0599125139,0.0360896401,0.0116141438,-115.0408172607,74.5187835693,-29.0435924530,0.0315890908,0.0415788591,0.0045223534,-5.7822904587,82.7665939331,-109.1298751831,0.0267094374,0.0284793675,0.0146640539,22.7123451233,55.8782005310,-121.9001312256,0.0710110664,0.0030588210,-0.0029972792,
1739.303,-3.2185080051,1.3340108395,-178.7232360840,0.0599018708,0.0385507084,0.0047787428,-114.9022140503,74.4926071167,-28.8928432465,0.0329319239,0.0393200517,0.0119317472,-5.8240084648,82.7700729370,-109.1623840332,0.0267170668,0.0251475871,0.0186412334,22.7149810791,55.8789253235,-121.8930282593,0.0700415373,0.0049921572,0.0058114529,
1739.313,-3.2176020145,1.3336821795,-178.7220153809,0.0569664501,0.0434177406,0.0067311525,-114.7519912720,74.4642257690,-28.7329273224,0.0352407694,0.0483481288,0.0129569471,-5.8546156883,82.7701797485,-109.1850891113,0.0257407427,0.0261918008,0.0269500017,22.7218074799,55.8778572083,-121.8827133179,0.0719842315,0.0088307858,0.0009402037,
1739.323,-3.2191929817,1.3329200745,-178.7220764160,0.0623242483,0.0434454903,0.0013612509,-114.5809249878,74.4258422852,-28.5528182983,0.0296900272,0.0443844795,0.0051706731,-5.8822379112,82.7725372314,-109.2051849365,0.0316053033,0.0238073170,0.0182086229,22.7219982147,55.8758049011,-121.8781509399,0.0753821135,0.0024699271,0.0048197508,
1739.333,-3.2203302383,1.3364481926,-178.7203979492,0.0521318987,0.0405355282,0.0057584047,-114.3754501343,74.3764877319,-28.3373985291,0.0362943411,0.0382134020,0.0085382462,-5.9366235733,82.7702865601,-109.2535324097,0.0247644186,0.0205140114,0.0323390961,22.7192878723,55.8733558655,-121.8767929077,0.0817058086,0.0019924939,0.0072183013,
1739.343,-3.2213301659,1.3377974033,-178.7198944092,0.0575265363,0.0410411954,0.0106426477,-114.1327896118,74.3207168579,-28.0883102417,0.0384731293,0.0439302325,0.0108055472,-5.9645299911,82.7735977173,-109.2757644653,0.0218420029,0.0254524350,0.0201982856,22.7163848877,55.8735122681,-121.8760986328,0.0763362050,0.0029961467,0.0042798519,
1739.353,-3.2212491035,1.3361136913,-178.7193298340,0.0638448149,0.0405515358,0.0096654296,-113.8647842407,74.2642288208,-27.8185863495,0.0377179384,0.0467746556,0.0207709968,-5.9956431389,82.7737579346,-109.3019180298,0.0267251730,0.0225915015,0.0246004462,22.7118301392,55.8738861084,-121.8769607544,0.0792695880,0.0010862947,0.0052441359,
1739.363,-3.2199852467,1.3366678953,-178.7169952393,0.0604365170,0.0424826369,0.0038051009,-113.5648651123,74.2065887451,-27.5213718414,0.0271906853,0.0496966839,0.0227814913,-6.0286026001,82.7744674683,-109.3323745728,0.0281915665,0.0251043737,0.0236456394,22.7103786469,55.8719367981,-121.8745117188,0.0763208270,0.0074362010,0.0057010055,
1739.373,-3.2185571194,1.3364734650,-178.7152099609,0.0609214045,0.0473405756,0.0072216392,-113.2420806885,74.1516571045,-27.2066802979,0.0303472877,0.0531050563,0.0168485940,-6.0736684799,82.7761535645,-109.3761596680,0.0242890120,0.0217830837,0.0207548141,22.7055835724,55.8764228821,-121.8763198853,0.0739232898,-0.0007962734,0.0018364191,
1739.383,-3.2150197029,1.3364331722,-178.7127838135,0.0604324192,0.0482555069,0.0052649379,-112.8979492188,74.1041641235,-26.8704605103,0.0271909237,0.0647339225,0.0224787593,-6.1142883301,82.7792510986,-109.4149780273,0.0267372131,0.0223557055,0.0203269124,22.7075843811,55.8777198792,-121.8727798462,0.0763774514,0.0045640171,-0.0025333166,
1739.393,-3.2154393196,1.3350530863,-178.7128448486,0.0623614639,0.0389855057,0.0018467903,-112.5232925415,74.0567626953,-26.4846763611,0.0294054151,0.0734831393,0.0347958505,-6.1568708420,82.7811203003,-109.4558105469,0.0282061696,0.0273291469,0.0257408619,22.7065181732,55.8802337646,-121.8720855713,0.0783551335,-0.0012717545,-0.0059219003,
1739.403,-3.2141332626,1.3346420527,-178.7128753662,0.0589363277,0.0428690203,0.0003805161,-112.1240234375,73.9846725464,-26.0362358093,0.0324770212,0.0611684024,0.0276129544,-6.2106165886,82.7806625366,-109.5047836304,0.0340645313,0.0250073373,0.0281872749,22.7094078064,55.8825149536,-121.8662109375,0.0759360790,0.0055507720,-0.0029507279,
1739.413,-3.2139155865,1.3329671621,-178.7110595703,0.0637899116,0.0453066751,0.0028209686,-111.7160797119,73.8843688965,-25.5597705841,0.0383402109,0.0507652760,0.0176150203,-6.2358694077,82.7813720703,-109.5220108032,0.0316246748,0.0245735049,0.0282056928,22.7143497467,55.8850708008,-121.8567123413,0.0720548630,0.0113797188,-0.0019221902,
1739.423,-3.2138042450,1.3357220888,-178.7094268799,0.0570020452,0.0384687260,0.0067281723,-111.2806701660,73.7616500854,-25.0428371429,0.0382317305,0.0378254652,0.0173657537,-6.2584500313,82.7868041992,-109.5330429077,0.0287069082,0.0290078521,0.0195140243,22.7124500275,55.8863372803,-121.8522644043,0.0730438232,0.0001734644,0.0015058517,
1739.433,-3.2151420116,1.3347765207,-178.7082214355,0.0589386709,0.0399569012,0.0013580322,-110.8279037476,73.6319503784,-24.5080242157,0.0258775353,0.0328320861,0.0063003600,-6.3090639114,82.7954330444,-109.5715179443,0.0238429904,0.0247088075,0.0206498504,22.7133865356,55.8850555420,-121.8436584473,0.0759609342,0.0045524389,0.0029573441,
1739.443,-3.2135915756,1.3367356062,-178.7058563232,0.0555548854,0.0477423407,0.0042870045,-110.2819442749,73.5126495361,-23.9078216553,0.0218706727,0.0317376554,0.0259514451,-6.3511886597,82.8011245728,-109.6069793701,0.0243437290,0.0228380263,0.0227074623,22.7091541290,55.8856697083,-121.8410339355,0.0740138292,-0.0027301013,0.0073441267,
1739.453,-3.2126214504,1.3364492655,-178.7046661377,0.0584795773,0.0438192002,-0.0069444180,-109.6450119019,73.4184799194,-23.2430820465,0.0184732676,0.0494319797,0.0269215703,-6.4346628189,82.8070678711,-109.6856536865,0.0209387541,0.0210572779,0.0238069296,22.7095890045,55.8847389221,-121.8339157104,0.0705867410,0.0050732195,0.0117276907,
1739.463,-3.2132880688,1.3367455006,-178.7052917480,0.0545784980,0.0379714370,0.0120992661,-108.9116668701,73.3558578491,-22.4906940460,0.0123014450,0.0721347332,0.0496788323,-6.5493140221,82.8148193359,-109.8031692505,0.0233970881,0.0217827857,0.0156660080,22.7129859924,55.8863868713,-121.8278656006,0.0740208626,0.0026104152,0.0029738545,
1739.473,-3.2121570110,1.3374232054,-178.7053527832,0.0575200096,0.0442993641,0.0077040792,-108.1358261108,73.3057861328,-21.6885547638,0.0091210604,0.0746502876,0.0418536365,-6.6903076172,82.8237533569,-109.9454879761,0.0141392350,0.0264694989,0.0202472210,22.7169799805,55.8889045715,-121.8217010498,0.0720924139,0.0021000504,0.0035105348,
1739.483,-3.2112634182,1.3352192640,-178.7041625977,0.0677354559,0.0477018207,0.0047724843,-107.3135223389,73.2659378052,-20.8262805939,0.0079444647,0.0843525827,0.0517825186,-6.8577189445,82.8277435303,-110.1138229370,0.0170776248,0.0302465558,0.0325670242,22.7329864502,55.8909530640,-121.8037643433,0.0657647848,0.0068497360,-0.0007960796,
1739.493,-3.2124426365,1.3375567198,-178.7030487061,0.0541043691,0.0403980874,0.0081925988,-106.4799728394,73.2165222168,-19.9502944946,0.0145317316,0.0673169494,0.0313929319,-7.0607428551,82.8327789307,-110.3149948120,0.0200182796,0.0292163193,0.0312409401,22.7586841583,55.8925132751,-121.7759552002,0.0687097311,0.0051615536,0.0002985001,
1739.503,-3.2119281292,1.3387590647,-178.7007141113,0.0585198775,0.0418539420,0.0140519738,-105.6221313477,73.1508941650,-19.0518436432,0.0259190798,0.0568707287,0.0343543887,-7.2994279861,82.8404769897,-110.5465621948,0.0190584660,0.0321637690,0.0309483409,22.7868957520,55.8856239319,-121.7429504395,0.0779196620,0.0117042661,0.0061728954,
1739.513,-3.2085545063,1.3397415876,-178.7002563477,0.0629315525,0.0457014032,0.0057479143,-104.7844696045,73.0518341064,-18.1620655060,0.0356704593,0.0419991612,0.0072349608,-7.5720257759,82.8475494385,-110.8082504272,0.0259097815,0.0254195929,0.0296812654,22.8198642731,55.8750762939,-121.7036361694,0.0807460546,0.0098827183,-0.0001901388,
1739.523,-3.2084956169,1.3413282633,-178.7003021240,0.0522170514,0.0383761190,0.0086787939,-103.9609146118,72.9035034180,-17.2701110840,0.0549321175,0.0322501063,-0.0021008253,-7.8318357468,82.8536376953,-111.0534973145,0.0303175449,0.0259727538,0.0288826823,22.8522109985,55.8632354736,-121.6643218994,0.0806301236,0.0119657218,0.0046581030,
1739.533,-3.2073390484,1.3408669233,-178.6997528076,0.0614863448,0.0422622301,0.0037940741,-103.1687316895,72.7097244263,-16.3880748749,0.0685808063,0.0304817259,-0.0077721775,-8.0511665344,82.8599548340,-111.2583618164,0.0361906290,0.0205762684,0.0266157389,22.8771743774,55.8538208008,-121.6325225830,0.0824910402,0.0019218922,-0.0017198324,
1739.543,-3.2074167728,1.3403865099,-178.6973724365,0.0600131154,0.0398221873,0.0106302500,-102.4283447266,72.4739532471,-15.5334663391,0.0722324848,0.0273440480,-0.0194754899,-8.2404680252,82.8711700439,-111.4348297119,0.0318204165,0.0185195506,0.0127036572,22.8912277222,55.8466796875,-121.6110458374,0.0799796581,0.0046846271,0.0031219721,
1739.553,-3.2074816227,1.3384103775,-178.6960449219,0.0560723878,0.0422647707,-0.0006009936,-101.7306900024,72.2164535522,-14.7044982910,0.0684280992,0.0327806473,-0.0207385719,-8.3698968887,82.8806457520,-111.5553817749,0.0333057642,0.0207303762,0.0089983940,22.8943634033,55.8421363831,-121.6022796631,0.0823764801,-0.0017169863,0.0030727386,
1739.563,-3.2067921162,1.3365635872,-178.6947784424,0.0599464141,0.0427410826,0.0013507009,-101.0646438599,71.9386215210,-13.9073324203,0.0596116781,0.0267675519,-0.0248109102,-8.4644975662,82.8881149292,-111.6466751099,0.0308805108,0.0218935907,0.0159888268,22.8980960846,55.8406295776,-121.5946578979,0.0808969140,0.0036120564,0.0011146665,
1739.573,-3.2065503597,1.3358793259,-178.6941833496,0.0604227558,0.0432251692,0.0120924115,-100.3909759521,71.6548461914,-13.1287565231,0.0473222733,0.0247373283,-0.0094897151,-8.5281858444,82.8899154663,-111.7108535767,0.0235601664,0.0181206167,0.0287366509,22.8994674683,55.8399505615,-121.5923995972,0.0872379541,0.0114082545,-0.0013313890,
1739.583,-3.2063455582,1.3359168768,-178.6942749023,0.0618882552,0.0432215966,0.0072094202,-99.7262725830,71.3617553711,-12.3665323257,0.0398404598,0.0355151594,-0.0034879446,-8.5798521042,82.8939971924,-111.7656631470,0.0250338316,0.0211519897,0.0219846964,22.8918819427,55.8450889587,-121.6006622314,0.0701984763,-0.0046075583,0.0001732707,
1739.593,-3.2071630955,1.3369356394,-178.6937713623,0.0584880635,0.0417709723,0.0047692060,-99.0604705811,71.0576248169,-11.6096382141,0.0371541381,0.0376533270,0.0038816035,-8.6077833176,82.8965911865,-111.7966842651,0.0152738094,0.0285299420,0.0210621357,22.8869400024,55.8508987427,-121.6058120728,0.0751381516,0.0042586625,0.0016964078,
1739.603,-3.2052559853,1.3374176025,-178.6913452148,0.0565433465,0.0446674228,0.0076971650,-98.3785705566,70.7314987183,-10.8489952087,0.0343145132,0.0284106135,0.0130417943,-8.6778373718,82.9012832642,-111.8700637817,0.0235847235,0.0262279510,0.0206763744,22.8878021240,55.8597793579,-121.6046142578,0.0713189244,0.0013711005,-0.0128304362,
1739.613,-3.2051041126,1.3376854658,-178.6914062500,0.0589894280,0.0451530516,0.0086737871,-97.6648635864,70.3810577393,-10.0743474960,0.0234894753,0.0268729031,0.0234011412,-8.7209672928,82.9014587402,-111.9158020020,0.0260264874,0.0272972882,0.0309475660,22.8866748810,55.8628768921,-121.6063995361,0.0728141069,0.0013986230,-0.0020513535,
1739.623,-3.2061259747,1.3369028568,-178.6896514893,0.0628820211,0.0388232246,0.0047682524,-96.9380950928,69.9978027344,-9.3017911911,0.0280584097,0.0272986293,0.0243200660,-8.7852373123,82.9041595459,-111.9835586548,0.0172432661,0.0298705399,0.0329678059,22.8907279968,55.8639831543,-121.6020431519,0.0786843300,0.0057627559,-0.0015335679,
1739.633,-3.2076663971,1.3382886648,-178.6891632080,0.0570468232,0.0393383019,-0.0001128912,-96.2193984985,69.5811996460,-8.5370073318,0.0274995565,0.0360224843,0.0222508311,-8.8724784851,82.9104156494,-112.0718994141,0.0192098618,0.0271131396,0.0218695998,22.8997898102,55.8626518250,-121.5917434692,0.0801361203,0.0139743686,0.0062966943,
1739.643,-3.2067763805,1.3408482075,-178.6880493164,0.0531852394,0.0412758663,0.0033055544,-95.5511398315,69.1285476685,-7.7943325043,0.0354562998,0.0481764376,0.0135370195,-8.9851102829,82.9172821045,-112.1861343384,0.0265488625,0.0248962045,0.0161660314,22.9071102142,55.8649253845,-121.5824813843,0.0708810687,0.0041553676,-0.0024349689,
1739.653,-3.2068967819,1.3408371210,-178.6861877441,0.0561147332,0.0461607724,0.0111182332,-94.9386367798,68.6435394287,-7.0641889572,0.0382664204,0.0607701540,0.0152975619,-9.0752363205,82.9221572876,-112.2778549194,0.0260710716,0.0250773728,0.0289738774,22.9155998230,55.8643379211,-121.5745315552,0.0664807558,0.0094465464,0.0024727583,
1739.663,-3.2048697472,1.3413151503,-178.6844024658,0.0585644767,0.0451488830,0.0072098374,-94.4025497437,68.1287536621,-6.3585157394,0.0413045883,0.0678946078,-0.0030901134,-9.1577186584,82.9282073975,-112.3618164063,0.0260840654,0.0227970481,0.0232453942,22.9199962616,55.8619461060,-121.5692977905,0.0791526437,0.0054871738,0.0029460788,
1739.673,-3.2053773403,1.3413285017,-178.6844482422,0.0575881489,0.0407631993,0.0042808652,-93.9015045166,67.5876617432,-5.6444659233,0.0367686749,0.0548683405,0.0049909651,-9.2438268661,82.9324188232,-112.4507217407,0.0251165628,0.0239473581,0.0272518396,22.9251937866,55.8621177673,-121.5628967285,0.0825722814,0.0078825653,0.0024793148,
1739.683,-3.2074398994,1.3392679691,-178.6838531494,0.0629232898,0.0373812057,0.0072117448,-93.4124450684,67.0363616943,-4.9082775116,0.0384284258,0.0605035722,0.0159368515,-9.3386373520,82.9406127930,-112.5487899780,0.0256224275,0.0202222168,0.0215634108,22.9292812347,55.8629379272,-121.5588912964,0.0781857967,0.0078503788,-0.0023761392,
1739.693,-3.2077498436,1.3406463861,-178.6833648682,0.0570879653,0.0393397026,0.0003767610,-92.9343032837,66.4821319580,-4.1627745628,0.0350997448,0.0656385422,0.0185060501,-9.4307651520,82.9483642578,-112.6467208862,0.0256390572,0.0243044198,0.0144031048,22.9291343689,55.8663101196,-121.5595855713,0.0704063177,0.0015229285,-0.0023327470,
1739.703,-3.2063975334,1.3401067257,-178.6808929443,0.0575668290,0.0471286513,-0.0045079589,-92.4680557251,65.9271240234,-3.4333007336,0.0311914682,0.0565653741,0.0136850178,-9.5034885406,82.9555511475,-112.7301254272,0.0173536539,0.0239517689,0.0228505731,22.9282531738,55.8680038452,-121.5613250732,0.0816533566,0.0083764195,0.0020816922,
1739.713,-3.2058322430,1.3390308619,-178.6803436279,0.0638957173,0.0422360227,0.0106280446,-92.0143280029,65.3726119995,-2.7243728638,0.0359901190,0.0513286293,0.0117388070,-9.5834474564,82.9591217041,-112.8195800781,0.0202909708,0.0236247182,0.0322154164,22.9272880554,55.8727684021,-121.5632781982,0.0724226832,0.0010876358,0.0021407604,
1739.723,-3.2049052715,1.3406264782,-178.6792755127,0.0609938689,0.0456378050,0.0081863999,-91.5838928223,64.8050460815,-2.0240120888,0.0332825184,0.0506283641,0.0225248337,-9.6789064407,82.9697952271,-112.9229202271,0.0208020806,0.0281928182,0.0133863688,22.9342441559,55.8759193420,-121.5584106445,0.0788012147,0.0108082891,0.0002563000,
1739.733,-3.2069680691,1.3417884111,-178.6787872314,0.0580844544,0.0373729281,0.0077005625,-91.1980667114,64.2174987793,-1.3470244408,0.0357055664,0.0496846437,0.0091061592,-9.8061895370,82.9785308838,-113.0598754883,0.0208207369,0.0235565007,0.0174854994,22.9381542206,55.8794937134,-121.5551605225,0.0671174526,0.0005392134,0.0105727911,
1739.743,-3.2079293728,1.3413472176,-178.6775817871,0.0571001954,0.0412959382,-0.0010876060,-90.8823547363,63.6117820740,-0.7027496099,0.0388696194,0.0699512959,0.0009931028,-9.9255704880,82.9874801636,-113.1877365112,0.0213280916,0.0276907384,0.0147519112,22.9455642700,55.8813476563,-121.5474548340,0.0676238537,0.0048773289,0.0052545667,
1739.753,-3.2058219910,1.3411110640,-178.6782226563,0.0605140440,0.0456537604,0.0052579641,-90.6466903687,62.9806022644,-0.0846927390,0.0417317152,0.0671081543,-0.0026795268,-10.0452728271,82.9920654297,-113.3154144287,0.0252441168,0.0274436772,0.0290334225,22.9501190186,55.8833885193,-121.5434570313,0.0691087246,-0.0010116398,0.0067638755,
1739.763,-3.2053489685,1.3405710459,-178.6770782471,0.0619694628,0.0397861563,0.0062338114,-90.4514846802,62.3345375061,0.5204159617,0.0482712984,0.0541772544,0.0041507185,-10.1732273102,82.9964904785,-113.4506683350,0.0223238468,0.0242844820,0.0272026062,22.9526615143,55.8844261169,-121.5393447876,0.0808376074,-0.0024935156,0.0072757006,
1739.773,-3.2048442364,1.3415621519,-178.6759033203,0.0566156656,0.0441718772,0.0062333345,-90.2836456299,61.6796379089,1.0972970724,0.0433947444,0.0481538177,0.0008855164,-10.2823228836,83.0044479370,-113.5693435669,0.0267353058,0.0249802172,0.0137064457,22.9536533356,55.8849182129,-121.5383300781,0.0798658729,-0.0005465597,0.0053330660,
1739.783,-3.2038578987,1.3426420689,-178.6753845215,0.0585876293,0.0436663814,0.0140455961,-90.1129455566,61.0149765015,1.6440662146,0.0490628481,0.0256119967,0.0053502619,-10.3773660660,83.0117721558,-113.6738433838,0.0238211751,0.0222297311,0.0153302550,22.9534435272,55.8872032166,-121.5400848389,0.0823296309,0.0048392713,0.0019447803,
1739.793,-3.2030262947,1.3417842388,-178.6729583740,0.0615023524,0.0451167561,0.0150209069,-89.9161682129,60.3498191833,2.1650156975,0.0341010690,0.0283989012,0.0163651109,-10.5055789948,83.0196304321,-113.8146286011,0.0267675519,0.0180824101,0.0228359699,22.9583263397,55.8918113708,-121.5384674072,0.0716325641,0.0087274909,-0.0048112869,
1739.803,-3.2039697170,1.3424543142,-178.6711730957,0.0556546673,0.0412269346,0.0042801499,-89.7229537964,59.6930961609,2.6669971943,0.0332566500,0.0495421290,0.0200180709,-10.6378145218,83.0270309448,-113.9601669312,0.0262949467,0.0222451091,0.0176407099,22.9574432373,55.8949317932,-121.5413665771,0.0736162066,0.0014286935,0.0084097981,
1739.813,-3.2073423862,1.3420358896,-178.6700592041,0.0615067407,0.0349380448,0.0052598119,-89.5239334106,59.0351524353,3.1416876316,0.0327761173,0.0320565104,0.0225763917,-10.7617549896,83.0363998413,-114.0932617188,0.0219202638,0.0288245380,0.0144303441,22.9631671906,55.8997001648,-121.5393829346,0.0663386583,0.0057985783,-0.0022463799,
1739.823,-3.2071692944,1.3427437544,-178.6676635742,0.0556597188,0.0407943837,0.0047712326,-89.3369064331,58.3831138611,3.5850675106,0.0312600136,0.0334536433,0.0095524490,-10.9202308655,83.0464172363,-114.2629470825,0.0258476734,0.0247321129,0.0219838023,22.9756183624,55.9020767212,-121.5275421143,0.0658736229,0.0081411451,-0.0016790628,
1739.833,-3.2067737579,1.3430297375,-178.6683044434,0.0566412732,0.0417640507,0.0081892014,-89.1397781372,57.7278671265,4.0176634789,0.0354630947,0.0343341827,0.0124848783,-11.1045284271,83.0536956787,-114.4566802979,0.0239099264,0.0280253291,0.0304843783,22.9845695496,55.9026756287,-121.5180206299,0.0766216516,0.0007395148,0.0047100186,
1739.843,-3.2077000141,1.3445506096,-178.6672210693,0.0591092110,0.0412918739,0.0081906319,-88.9406051636,57.0684204102,4.4399514198,0.0365859866,0.0508247018,0.0041005015,-11.3192853928,83.0601882935,-114.6816864014,0.0249001980,0.0230842829,0.0292132497,22.9964256287,55.9006500244,-121.5083236694,0.0731838942,0.0011096597,0.0091238022,
1739.853,-3.2065129280,1.3431404829,-178.6672668457,0.0625025779,0.0402946547,0.0028179288,-88.7627258301,56.4116592407,4.8548903465,0.0425065160,0.0755016208,0.0051345825,-11.5300836563,83.0678253174,-114.9025421143,0.0293108225,0.0259411931,0.0255272985,23.0110912323,55.8958969116,-121.4947967529,0.0789967775,0.0092513710,0.0071628094,
1739.863,-3.2041106224,1.3457709551,-178.6655578613,0.0576656684,0.0485535339,0.0135589242,-88.6288681030,55.7461509705,5.2645316124,0.0428605080,0.0763108134,0.0099586248,-11.7292404175,83.0739974976,-115.1103744507,0.0254175663,0.0199891627,0.0262037516,23.0279293060,55.8942146301,-121.4778747559,0.0828865170,0.0149496496,0.0023230314,
1739.873,-3.2020168304,1.3478606939,-178.6644287109,0.0572138466,0.0475404412,0.0111163259,-88.5563659668,55.0732116699,5.6649188995,0.0503530502,0.0903456211,0.0104679167,-11.8988561630,83.0834884644,-115.2899398804,0.0288555026,0.0256816149,0.0191109776,23.0392131805,55.8945045471,-121.4676971436,0.0809362531,0.0060603917,-0.0000725985,
1739.883,-3.2007732391,1.3480011225,-178.6632537842,0.0596577041,0.0445890911,0.0081853867,-88.5480880737,54.3922920227,6.0584187508,0.0464209318,0.0941770673,0.0086743981,-12.0575857162,83.0920333862,-115.4572753906,0.0254554749,0.0240291357,0.0212770700,23.0466270447,55.8920822144,-121.4612884521,0.0774946213,0.0035386235,0.0131080151,
1739.893,-3.2002587318,1.3492522240,-178.6608428955,0.0538201556,0.0440918133,0.0067204833,-88.6166992188,53.7002372742,6.4415311813,0.0476299524,0.0834551454,0.0003462732,-12.2051553726,83.1020965576,-115.6147003174,0.0288945436,0.0272299349,0.0166276693,23.0574359894,55.8927421570,-121.4532318115,0.0740830898,0.0029567033,-0.0000252128,
1739.903,-3.2006807327,1.3489265442,-178.6608886719,0.0611386932,0.0431226082,0.0106270313,-88.7428131104,52.9946289063,6.8191900253,0.0519970655,0.0669895411,0.0092456341,-12.3531265259,83.1105728149,-115.7712097168,0.0186583996,0.0245769918,0.0212296844,23.0714817047,55.8953742981,-121.4416580200,0.0819213390,0.0072395951,-0.0033544898,
1739.913,-3.2011556625,1.3489258289,-178.6598052979,0.0645566434,0.0406894758,0.0111157894,-88.9163894653,52.2747001648,7.1787676811,0.0453479290,0.0418497324,0.0118572563,-12.5110826492,83.1179733276,-115.9395446777,0.0284395218,0.0234124362,0.0219140649,23.0779094696,55.8955688477,-121.4355010986,0.0828998089,0.0047413707,0.0098562241,
1739.923,-3.2018997669,1.3479417562,-178.6591796875,0.0572152585,0.0397259034,0.0135576725,-89.0905761719,51.5432624817,7.5126423836,0.0355193615,0.0162773132,0.0013526380,-12.6587438583,83.1275558472,-116.0980987549,0.0265064240,0.0207530558,0.0182341933,23.0898590088,55.8973617554,-121.4256591797,0.0711986423,0.0080619156,-0.0013044477,
1739.933,-3.2032976151,1.3502426147,-178.6575012207,0.0587202534,0.0417033248,0.0106303096,-89.2276687622,50.8059730530,7.8337416649,0.0386822820,0.0150868893,0.0095424205,-12.8027420044,83.1361312866,-116.2533340454,0.0221297741,0.0342017114,0.0218634009,23.0960178375,55.8979530334,-121.4203186035,0.0736458302,0.0026386678,0.0080041885,
1739.943,-3.2059333324,1.3529777527,-178.6588745117,0.0543734431,0.0397960544,0.0081925392,-89.3469848633,50.0697669983,8.1458349228,0.0373343825,0.0196321607,0.0151406676,-12.9735603333,83.1441650391,-116.4334869385,0.0211699605,0.0237817764,0.0220747590,23.1116657257,55.9037475586,-121.4063034058,0.0712610483,0.0079016387,-0.0050423145,
1739.953,-3.2040374279,1.3529499769,-178.6571044922,0.0621854588,0.0490403771,-0.0005984306,-89.4576950073,49.3387718201,8.4451532364,0.0398254395,0.0298584700,0.0123833865,-13.1509599686,83.1526947021,-116.6237487793,0.0216760039,0.0246018767,0.0203508139,23.1226711273,55.9047737122,-121.3963775635,0.0805484653,-0.0029337853,-0.0025450587,
1739.963,-3.2021865845,1.3532750607,-178.6571350098,0.0607262850,0.0490081199,0.0028178692,-89.5699234009,48.6149711609,8.7327976227,0.0408112407,0.0369531512,0.0091944784,-13.3620500565,83.1628952026,-116.8498306274,0.0265800357,0.0220665038,0.0220840573,23.1297988892,55.9043846130,-121.3902435303,0.0751735568,-0.0044649988,0.0048013330,
1739.973,-3.2016820908,1.3542368412,-178.6553649902,0.0568368137,0.0441165008,0.0062357783,-89.7016296387,47.8939628601,9.0021705627,0.0480575562,0.0409762263,0.0013885945,-13.5359621048,83.1719360352,-117.0372924805,0.0182980299,0.0287343860,0.0169506073,23.1423854828,55.9071121216,-121.3804855347,0.0737354159,0.0056911409,0.0009799004,
1739.983,-3.2027442455,1.3522375822,-178.6541595459,0.0626613051,0.0387639515,0.0028180480,-89.8461303711,47.1760444641,9.2583923340,0.0449692011,0.0399676561,0.0035441071,-13.7588300705,83.1809082031,-117.2795333862,0.0251525640,0.0257363617,0.0196503997,23.1550617218,55.9100799561,-121.3721847534,0.0776706934,-0.0036834478,-0.0038146973,
1739.993,-3.2032721043,1.3509289026,-178.6541900635,0.0621501952,0.0407263003,0.0028176308,-89.9917297363,46.4591026306,9.5026741028,0.0300586224,0.0373717546,0.0189423710,-14.0170307159,83.1905822754,-117.5555419922,0.0549577475,0.0115754902,0.0218928456,23.1572914124,55.9127120972,-121.3712692261,0.0781847239,-0.0085713416,0.0035529137,
1740.003,-3.1981587410,1.3516516685,-178.6529541016,0.0577682704,0.0538208038,0.0125791430,-90.1286544800,45.7376441956,9.7312698364,0.0271866322,0.0298366547,0.0162162036,-14.2129201889,83.1969146729,-117.7688903809,0.0329982042,0.0275727212,0.0372365117,23.1713466644,55.9145126343,-121.3610076904,0.0742960572,0.0103553236,-0.0036934614,
1740.013,-3.1987485886,1.3543784618,-178.6517486572,0.0485385060,0.0445536673,0.0116037130,-90.2525711060,45.0079994202,9.9430017471,0.0289828181,0.0091055036,0.0143483430,-14.4281902313,83.2071914673,-118.0011138916,0.0300897360,0.0255259871,0.0214018822,23.1820526123,55.9151992798,-121.3522949219,0.0801621675,0.0048918575,0.0051462054,
1740.023,-3.1998744011,1.3561054468,-178.6505889893,0.0539397337,0.0406669863,0.0028167963,-90.3418350220,44.2764663696,10.1521482468,0.0238049030,0.0234383345,0.0369879752,-14.6368713379,83.2173614502,-118.2266464233,0.0296224356,0.0263940394,0.0260730982,23.1969470978,55.9194030762,-121.3398208618,0.0709259510,0.0072232634,-0.0049945712,
1740.033,-3.1995651722,1.3578077555,-178.6505737305,0.0495749041,0.0435912497,0.0047703385,-90.4265747070,43.5532073975,10.3573980331,0.0259419680,0.0385301113,0.0303002745,-14.8607301712,83.2270278931,-118.4643936157,0.0223181248,0.0277812779,0.0248874426,23.2109012604,55.9201049805,-121.3285064697,0.0719093680,0.0051486492,-0.0015133619,
1740.043,-3.2003018856,1.3566238880,-178.6499176025,0.0578550324,0.0440923870,0.0116065145,-90.5263900757,42.8379859924,10.5583648682,0.0266072750,0.0480369925,0.0306648910,-15.1033697128,83.2367019653,-118.7252655029,0.0228263140,0.0272520185,0.0266410112,23.2198696136,55.9165573120,-121.3189849854,0.0733395219,0.0055360794,0.0150756836,
1740.053,-3.1995279789,1.3551898003,-178.6486358643,0.0588065684,0.0450555086,0.0101404190,-90.6544876099,42.1288833618,10.7541360855,0.0296873450,0.0627225637,0.0260525793,-15.3807554245,83.2484893799,-119.0173110962,0.0296864510,0.0258039236,0.0250347853,23.2337417603,55.9163322449,-121.3080215454,0.0723607540,0.0010155141,0.0043839216,
1740.063,-3.2004652023,1.3520066738,-178.6486053467,0.0646103993,0.0392125361,0.0076985359,-90.8125991821,41.4184951782,10.9421634674,0.0321595073,0.0440967083,0.0160103440,-15.6399507523,83.2577362061,-119.2905883789,0.0233577490,0.0292117298,0.0277715325,23.2504596710,55.9157867432,-121.2937469482,0.0777265429,0.0042799860,0.0015109777,
1740.073,-3.2003955841,1.3523761034,-178.6468963623,0.0631520003,0.0426292829,0.0052571297,-90.9857025146,40.7023582458,11.1159400940,0.0359186530,0.0346888304,0.0179297626,-15.9055423737,83.2670440674,-119.5709381104,0.0267947912,0.0311648548,0.0256333351,23.2711467743,55.9134216309,-121.2746582031,0.0747736692,0.0104282647,0.0059549212,
1740.083,-3.1994709969,1.3506479263,-178.6462707520,0.0640984178,0.0499374345,0.0120913982,-91.1562118530,39.9829978943,11.2708387375,0.0326969624,0.0173795819,0.0125375539,-16.1791896820,83.2755508423,-119.8585968018,0.0263239145,0.0258120000,0.0273930430,23.2875499725,55.9138526917,-121.2598495483,0.0757544637,0.0019824207,-0.0013009906,
1740.093,-3.1998679638,1.3478561640,-178.6443786621,0.0635614246,0.0431084707,0.0067195296,-91.3139190674,39.2628402710,11.4069137573,0.0366874933,0.0121610761,0.0123898983,-16.4312763214,83.2853088379,-120.1215438843,0.0263438225,0.0267551243,0.0252591968,23.2999095917,55.9145698547,-121.2474594116,0.0821090937,-0.0030073822,-0.0022195578,
1740.103,-3.1985332966,1.3469517231,-178.6437530518,0.0586628281,0.0450383686,0.0008584857,-91.4525222778,38.5423355103,11.5344686508,0.0322724581,0.0078011155,0.0183690190,-16.6939697266,83.2943649292,-120.3957824707,0.0273388624,0.0282098353,0.0221419930,23.3185539246,55.9125137329,-121.2299652100,0.0820890069,0.0070671439,0.0012425780,
1740.113,-3.1969342232,1.3450680971,-178.6425628662,0.0644893348,0.0415925831,0.0052508712,-91.5857849121,37.8153076172,11.6584815979,0.0296220183,0.0155904889,0.0218704045,-16.9464759827,83.3019714355,-120.6574554443,0.0288192034,0.0301372707,0.0272997618,23.3315792084,55.9099731445,-121.2164535522,0.0752282143,0.0015645623,0.0037012100,
1740.123,-3.1959886551,1.3463994265,-178.6414337158,0.0576766282,0.0435292050,0.0096449256,-91.7259826660,37.0696182251,11.7804260254,0.0241717100,0.0063510537,0.0264830291,-17.1727962494,83.3091278076,-120.8926086426,0.0234626532,0.0256655514,0.0299962759,23.3416175842,55.9071311951,-121.2037200928,0.0737355351,0.0034112036,0.0066321492,
1740.133,-3.1954233646,1.3458703756,-178.6425781250,0.0552259907,0.0444959290,0.0125738978,-91.8959655762,36.3081970215,11.8954601288,0.0301167965,0.0229988098,0.0217879713,-17.4135360718,83.3216781616,-121.1421127319,0.0215350389,0.0236350894,0.0132576823,23.3509387970,55.9082984924,-121.1936950684,0.0761883855,0.0004043877,-0.0050350428,
1740.143,-3.1955637932,1.3443502188,-178.6413269043,0.0586174354,0.0420570076,-0.0040282011,-92.1095123291,35.5398368835,12.0045080185,0.0309758782,0.0375904441,0.0158029646,-17.6729736328,83.3346405029,-121.4107894897,0.0200964808,0.0191953778,0.0136291385,23.3627338409,55.9072418213,-121.1822052002,0.0742249489,0.0051752031,0.0057389736,
1740.153,-3.1956892014,1.3424524069,-178.6401367188,0.0624905713,0.0376647078,0.0076898336,-92.3720169067,34.7730598450,12.1031694412,0.0258938670,0.0407478213,0.0178951174,-17.9257240295,83.3489608765,-121.6764373779,0.0176840425,0.0327995121,0.0203666091,23.3750686646,55.9068489075,-121.1693115234,0.0693383217,0.0035972744,0.0028512478,
1740.163,-3.1962089539,1.3434602022,-178.6402893066,0.0629964396,0.0406034254,0.0130619407,-92.6592941284,34.0091781616,12.1998481750,0.0270991325,0.0305097103,0.0179661363,-18.2314739227,83.3609619141,-121.9942169189,0.0191731453,0.0235668421,0.0183144212,23.3913860321,55.9046974182,-121.1542434692,0.0722469091,0.0024617910,0.0028868318,
1740.173,-3.1968028545,1.3418794870,-178.6385955811,0.0678516701,0.0381724015,0.0057377219,-92.9523162842,33.2509956360,12.2895975113,0.0263351202,0.0200416446,0.0069542080,-18.5322666168,83.3720855713,-122.3083801270,0.0187072754,0.0245805681,0.0235697627,23.4080410004,55.9048461914,-121.1373443604,0.0717601180,0.0052427500,0.0005120039,
1740.183,-3.1978137493,1.3445783854,-178.6381225586,0.0547151677,0.0411196388,0.0032979846,-93.2201766968,32.5018920898,12.3803339005,0.0231673121,0.0093371868,0.0185829550,-18.8758468628,83.3818893433,-122.6677627563,0.0192152858,0.0212863982,0.0210238099,23.4271278381,55.9027137756,-121.1208953857,0.0795517564,0.0031059682,-0.0009067059,
1740.193,-3.1980628967,1.3431004286,-178.6356201172,0.0590839088,0.0435654186,0.0067158937,-93.4628982544,31.7626972198,12.4684867859,0.0268906355,0.0120707154,0.0186589360,-19.1739940643,83.3927688599,-122.9807968140,0.0207020044,0.0344969630,0.0228623152,23.4432640076,55.9035987854,-121.1059799194,0.0766307116,-0.0038698614,-0.0013207793,
1740.203,-3.1977746487,1.3425908089,-178.6356811523,0.0615164265,0.0435604081,0.0032974482,-93.6863632202,31.0281639099,12.5552358627,0.0257132649,0.0082733631,0.0092155188,-19.4986991882,83.4029235840,-123.3220520020,0.0236520767,0.0277405381,0.0227558017,23.4577198029,55.9000473022,-121.0906677246,0.0707365870,0.0033041686,0.0089423656,
1740.213,-3.1955235004,1.3448163271,-178.6345520020,0.0566724464,0.0459625423,0.0091556311,-93.8877868652,30.2911319733,12.6425542831,0.0258783698,0.0033869147,0.0214563906,-19.8195552826,83.4119644165,-123.6569061279,0.0246467590,0.0253745019,0.0221437216,23.4715576172,55.8970375061,-121.0769653320,0.0799844861,0.0060922652,0.0045620203,
1740.223,-3.1955344677,1.3456665277,-178.6333923340,0.0566872768,0.0425447486,-0.0064694285,-94.0806274414,29.5511302948,12.7247219086,0.0205438435,0.0003322959,0.0135842860,-20.1056194305,83.4222488403,-123.9575576782,0.0256438851,0.0297678113,0.0200654268,23.4830741882,55.8945121765,-121.0646743774,0.0765417814,0.0084157586,0.0089679360,
1740.233,-3.1953196526,1.3441792727,-178.6322174072,0.0630089864,0.0410761945,0.0028074384,-94.2616424561,28.8106346130,12.8027639389,0.0180491805,0.0025086999,0.0260718763,-20.4162292480,83.4320602417,-124.2845458984,0.0271283388,0.0220014155,0.0238566995,23.4918861389,55.8919525146,-121.0550689697,0.0765167475,0.0053921938,0.0089685321,
1740.243,-3.1962203979,1.3453048468,-178.6317291260,0.0581458099,0.0371856168,0.0057385564,-94.4409866333,28.0750179291,12.8776445389,0.0121311545,0.0147437453,0.0258628130,-20.7056560516,83.4430313110,-124.5899658203,0.0217791200,0.0342034698,0.0291224718,23.5028781891,55.8914299011,-121.0461349487,0.0740702152,0.0038256049,0.0011919141,
1740.253,-3.1957521439,1.3443921804,-178.6305694580,0.0610595755,0.0376657546,0.0042725205,-94.6231613159,27.3502368927,12.9553270340,0.0131394863,0.0272199512,0.0325529724,-21.0308303833,83.4516754150,-124.9301223755,0.0154486895,0.0313493013,0.0329090953,23.5197010040,55.8893737793,-121.0290298462,0.0686790347,0.0075690150,0.0056249499,
1740.263,-3.1954419613,1.3444757462,-178.6306304932,0.0615493134,0.0479142629,0.0023194551,-94.8364868164,26.6396923065,13.0332269669,0.0074604750,0.0437859297,0.0275352001,-21.3682670593,83.4592895508,-125.2810592651,0.0149755478,0.0290084183,0.0288838744,23.5387001038,55.8839416504,-121.0095825195,0.0759500861,-0.0014220178,0.0085567236,
1740.273,-3.1967053413,1.3416857719,-178.6293792725,0.0634537637,0.0401238315,0.0072022080,-95.0785522461,25.9340171814,13.1121644974,0.0130194128,0.0361965299,0.0264104903,-21.7471942902,83.4714431763,-125.6712493896,0.0179293752,0.0311094820,0.0210547447,23.5613002777,55.8795433044,-120.9879989624,0.0739538670,0.0017676651,0.0066337585,
1740.283,-3.1942608356,1.3398768902,-178.6287078857,0.0619573519,0.0488703437,0.0047577024,-95.3378524780,25.2295742035,13.1888732910,0.0180431604,0.0342766047,0.0260755122,-22.0945606232,83.4797668457,-126.0278396606,0.0228286982,0.0292644501,0.0234023929,23.5837955475,55.8719329834,-120.9650344849,0.0802270174,0.0127522349,0.0056446195,
1740.293,-3.1934168339,1.3411232233,-178.6263275146,0.0536783151,0.0410431176,0.0013393760,-95.6004714966,24.5262031555,13.2620096207,0.0191133022,0.0185124874,0.0189898461,-22.4245243073,83.4881668091,-126.3671112061,0.0282164216,0.0298265219,0.0232942700,23.6011390686,55.8666152954,-120.9477005005,0.0757803917,-0.0011060983,0.0075953603,
1740.303,-3.1931302547,1.3398668766,-178.6250762939,0.0600040480,0.0434795618,0.0008503795,-95.8421554565,23.8263797760,13.3274412155,0.0162712038,0.0011333227,0.0169706196,-22.7418994904,83.4941864014,-126.6927795410,0.0218806863,0.0220751464,0.0319372416,23.6187477112,55.8609733582,-120.9287643433,0.0840259194,0.0050508082,0.0017303228,
1740.313,-3.1926674843,1.3406401873,-178.6251525879,0.0570878610,0.0420066342,0.0047566295,-96.0536804199,23.1326770782,13.3863554001,0.0193265080,0.0031379461,0.0140039548,-23.0373191833,83.5017013550,-126.9959945679,0.0243369341,0.0303854346,0.0200772882,23.6306247711,55.8577194214,-120.9144515991,0.0742284060,0.0044371188,0.0012456775,
1740.323,-3.1903576851,1.3399331570,-178.6257476807,0.0600052103,0.0463609435,0.0047540665,-96.2291946411,22.4502048492,13.4414901733,0.0195756555,-0.0023427606,0.0187711343,-23.3327102661,83.5116043091,-127.2978591919,0.0258213282,0.0284224749,0.0160716176,23.6444244385,55.8493461609,-120.8965301514,0.0765878558,0.0096359104,0.0104669333,
1740.333,-3.1894083023,1.3411861658,-178.6253051758,0.0639333203,0.0458560921,0.0008473992,-96.3816375732,21.7800273895,13.4946784973,0.0106925964,0.0061570406,0.0192640498,-23.6392536163,83.5195922852,-127.6121978760,0.0233956575,0.0279562473,0.0183914304,23.6610164642,55.8434410095,-120.8780746460,0.0789713264,0.0060347319,0.0041061640,
1740.343,-3.1891348362,1.3415850401,-178.6241302490,0.0585691854,0.0434099175,0.0028004646,-96.5265808105,21.1172771454,13.5481767654,0.0096921623,0.0159540176,0.0269625112,-23.9442749023,83.5264358521,-127.9219055176,0.0248739719,0.0289555490,0.0231413841,23.6767940521,55.8397827148,-120.8594970703,0.0667284727,0.0063600838,0.0090024471,
1740.353,-3.1889016628,1.3423639536,-178.6248321533,0.0590710640,0.0434058346,0.0042653680,-96.6820220947,20.4579830170,13.5991001129,0.0043055713,0.0148355961,0.0162805989,-24.2364540100,83.5355834961,-128.2177276611,0.0292865038,0.0352855027,0.0201022625,23.6909523010,55.8322792053,-120.8425140381,0.0754439831,0.0066777915,0.0138421059,
1740.363,-3.1907844543,1.3422732353,-178.6236724854,0.0580929145,0.0380675420,0.0013370514,-96.8537216187,19.7981739044,13.6474943161,0.0052118301,0.0159976482,0.0249131322,-24.5092525482,83.5410156250,-128.4944915771,0.0297854543,0.0250021517,0.0277340412,23.7066917419,55.8265647888,-120.8235015869,0.0748996735,0.0079681277,0.0006451011,
1740.373,-3.1895208359,1.3420770168,-178.6224365234,0.0585777760,0.0468345918,0.0047540665,-97.0517578125,19.1371078491,13.6873798370,0.0099587739,0.0155132413,0.0125014037,-24.7783451080,83.5494918823,-128.7668151855,0.0219895840,0.0249414146,0.0256488919,23.7188243866,55.8209648132,-120.8086929321,0.0821689963,0.0019673109,0.0064783096,
1740.383,-3.1905348301,1.3427290916,-178.6218719482,0.0556594618,0.0409928709,0.0101265311,-97.2480926514,18.4782123566,13.7188844681,0.0122565031,0.0051161051,0.0269243345,-25.0346298218,83.5575790405,-129.0253448486,0.0097984076,0.0336477757,0.0201287866,23.7354145050,55.8178749084,-120.7903823853,0.0796973109,0.0081480443,-0.0017977953,
1740.393,-3.1904892921,1.3435152769,-178.6219329834,0.0571380220,0.0405037813,0.0076854229,-97.4286804199,17.8228988647,13.7444887161,0.0131070614,-0.0117526650,0.0166789368,-25.2967815399,83.5634231567,-129.2885894775,0.0161575079,0.0355431736,0.0272758007,23.7512245178,55.8098182678,-120.7729263306,0.0752237439,0.0060060918,0.0030407906,
1740.403,-3.1939506531,1.3419851065,-178.6201477051,0.0610175766,0.0347047411,-0.0006130338,-97.5732116699,17.1814460754,13.7676248550,0.0048713386,-0.0155649781,0.0151099265,-25.5338191986,83.5686111450,-129.5242614746,0.0181207657,0.0364196002,0.0290224552,23.7659015656,55.8039131165,-120.7542114258,0.0712596178,0.0014455020,0.0064390302,
1740.413,-3.1950149536,1.3414844275,-178.6183929443,0.0619854033,0.0386295468,0.0072005987,-97.6712341309,16.5503273010,13.7920074463,0.0006777644,-0.0174980760,0.0210635364,-25.7986335754,83.5733642578,-129.7844390869,0.0181300640,0.0295347571,0.0215112567,23.7816066742,55.7987937927,-120.7323455811,0.0712093711,-0.0006784797,-0.0018672943,
1740.423,-3.1951153278,1.3405627012,-178.6171722412,0.0590396300,0.0420492850,0.0067120194,-97.7465286255,15.9285640717,13.8208341599,0.0053956509,0.0009648204,0.0197909623,-26.0623512268,83.5760192871,-130.0429534912,0.0274125934,0.0294988155,0.0291033387,23.7976341248,55.7915039063,-120.7101974487,0.0740675330,0.0025531352,0.0039594769,
1740.433,-3.1954247952,1.3391323090,-178.6165161133,0.0585263893,0.0435195528,0.0057352185,-97.8212661743,15.3104076385,13.8526945114,0.0057474971,0.0129493475,0.0233827531,-26.3207988739,83.5817642212,-130.2941589355,0.0254706740,0.0245448351,0.0225822330,23.8149700165,55.7834548950,-120.6885452271,0.0769182444,0.0091864765,0.0029453039,
1740.443,-3.1934158802,1.3389580250,-178.6128692627,0.0590116307,0.0449494012,0.0057331920,-97.9135055542,14.7007350922,13.8804826736,0.0037703812,0.0198596716,0.0169999897,-26.5490245819,83.5834121704,-130.5156860352,0.0254738927,0.0268912911,0.0252499580,23.8299140930,55.7796707153,-120.6700210571,0.0734631419,0.0017060041,-0.0077875853,
1740.453,-3.1918234825,1.3352487087,-178.6121520996,0.0643180013,0.0458982997,0.0047534704,-98.0255889893,14.0922260284,13.9010334015,0.0188740343,0.0261180401,0.0114305317,-26.7705059052,83.5893707275,-130.7317962646,0.0235323906,0.0291916430,0.0216310024,23.8425464630,55.7683563232,-120.6519088745,0.0801879764,0.0064093769,0.0135974884,
1740.463,-3.1909763813,1.3358263969,-178.6109771729,0.0579804257,0.0453952551,0.0037764311,-98.1544952393,13.4939641953,13.9103307724,0.0189874768,0.0209508538,-0.0080281347,-26.9975070953,83.5926208496,-130.9538879395,0.0333043337,0.0276153386,0.0189531446,23.8639087677,55.7619056702,-120.6285400391,0.0752418637,0.0056915581,0.0013904572,
1740.473,-3.1907291412,1.3361515999,-178.6098632813,0.0633571967,0.0453909375,0.0096357465,-98.2720184326,12.9104585648,13.9074020386,0.0173733532,0.0136901736,0.0089295655,-27.2495174408,83.5951232910,-131.2003326416,0.0211021900,0.0221813619,0.0201942325,23.8845005035,55.7572746277,-120.6065444946,0.0742198229,0.0074326992,-0.0083544254,
1740.483,-3.1908836365,1.3353179693,-178.6098632813,0.0584598407,0.0419756733,0.0057293177,-98.3885192871,12.3388471603,13.8974590302,0.0159388781,0.0189779401,-0.0029507726,-27.4583587646,83.5989227295,-131.4044189453,0.0240392685,0.0288663208,0.0292316079,23.8983688354,55.7483367920,-120.5908889771,0.0799914002,0.0072558820,0.0120906830,
1740.493,-3.1914672852,1.3372231722,-178.6082000732,0.0599579215,0.0424740836,0.0062189698,-98.5105667114,11.7769126892,13.8863286972,0.0180664510,0.0226510763,0.0130838454,-27.6848678589,83.6043548584,-131.6289215088,0.0216084123,0.0243384242,0.0168250203,23.9113464355,55.7433815002,-120.5741271973,0.0789661407,0.0056455135,-0.0006182790,
1740.503,-3.1911826134,1.3377895355,-178.6076354980,0.0580146760,0.0434456691,0.0071950555,-98.6419372559,11.2228679657,13.8717088699,0.0110321045,0.0081090331,0.0019216835,-27.8772182465,83.6093444824,-131.8198394775,0.0260126591,0.0251240134,0.0151235461,23.9217319489,55.7391395569,-120.5608673096,0.0828307271,0.0060156882,0.0047381520,
1740.513,-3.1903991699,1.3381656408,-178.6057891846,0.0546032712,0.0429437384,0.0062181354,-98.7569503784,10.6738119125,13.8594064713,0.0065065324,-0.0182218552,0.0085398257,-28.0674819946,83.6126022339,-132.0093231201,0.0211361647,0.0229889452,0.0251139998,23.9284172058,55.7360191345,-120.5530624390,0.0754758120,0.0000779629,0.0057002902,
1740.523,-3.1922576427,1.3361579180,-178.6052093506,0.0623807460,0.0361402184,-0.0020816922,-98.8450546265,10.1365890503,13.8437395096,-0.0027155280,-0.0309402347,0.0127356350,-28.2580547333,83.6170196533,-132.2016448975,0.0162619352,0.0281680226,0.0214517713,23.9360351563,55.7327575684,-120.5439682007,0.0803266168,0.0063380748,0.0042228103,
1740.533,-3.1934030056,1.3359441757,-178.6046905518,0.0604238845,0.0386015847,-0.0015922189,-98.8943862915,9.6136941910,13.8261451721,-0.0312377810,-0.0309894085,0.0186977535,-28.4175491333,83.6209564209,-132.3623046875,0.0231055021,0.0342731774,0.0153115392,23.9448127747,55.7296981812,-120.5360183716,0.0763903260,0.0072179139,0.0022646189,
1740.543,-3.1947515011,1.3369600773,-178.6036376953,0.0609298944,0.0376484916,0.0096399188,-98.9185943604,9.0981864929,13.8022356033,-0.0015411526,0.0050586462,0.0090824366,-28.6061954498,83.6242523193,-132.5467681885,0.0162759423,0.0335972011,0.0218853951,23.9592990875,55.7283210754,-120.5197219849,0.0617282987,0.0090327859,0.0057222843,
1740.553,-3.1951880455,1.3379474878,-178.6031341553,0.0609471239,0.0430271737,0.0106172562,-98.9424667358,8.5921363831,13.7755908966,0.0019387156,0.0141486526,0.0209303796,-28.8451499939,83.6255645752,-132.7779083252,0.0192081928,0.0296047032,0.0265271664,23.9749526978,55.7222595215,-120.4998703003,0.0792468786,0.0039738864,0.0027752519,
1740.563,-3.1948125362,1.3384646177,-178.6007385254,0.0585147366,0.0479034334,0.0062226057,-98.9783859253,8.0922813416,13.7446651459,0.0001428723,0.0196962953,0.0236940682,-29.0623207092,83.6279678345,-132.9878692627,0.0226308107,0.0324013829,0.0248163342,23.9949970245,55.7161903381,-120.4732589722,0.0801637173,0.0076644421,-0.0065019727,
1740.573,-3.1969044209,1.3359324932,-178.5977172852,0.0648182184,0.0371977389,0.0013408661,-99.0282974243,7.5941119194,13.7086544037,0.0008068681,0.0124323964,0.0203376114,-29.2788467407,83.6354827881,-133.1996307373,0.0245984793,0.0341765285,0.0173230171,24.0085163116,55.7078781128,-120.4553756714,0.0776405931,0.0065176636,0.0066263080,
1740.583,-3.1977040768,1.3328760862,-178.5958557129,0.0642766058,0.0396531485,0.0013403296,-99.0975112915,7.1017084122,13.6703624725,-0.0067400187,0.0060050488,0.0119281262,-29.4860553741,83.6390533447,-133.4024505615,0.0270467997,0.0247370601,0.0239226818,24.0163478851,55.6998519897,-120.4419937134,0.0751202703,0.0000525713,0.0114349127,
1740.593,-3.1974654198,1.3325122595,-178.5953216553,0.0613405704,0.0411138423,0.0091523528,-99.1791229248,6.6112546921,13.6246442795,-0.0010786504,0.0053244829,0.0110458434,-29.7007961273,83.6460876465,-133.6151275635,0.0309666395,0.0255333483,0.0110523701,24.0271606445,55.6934318542,-120.4291076660,0.0779868364,0.0077302456,0.0065109730,
1740.603,-3.1976263523,1.3308169842,-178.5947265625,0.0637523979,0.0440463722,0.0062221885,-99.2543182373,6.1262707710,13.5755538940,-0.0007018819,-0.0110475421,0.0095545650,-29.9043827057,83.6473541260,-133.8170318604,0.0216917396,0.0297774673,0.0293334126,24.0403366089,55.6886749268,-120.4142303467,0.0750103593,0.0051425397,0.0079659224,
1740.613,-3.1957902908,1.3294925690,-178.5941162109,0.0627527237,0.0445026979,0.0140323043,-99.2989959717,5.6588802338,13.5198230743,-0.0019803345,-0.0181587338,0.0089906901,-30.1088409424,83.6472625732,-134.0165710449,0.0168087482,0.0267069042,0.0310009718,24.0586795807,55.6853599548,-120.3940734863,0.0754660368,0.0059347153,-0.0100706816,
1740.623,-3.1968302727,1.3305183649,-178.5930328369,0.0588643700,0.0386614241,0.0130574107,-99.3051681519,5.2029237747,13.4657192230,-0.0001369119,-0.0213392377,0.0170308203,-30.2935066223,83.6488342285,-134.1946258545,0.0124172568,0.0318920314,0.0277843475,24.0713520050,55.6794471741,-120.3766098022,0.0739429593,0.0028563291,0.0055272579,
1740.633,-3.1955525875,1.3295112848,-178.5906524658,0.0637296140,0.0425454304,0.0032899976,-99.2814483643,4.7574243546,13.4158477783,-0.0049532801,-0.0103527308,0.0240565985,-30.4677104950,83.6483993530,-134.3621826172,0.0246234536,0.0331659615,0.0303961039,24.0863361359,55.6756362915,-120.3575820923,0.0719523430,0.0080703944,0.0026079416,
1740.643,-3.1962604523,1.3282124996,-178.5894927979,0.0646835119,0.0420695096,0.0076847672,-99.2410049438,4.3246021271,13.3688030243,-0.0466634110,-0.0213682055,0.0561730266,-30.6916961670,83.6499404907,-134.5801239014,0.0090014338,-0.0025996566,0.0028072000,24.0884151459,55.6682662964,-120.3504638672,0.0918993354,0.0026373267,-0.0091993213,
1740.653,-3.1968491077,1.3273552656,-178.5883026123,0.0607623085,0.0425680652,0.0013372898,-99.1992034912,3.8719677925,13.3280992508,-0.0052267388,-0.0202061534,0.0208767802,-30.8019218445,83.6525115967,-134.6901245117,0.0285376310,0.0302783847,0.0263941884,24.0920791626,55.6704673767,-120.3448410034,0.0699483752,-0.0017772466,0.0015863776,
1740.663,-3.1971995831,1.3285777569,-178.5872192383,0.0602953583,0.0411093011,0.0120799541,-99.1554946899,3.4203791618,13.2940006256,-0.0135807618,-0.0215436816,0.0182522237,-30.9397754669,83.6557235718,-134.8257751465,0.0226844549,0.0226703882,0.0246264935,24.1058578491,55.6690483093,-120.3316955566,0.0836062431,0.0078561753,-0.0061894059,
1740.673,-3.1971287727,1.3281102180,-178.5866394043,0.0597989149,0.0425729193,0.0159862041,-99.1131591797,2.9689850807,13.2736396790,-0.0102163404,-0.0190399289,0.0210108459,-31.0307941437,83.6568603516,-134.9124603271,0.0221983790,0.0355084538,0.0296188593,24.1159858704,55.6671142578,-120.3185577393,0.0806575418,0.0097068548,-0.0022679567,
1740.683,-3.1974174976,1.3255889416,-178.5860290527,0.0646377355,0.0435545705,0.0096378326,-99.0874481201,2.5217618942,13.2625646591,-0.0155714750,0.0067905784,0.0284397602,-31.2075119019,83.6594314575,-135.0814666748,0.0163439512,0.0230874717,0.0161634088,24.1254444122,55.6640815735,-120.3045272827,0.0723268986,0.0037446320,0.0040779710,
1740.693,-3.1964004040,1.3260765076,-178.5842285156,0.0582985878,0.0459782444,0.0003596544,-99.0967330933,2.0793471336,13.2570152283,-0.0120563507,0.0056061745,0.0120471269,-31.3963146210,83.6606063843,-135.2626342773,0.0119516850,0.0229055285,0.0202786922,24.1366615295,55.6590118408,-120.2906723022,0.0791128874,0.0021491051,-0.0003380775,
1740.703,-3.1984162331,1.3259649277,-178.5830535889,0.0582966395,0.0396657176,0.0052446127,-99.1259231567,1.6431741714,13.2504110336,-0.0064813793,0.0047931671,0.0194250196,-31.5862121582,83.6626815796,-135.4451141357,0.0197681785,0.0305305123,0.0209885240,24.1532478333,55.6528244019,-120.2705001831,0.0722160935,0.0044049919,0.0025771260,
1740.713,-3.1958560944,1.3262338638,-178.5817718506,0.0548833609,0.0513398573,0.0067069530,-99.1762695313,1.2190923691,13.2380924225,-0.0153455213,0.0009297132,0.0051853806,-31.7981491089,83.6639785767,-135.6482849121,0.0173292756,0.0230583847,0.0222055912,24.1663951874,55.6453552246,-120.2530822754,0.0770252943,-0.0006400645,-0.0008862019,
1740.723,-3.1983788013,1.3268284798,-178.5806579590,0.0583117083,0.0377119221,0.0154985785,-99.2385635376,0.8018818498,13.2214498520,-0.0055362284,-0.0118125677,-0.0088573694,-31.9737663269,83.6630477905,-135.8188476563,0.0266048312,0.0253147483,0.0248104930,24.1771068573,55.6393699646,-120.2375640869,0.0696421266,-0.0022365004,0.0078675151,
1740.733,-3.1992220879,1.3273175955,-178.5794982910,0.0583202466,0.0416328348,0.0047575831,-99.2792968750,0.3785215616,13.1995964050,0.0041649938,-0.0123403668,-0.0022833496,-32.1733322144,83.6617813110,-136.0088500977,0.0422273874,0.0178438723,0.0245149136,24.1941070557,55.6360130310,-120.2186203003,0.0735153556,0.0039386153,-0.0101739168,
1740.743,-3.1995761395,1.3276425600,-178.5776977539,0.0568610653,0.0411507227,0.0042696595,-99.2992706299,-0.0480888002,13.1784887314,0.0050200671,-0.0157929063,0.0073408931,-32.3766479492,83.6665496826,-136.2064361572,0.0246584415,0.0249749124,0.0130748153,24.1989974976,55.6286010742,-120.2074737549,0.0827196836,-0.0005436540,0.0083029866,
1740.753,-3.1998832226,1.3279761076,-178.5766448975,0.0632145405,0.0392029434,0.0067115426,-99.2925033569,-0.4714556932,13.1560983658,-0.0048103929,-0.0338734984,0.0052661598,-32.5985107422,83.6690292358,-136.4285125732,0.0241749287,0.0155530870,0.0221336484,24.2013607025,55.6220169067,-120.2007904053,0.0802133679,-0.0006037802,0.0087141991,
1740.763,-3.2001590729,1.3270158768,-178.5755004883,0.0636860728,0.0392077640,0.0125709176,-99.2613372803,-0.8928071260,13.1411476135,-0.0028864816,-0.0314307213,0.0183866024,-32.8193359375,83.6719970703,-136.6565093994,0.0266220570,0.0232137442,0.0189925432,24.2051181793,55.6192092896,-120.1947097778,0.0753028393,0.0008107126,0.0111340284,
1740.773,-3.2037804127,1.3280092478,-178.5737915039,0.0568674654,0.0338997431,0.0106213093,-99.2188262939,-1.3090171814,13.1346750259,-0.0116142035,-0.0153363943,0.0283743143,-33.0524559021,83.6749801636,-136.8970031738,0.0168621540,0.0294291079,0.0217236280,24.2148551941,55.6160507202,-120.1864471436,0.0718537569,0.0070521533,0.0179678202,
1740.783,-3.2058525085,1.3274514675,-178.5732574463,0.0597874224,0.0373538211,0.0067172050,-99.2010116577,-1.7221307755,13.1363697052,-0.0178452954,0.0060094595,0.0290134251,-33.3398742676,83.6746597290,-137.1940002441,0.0246740580,0.0308801234,0.0283735991,24.2291622162,55.6130485535,-120.1708450317,0.0688944459,0.0005580783,0.0072439909,
1740.793,-3.2076060772,1.3264743090,-178.5715179443,0.0636766255,0.0383609533,0.0076951385,-99.2293701172,-2.1336364746,13.1432743073,-0.0142811537,0.0120398998,0.0192088485,-33.6718482971,83.6786651611,-137.5336761475,0.0202872157,0.0299183130,0.0234200954,24.2451171875,55.6106605530,-120.1537322998,0.0713123679,0.0018653274,0.0043476820,
1740.803,-3.2086944580,1.3246034384,-178.5702972412,0.0621791333,0.0408213697,0.0018359423,-99.2940597534,-2.5468497276,13.1543884277,-0.0126980022,0.0115678310,0.0192987472,-34.0703773499,83.6810531616,-137.9370727539,0.0256628990,0.0276158750,0.0268132687,24.2662239075,55.6034545898,-120.1278152466,0.0741710067,0.0026095510,0.0018972158,
1740.813,-3.2094821930,1.3248549700,-178.5679321289,0.0573007092,0.0374171212,0.0062313080,-99.3903503418,-2.9610168934,13.1684093475,-0.0160119608,-0.0071133971,0.0052744299,-34.4917526245,83.6825103760,-138.3633880615,0.0246891379,0.0282820165,0.0268110037,24.2881431580,55.5949516296,-120.1038131714,0.0814113617,-0.0039855242,-0.0039846897,
1740.823,-3.2082655430,1.3244818449,-178.5673217773,0.0592473224,0.0466732755,0.0096480846,-99.4813690186,-3.3740510941,13.1800842285,-0.0100261495,-0.0219264030,0.0106809586,-34.9337081909,83.6845932007,-138.8114624023,0.0256696939,0.0231136978,0.0302603245,24.3076572418,55.5879631042,-120.0795669556,0.0730416775,-0.0032258928,0.0008848906,
1740.833,-3.2069592476,1.3222960234,-178.5660705566,0.0611623116,0.0427443162,0.0023216605,-99.5548858643,-3.7807593346,13.1907653809,-0.0132044479,-0.0250155926,0.0138235688,-35.4077415466,83.6887893677,-139.2940521240,0.0276308656,0.0257834792,0.0196208358,24.3292064667,55.5780906677,-120.0530700684,0.0705028772,0.0018929839,0.0086563230,
1740.843,-3.2072708607,1.3216217756,-178.5654602051,0.0582208559,0.0412849188,0.0115989447,-99.6008071899,-4.1789689064,13.2004489899,-0.0133018121,-0.0217180848,0.0120909810,-35.8826751709,83.6932907104,-139.7795257568,0.0227566957,0.0328397453,0.0172947049,24.3537101746,55.5684165955,-120.0254592896,0.0718722939,0.0108925402,0.0086291432,
1740.853,-3.2096686363,1.3209220171,-178.5643768311,0.0626031756,0.0340024829,0.0081831217,-99.6282653809,-4.5723052025,13.2067279816,-0.0177053884,-0.0135251284,0.0085688233,-36.3957901001,83.6948089600,-140.3025970459,0.0242244601,0.0243583024,0.0247384906,24.3748188019,55.5565872192,-120.0001754761,0.0800563097,0.0047730505,0.0080711246,
1740.863,-3.2113313675,1.3245530128,-178.5634155273,0.0577837229,0.0389141813,-0.0025559664,-99.6423416138,-4.9654664993,13.2112827301,-0.0079420209,-0.0194991231,0.0135971159,-36.9030952454,83.7000122070,-140.8217010498,0.0271641016,0.0304706693,0.0175878406,24.3992328644,55.5464935303,-119.9727859497,0.0784918070,0.0064466894,0.0055978298,
1740.873,-3.2114608288,1.3236284256,-178.5616455078,0.0636269674,0.0418461449,0.0111156106,-99.6495895386,-5.3530945778,13.2161092758,-0.0190744996,-0.0113309622,0.0131314099,-37.4110984802,83.7020950317,-141.3427581787,0.0174024701,0.0307505429,0.0211441517,24.4189815521,55.5380020142,-119.9499893188,0.0754782557,-0.0020822138,0.0084968209,
1740.883,-3.2112464905,1.3226020336,-178.5616760254,0.0611676499,0.0433072783,0.0028141141,-99.6500015259,-5.7366456985,13.2227401733,-0.0228077173,-0.0202705860,0.0193779618,-37.9276275635,83.7024993896,-141.8736724854,0.0203329325,0.0295915604,0.0261575580,24.4453010559,55.5285377502,-119.9217605591,0.0705019236,0.0098316371,0.0055500269,
1740.893,-3.2101297379,1.3239747286,-178.5617065430,0.0528908148,0.0442643575,0.0057433248,-99.6489868164,-6.1181654930,13.2361421585,-0.0167355761,-0.0233867168,0.0202216953,-38.4885368347,83.7063598633,-142.4496307373,0.0169223547,0.0328518152,0.0176075101,24.4683685303,55.5194435120,-119.8951416016,0.0767597556,0.0037106574,0.0011315346,
1740.903,-3.2080559731,1.3268039227,-178.5618286133,0.0544050261,0.0432516038,0.0120900869,-99.6396484375,-6.4896588326,13.2511548996,-0.0129262358,-0.0308972597,0.0258021951,-39.1078414917,83.7068939209,-143.0841674805,0.0174116492,0.0308576226,0.0232523084,24.4907646179,55.5131149292,-119.8684082031,0.0669316053,-0.0023879111,0.0074880123,
1740.913,-3.2091197968,1.3297801018,-178.5607452393,0.0539686754,0.0408286639,0.0067213178,-99.6316757202,-6.8547329903,13.2714195251,-0.0265790299,-0.0228146911,0.0201708525,-39.7597122192,83.7061157227,-143.7548675537,0.0203398466,0.0274539292,0.0176992416,24.5177917480,55.5043869019,-119.8362350464,0.0727046728,-0.0012183189,-0.0003281832,
1740.923,-3.2071104050,1.3305153847,-178.5595855713,0.0573994741,0.0451881625,0.0028133392,-99.6166458130,-7.2056884766,13.2896814346,-0.0292403400,-0.0220454335,0.0276013762,-40.4084548950,83.7022247314,-144.4208068848,0.0208206773,0.0323714912,0.0223673582,24.5465526581,55.4950790405,-119.8020019531,0.0731009841,0.0013970733,0.0045509934,
1740.933,-3.2059464455,1.3307626247,-178.5583953857,0.0593569130,0.0485858507,0.0101365447,-99.6026763916,-7.5505976677,13.3044891357,-0.0273977816,-0.0105601549,0.0199097395,-41.0573158264,83.6977310181,-145.0838012695,0.0232535005,0.0294754803,0.0241100192,24.5784873962,55.4847984314,-119.7646026611,0.0671399832,0.0064193904,-0.0008231997,
1740.943,-3.2065360546,1.3301162720,-178.5572204590,0.0603222027,0.0402953587,0.0096486807,-99.5945816040,-7.8891572952,13.3134059906,-0.0249524266,-0.0088778138,0.0098735690,-41.6619796753,83.6919555664,-145.6979522705,0.0222658515,0.0382393003,0.0331164002,24.6126785278,55.4697151184,-119.7245788574,0.0787094831,0.0065098852,0.0064451694,
1740.953,-3.2049212456,1.3297883272,-178.5566406250,0.0588516332,0.0417320766,0.0028105974,-99.5792770386,-8.2188844681,13.3174247742,-0.0252793878,-0.0149999261,0.0148499012,-42.3144683838,83.6842193604,-146.3594512939,0.0202978849,0.0173033774,0.0260577798,24.6449375153,55.4551925659,-119.6854629517,0.0805189610,0.0080856681,0.0015049577,
1740.963,-3.2030572891,1.3300317526,-178.5560150146,0.0549496338,0.0446292870,0.0101333857,-99.5450668335,-8.5488767624,13.3227205276,-0.0104694515,-0.0294015408,0.0243813694,-42.8866767883,83.6831665039,-146.9421844482,0.0359208584,0.0440199673,0.0199634433,24.6736145020,55.4412384033,-119.6487045288,0.0813574195,0.0067674816,0.0033950806,
1740.973,-3.2046048641,1.3289936781,-178.5548400879,0.0612791777,0.0392851718,-0.0015842319,-99.4990692139,-8.8699178696,13.3303680420,-0.0189377666,-0.0266890526,0.0244347751,-43.5138435364,83.6756591797,-147.5838623047,0.0188165903,0.0220541060,0.0221737623,24.6904220581,55.4310569763,-119.6237792969,0.0783268809,-0.0032105446,0.0028431416,
1740.983,-3.2054390907,1.3283262253,-178.5536956787,0.0602909625,0.0373465978,0.0067172050,-99.4434585571,-9.1804428101,13.3461179733,-0.0218489170,-0.0161393285,0.0233491659,-44.1648254395,83.6674118042,-148.2528686523,0.0144062042,0.0181894600,0.0146536827,24.7126579285,55.4211235046,-119.5945053101,0.0782284737,-0.0020054579,0.0052468777,
1740.993,-3.2043702602,1.3282057047,-178.5519256592,0.0627302676,0.0461170487,0.0052508712,-99.3820648193,-9.4806823730,13.3687973022,-0.0240900517,-0.0099687576,0.0338857025,-44.7989349365,83.6589355469,-148.9064178467,0.0182961226,0.0279678106,0.0163979530,24.7398185730,55.4148521423,-119.5652847290,0.0757249594,0.0021069348,-0.0039995313,
1741.003,-3.2043154240,1.3287488222,-178.5514526367,0.0622514635,0.0426981077,0.0037865043,-99.3354568481,-9.7696075439,13.3988142014,-0.0280852169,-0.0013926029,0.0222144276,-45.4275169373,83.6497344971,-149.5547027588,0.0168135166,0.0289518535,0.0259493589,24.7677116394,55.4077568054,-119.5338745117,0.0693069696,0.0027896911,0.0038360357,
1741.013,-3.2054409981,1.3296808004,-178.5515747070,0.0564083531,0.0344169177,0.0008583069,-99.3055267334,-10.0471096039,13.4335937500,-0.0348093957,-0.0016434789,0.0293843299,-46.0407409668,83.6393966675,-150.1856689453,0.0163052678,0.0304089487,0.0203418732,24.7989177704,55.3983764648,-119.4995727539,0.0794679523,0.0068469346,-0.0000626445,
1741.023,-3.2089653015,1.3305103779,-178.5505371094,0.0593525097,0.0300837606,0.0072097182,-99.3019790649,-10.3272199631,13.4768934250,-0.0196016580,-0.0098110437,0.0277197808,-46.6452789307,83.6302108765,-150.8078765869,0.0250765681,0.0269504189,0.0210947990,24.8256778717,55.3885650635,-119.4672317505,0.0793706775,0.0036172718,-0.0015441775,
1741.033,-3.2095007896,1.3290787935,-178.5499420166,0.0607923791,0.0383939110,0.0091628432,-99.3183517456,-10.6067771912,13.5302686691,-0.0278176218,-0.0170783401,0.0219939500,-47.2640876770,83.6204376221,-151.4470367432,0.0211513638,0.0283949971,0.0243135691,24.8538322449,55.3783683777,-119.4353485107,0.0792695880,0.0081851780,0.0003935099,
1741.043,-3.2110931873,1.3296945095,-178.5500793457,0.0598265603,0.0369567834,0.0062348843,-99.3467178345,-10.8872098923,13.5888586044,-0.0204192102,-0.0244053602,0.0174437463,-47.9440155029,83.6073226929,-152.1526184082,0.0191727877,0.0187252760,0.0168529153,24.8797969818,55.3681793213,-119.4068222046,0.0835630894,0.0049602240,0.0106229782,
1741.053,-3.2116301060,1.3306957483,-178.5477142334,0.0569143407,0.0403840914,0.0091656446,-99.3767166138,-11.1665515900,13.6520633698,-0.0154390037,-0.0337095857,0.0212172866,-48.6343536377,83.5934753418,-152.8767547607,0.0147513151,0.0237202346,0.0191783309,24.8992862701,55.3613395691,-119.3843383789,0.0732413530,0.0023021102,0.0086623430,
1741.063,-3.2097120285,1.3301395178,-178.5477905273,0.0617874488,0.0427920967,0.0062338710,-99.4025726318,-11.4371500015,13.7216644287,-0.0186054111,-0.0205344558,0.0215029716,-49.3699035645,83.5734252930,-153.6484832764,0.0112942457,0.0249377489,0.0283555388,24.9279708862,55.3571586609,-119.3541183472,0.0746646523,0.0059248060,0.0028681755,
1741.073,-3.2095849514,1.3300439119,-178.5466613770,0.0627623424,0.0427898802,0.0116046667,-99.4282302856,-11.6933803558,13.7938270569,-0.0268929154,-0.0166076422,0.0213011801,-50.1124534607,83.5510711670,-154.4273986816,0.0117387772,0.0339971185,0.0248433352,24.9582233429,55.3531188965,-119.3220291138,0.0648589730,-0.0021843612,0.0019657612,
1741.083,-3.2111577988,1.3308159113,-178.5449523926,0.0598461293,0.0389110148,0.0120947957,-99.4527282715,-11.9358062744,13.8633413315,-0.0276164562,-0.0111826658,0.0298724025,-50.8700294495,83.5293350220,-155.2151947021,0.0092546940,0.0367135704,0.0194255710,25.0011482239,55.3437309265,-119.2775650024,0.0672072172,0.0120209008,-0.0018824935,
1741.093,-3.2098641396,1.3321599960,-178.5437927246,0.0554750450,0.0447478220,0.0091643333,-99.4790191650,-12.1664047241,13.9275665283,-0.0295993388,-0.0174562335,0.0150405914,-51.6102867126,83.5050201416,-155.9822540283,0.0223903656,0.0379673541,0.0256935358,25.0454578400,55.3341751099,-119.2300567627,0.0695537329,0.0130289346,-0.0008444786,
1741.103,-3.2069623470,1.3323583603,-178.5431365967,0.0549902245,0.0461621061,0.0062319636,-99.5100250244,-12.3931941986,13.9884815216,-0.0300490260,-0.0149555802,0.0100523978,-52.3186416626,83.4774780273,-156.7134246826,0.0360077620,0.0240801275,0.0255498886,25.0865116119,55.3176116943,-119.1828994751,0.0845260024,0.0096292198,0.0074137449,
1741.113,-3.2046844959,1.3312484026,-178.5413208008,0.0598536730,0.0417279229,0.0076940656,-99.5422668457,-12.6246404648,14.0446214676,-0.0134848207,-0.0281161070,-0.0017572641,-53.0303764343,83.4533538818,-157.4485473633,0.0252176523,0.0247911215,0.0205850005,25.1140117645,55.3044013977,-119.1481323242,0.0800002813,0.0093014538,0.0102881193,
1741.123,-3.2039649487,1.3318586349,-178.5414428711,0.0598643199,0.0407388136,0.0067170858,-99.5802612305,-12.8590526581,14.1024227142,-0.0169870406,-0.0300896168,0.0060551167,-53.7263336182,83.4293746948,-158.1763610840,0.0349354744,0.0269389749,0.0161016583,25.1340904236,55.2962188721,-119.1229171753,0.0794306993,-0.0041126311,0.0088018179,
1741.133,-3.2027268410,1.3294141293,-178.5413360596,0.0617747903,0.0490180701,0.0008555651,-99.5994338989,-13.0921869278,14.1612405777,-0.0058153719,-0.0369037986,0.0106190592,-54.4434967041,83.4007873535,-158.9345550537,0.0251126289,0.0184273124,0.0189487934,25.1571159363,55.2914848328,-119.0969467163,0.0847547650,-0.0028838515,-0.0033694506,
1741.143,-3.2002205849,1.3278594017,-178.5413818359,0.0651656389,0.0470213220,0.0032939315,-99.6058349609,-13.3171520233,14.2229928970,-0.0169621557,-0.0304819345,0.0213192254,-55.1707344055,83.3743896484,-159.7087402344,0.0133408308,0.0284409523,0.0184395313,25.1827297211,55.2907905579,-119.0724716187,0.0715642571,-0.0036070049,0.0099126697,
1741.153,-3.2013936043,1.3279659748,-178.5408630371,0.0617495216,0.0426472276,0.0067130923,-99.6009826660,-13.5261898041,14.2856626511,-0.0327179432,-0.0342324972,0.0254909992,-55.8961257935,83.3438568115,-160.4831237793,0.0147440434,0.0331330895,0.0223000646,25.2153739929,55.2861785889,-119.0431442261,0.0749363899,0.0019306540,0.0046206117,
1741.163,-3.2017517090,1.3267250061,-178.5402832031,0.0602630228,0.0367941223,0.0130605102,-99.5989913940,-13.7285442352,14.3513336182,-0.0337088853,-0.0286995173,0.0214127898,-56.5857963562,83.3118209839,-161.2142333984,0.0151673555,0.0407263041,0.0309904218,25.2536697388,55.2823791504,-119.0050277710,0.0656212568,0.0020511746,0.0018037558,
1741.173,-3.2030642033,1.3252378702,-178.5379791260,0.0675612986,0.0377935804,0.0037837625,-99.6057968140,-13.9226808548,14.4138669968,-0.0374872833,-0.0217046142,0.0218801498,-57.2494087219,83.2769241333,-161.9119567871,0.0204673409,0.0400222838,0.0323061347,25.2979545593,55.2730903625,-118.9609909058,0.0718765855,0.0118499547,-0.0005701780,
1741.183,-3.2021064758,1.3264018297,-178.5368804932,0.0602573864,0.0436362438,0.0052483678,-99.6157531738,-14.1216335297,14.4723558426,-0.0413445234,-0.0279328823,0.0223937035,-57.9046401978,83.2459030151,-162.5942077637,0.0213803649,0.0363202393,0.0248705745,25.3368988037,55.2612533569,-118.9180984497,0.0717588663,0.0114271790,-0.0000696778,
1741.193,-3.2030870914,1.3267502785,-178.5358123779,0.0607517511,0.0348642543,-0.0006103516,-99.6311492920,-14.3325281143,14.5343465805,-0.0283108205,-0.0449814796,0.0127342343,-58.5308265686,83.2155075073,-163.2450256348,0.0276654959,0.0345221162,0.0281510949,25.3736667633,55.2492446899,-118.8772888184,0.0755456686,0.0085814595,-0.0000683665,
1741.203,-3.2018177509,1.3272677660,-178.5346069336,0.0563662425,0.0446077622,0.0135490298,-99.6322402954,-14.5531225204,14.5960350037,-0.0242267549,-0.0469071865,0.0208919644,-59.1612777710,83.1848526001,-163.8994293213,0.0163716674,0.0293082893,0.0270594954,25.4050178528,55.2371292114,-118.8389205933,0.0847024918,0.0106664896,0.0013732314,
1741.213,-3.1998827457,1.3266197443,-178.5333862305,0.0602611899,0.0470154658,0.0076876879,-99.6222534180,-14.7769002914,14.6596918106,-0.0280052125,-0.0434594154,0.0127481371,-59.8194618225,83.1549530029,-164.5821380615,0.0172861814,0.0333831608,0.0182301402,25.4371128082,55.2272529602,-118.7998199463,0.0694674850,0.0059225857,0.0052887797,
1741.223,-3.1988608837,1.3269797564,-178.5316009521,0.0568495020,0.0416265614,0.0076863766,-99.6033477783,-14.9932327271,14.7221698761,-0.0282362103,-0.0350851417,0.0195963532,-60.4674415588,83.1187210083,-165.2561645508,0.0108629465,0.0302100182,0.0269244313,25.4731712341,55.2155990601,-118.7570266724,0.0732576847,0.0055265725,0.0004096031,
1741.233,-3.1975414753,1.3275294304,-178.5298004150,0.0563708171,0.0425801240,0.0135449171,-99.5795364380,-15.2046375275,14.7847499847,-0.0278922617,-0.0354770422,0.0229461044,-61.0931892395,83.0800323486,-165.9038085938,0.0127349496,0.0319271982,0.0302056670,25.5133228302,55.2023353577,-118.7102661133,0.0658013821,0.0041071773,0.0023633242,
1741.243,-3.1946313381,1.3282450438,-178.5298156738,0.0573598593,0.0483887754,0.0067066550,-99.5568923950,-15.4160251617,14.8449268341,-0.0182671547,-0.0344209671,0.0058064312,-61.7410049438,83.0397567749,-166.5703887939,0.0165562630,0.0273355842,0.0232827067,25.5539550781,55.1856231689,-118.6636428833,0.0744239688,0.0021737516,0.0067164302,
1741.253,-3.1934812069,1.3293652534,-178.5286560059,0.0583559684,0.0464155935,0.0076824427,-99.5327453613,-15.6266126633,14.8983268738,-0.0159492493,-0.0260460377,0.0067077577,-62.3919372559,82.9987335205,-167.2387390137,0.0257465839,0.0266592205,0.0168683529,25.5906066895,55.1707038879,-118.6194534302,0.0718338490,-0.0026426762,0.0066813231,
1741.263,-3.1933174133,1.3274576664,-178.5267944336,0.0602758080,0.0429948196,0.0013339520,-99.5136108398,-15.8396825790,14.9535083771,-0.0190403759,-0.0362650156,0.0072011352,-63.0468559265,82.9564132690,-167.9173126221,0.0246797204,0.0264870524,0.0148684978,25.6244525909,55.1563415527,-118.5773620605,0.0731555223,-0.0059656203,0.0056653023,
1741.273,-3.1939198971,1.3287835121,-178.5263366699,0.0598106608,0.0381224751,0.0120768547,-99.5022964478,-16.0578651428,15.0074739456,-0.0070768297,-0.0387297869,0.0024457276,-63.6862373352,82.9133453369,-168.5858612061,-0.0076392889,0.0243530571,0.0201774836,25.6591033936,55.1426544189,-118.5372314453,0.0783901215,0.0019386709,0.0066146255,
1741.283,-3.1929821968,1.3298175335,-178.5245361328,0.0544576123,0.0434772111,0.0067058802,-99.4862899780,-16.2798366547,15.0629310608,-0.0093328357,-0.0426793694,0.0171403736,-64.3337631226,82.8657302856,-169.2696380615,0.0181367397,0.0218019187,0.0230492353,25.6938934326,55.1319389343,-118.4988021851,0.0719355345,-0.0047883540,0.0041856170,
1741.293,-3.1942200661,1.3303619623,-178.5239715576,0.0559319556,0.0381276719,0.0067067742,-99.4683532715,-16.4965286255,15.1209402084,-0.0178439617,-0.0436820984,0.0186214447,-65.0118865967,82.8158569336,-169.9879302979,-0.0405654907,0.0373722017,0.0157371759,25.7325096130,55.1225395203,-118.4568634033,0.0703769326,-0.0066588968,0.0042315722,
1741.303,-3.1921379566,1.3292686939,-178.5233764648,0.0617722571,0.0454156399,0.0096343160,-99.4494781494,-16.7070960999,15.1792993546,-0.0213658512,-0.0285522938,0.0186251998,-65.7318801880,82.7591705322,-170.7525024414,0.0037438869,0.0442917347,0.0197177529,25.7794876099,55.1111450195,-118.4088211060,0.0683100224,-0.0047108829,0.0042883754,
1741.313,-3.1917831898,1.3292409182,-178.5221405029,0.0583538041,0.0478508621,0.0154933333,-99.4357223511,-16.9114799500,15.2350311279,-0.0350345075,-0.0251373649,0.0138346702,-66.4859619141,82.6934127808,-171.5460357666,0.0187352896,0.0225664675,0.0276440382,25.8383846283,55.0954551697,-118.3494262695,0.0632705688,0.0107750297,0.0019009709,
1741.323,-3.1915812492,1.3268845081,-178.5209655762,0.0661251843,0.0410114527,0.0047499537,-99.4258499146,-17.1148986816,15.2888393402,-0.0291521549,-0.0305294991,0.0086192042,-67.1732254028,82.6268463135,-172.2715301514,0.0224931240,0.0276424587,0.0344839096,25.8945579529,55.0757751465,-118.2891540527,0.0752809644,0.0033111870,0.0072640181,
1741.333,-3.1928734779,1.3289320469,-178.5210876465,0.0568835661,0.0444518924,0.0037755370,-99.4108352661,-17.3214263916,15.3337106705,-0.0267358124,-0.0413066149,0.0194281787,-67.8175201416,82.5830154419,-172.9436340332,-0.0625662804,0.0645411909,0.0135800838,25.9471549988,55.0568504333,-118.2301712036,0.0785098076,0.0007668138,0.0033440590,
1741.343,-3.1920545101,1.3253593445,-178.5198211670,0.0660985708,0.0410197452,0.0047494173,-99.3899078369,-17.5366249084,15.3779020309,-0.0220185518,-0.0433359742,0.0042522550,-68.5183181763,82.5078353882,-173.6828613281,0.0539627075,0.0072519481,0.0189888477,26.0051155090,55.0401992798,-118.1671447754,0.0822495818,-0.0008352399,0.0131493807,
1741.353,-3.1906366348,1.3247908354,-178.5186309814,0.0621824041,0.0473427102,0.0091426969,-99.3594589233,-17.7577743530,15.4229536057,-0.0208138525,-0.0405017734,0.0191872567,-69.2458877563,82.4433670044,-174.4537353516,0.0250067711,0.0196283758,0.0206527114,26.0617980957,55.0254898071,-118.1064910889,0.0694071651,0.0097932816,0.0097914934,
1741.363,-3.1885044575,1.3253624439,-178.5181121826,0.0621923767,0.0477938280,0.0047462583,-99.3284454346,-17.9811992645,15.4649972916,-0.0225721002,-0.0430631042,0.0136010647,-69.9126129150,82.3803405762,-175.1668701172,-0.0117595792,0.0314368308,0.0295475721,26.1129398346,55.0115127563,-118.0520935059,0.0678024292,0.0058276355,0.0069074631,
1741.373,-3.1905198097,1.3252658844,-178.5157623291,0.0607258528,0.0395281576,0.0081662536,-99.3045806885,-18.2030200958,15.5069484711,-0.0277170539,-0.0378378630,0.0061802715,-70.5983505249,82.3093032837,-175.8986053467,0.0286026001,0.0238478780,0.0233335495,26.1684417725,55.0013847351,-117.9923858643,0.0745370388,-0.0045006275,0.0099517703,
1741.383,-3.1935746670,1.3275160789,-178.5165557861,0.0558822975,0.0342102349,-0.0015954971,-99.2854461670,-18.4272918701,15.5462732315,-0.0275267959,-0.0282577276,0.0173870921,-71.2949371338,82.2372131348,-176.6437683105,0.0089021921,0.0201821923,0.0235194564,26.2260017395,54.9868736267,-117.9345855713,0.0695089102,0.0056326985,-0.0012100935,
1741.393,-3.1948301792,1.3273395300,-178.5160064697,0.0583206266,0.0381383635,0.0028002262,-99.2575912476,-18.6523952484,15.5823707581,-0.0322282016,-0.0548070073,0.0059890002,-71.9574661255,82.1654815674,-177.3495483398,0.0155682564,0.0360082984,0.0270813107,26.2875995636,54.9695358276,-117.8685150146,0.0791009068,0.0074110031,-0.0011594296,
1741.403,-3.1955525875,1.3284332752,-178.5160980225,0.0583397076,0.0420571752,0.0115900040,-99.2175903320,-18.8803958893,15.6150732040,-0.0291600823,-0.0501049161,0.0168494731,-72.6082077026,82.0917282104,-178.0442657471,0.0041614771,0.0401320159,0.0262435079,26.3409996033,54.9497413635,-117.8104705811,0.0676720738,0.0038762093,0.0037076473,
1741.413,-3.1948075294,1.3284758329,-178.5136718750,0.0578521714,0.0449738801,0.0008474588,-99.1649475098,-19.1119041443,15.6490879059,-0.0276095271,-0.0546820164,0.0270118117,-73.2695693970,82.0136184692,-178.7504577637,0.0176448822,0.0321168602,0.0259311795,26.4000682831,54.9291343689,-117.7448425293,0.0738130808,-0.0031330884,-0.0031292439,
1741.423,-3.1957192421,1.3262147903,-178.5124359131,0.0636720955,0.0435249731,0.0052418709,-99.1090774536,-19.3452110291,15.6884241104,-0.0319426358,-0.0460940003,0.0219831020,-73.9418487549,81.9294509888,-179.4684906006,0.0149983168,0.0290833712,0.0276039839,26.4648685455,54.9078140259,-117.6732635498,0.0784820318,0.0064030886,-0.0026240349,
1741.433,-3.1981556416,1.3273988962,-178.5119171143,0.0558802560,0.0381962992,0.0081744194,-99.0603027344,-19.5844535828,15.7340574265,-0.0295318663,-0.0380637050,0.0116934329,-74.6064071655,81.8427352905,179.8222503662,0.0001362562,0.0329128802,0.0273312330,26.5368137360,54.8840293884,-117.5952758789,0.0733605027,0.0060933828,-0.0045586824,
1741.443,-3.1988101006,1.3260368109,-178.5118865967,0.0582978949,0.0401608534,0.0096395016,-99.0097961426,-19.8239593506,15.7796726227,-0.0310258865,-0.0446959138,0.0111400783,-75.2683944702,81.7548065186,179.1201629639,0.0126126409,0.0352866054,0.0295267105,26.6065807343,54.8594589233,-117.5174942017,0.0701840520,0.0009151995,0.0027657747,
1741.453,-3.1996800900,1.3257141113,-178.5101623535,0.0612219498,0.0372463278,0.0032924414,-98.9517440796,-20.0682163239,15.8218765259,-0.0247793496,-0.0430542231,0.0153438300,-75.9140090942,81.6632690430,178.4338073730,0.0177533627,0.0323281288,0.0277993083,26.6768665314,54.8318252563,-117.4389801025,0.0762540698,0.0035248399,0.0012650490,
1741.463,-3.2009809017,1.3245084286,-178.5089721680,0.0602243468,0.0377572998,0.0120823979,-98.8903961182,-20.3172321320,15.8621559143,-0.0278818011,-0.0390092134,0.0150946230,-76.5790252686,81.5717926025,177.7288360596,0.0141026378,0.0274189711,0.0193229914,26.7485961914,54.8030776978,-117.3595962524,0.0798711777,0.0061140060,0.0041531324,
1741.473,-3.2006349564,1.3225318193,-178.5065612793,0.0626312643,0.0372630358,-0.0020793080,-98.8233413696,-20.5706844330,15.9026994705,-0.0188431442,-0.0432963371,0.0069366246,-77.2345352173,81.4738006592,177.0305480957,0.0172684789,0.0240664482,0.0235332847,26.8168125153,54.7787551880,-117.2822799683,0.0630248785,-0.0029560328,0.0012236238,
1741.483,-3.2026944160,1.3208848238,-178.5065917969,0.0616259724,0.0372989550,0.0145239234,-98.7608108521,-20.8286209106,15.9420871735,-0.0176832676,-0.0398296714,0.0032426864,-77.8953781128,81.3736572266,176.3262634277,0.0209140778,0.0231835842,0.0175375342,26.8885421753,54.7506332397,-117.1992340088,0.0764135718,-0.0008519888,0.0046103597,
1741.493,-3.2055776119,1.3208633661,-178.5066986084,0.0596724674,0.0368609019,-0.0006098747,-98.6952514648,-21.0871047974,15.9827032089,-0.0248258710,-0.0378443599,0.0175663978,-78.5475311279,81.2760925293,175.6274108887,0.0084502101,0.0310307741,0.0188946724,26.9608135223,54.7231445313,-117.1190490723,0.0727186203,-0.0016788542,0.0050791502,
1741.503,-3.2073104382,1.3207434416,-178.5054626465,0.0542992800,0.0383559354,0.0135518312,-98.6368331909,-21.3433837891,16.0238323212,-0.0319253504,-0.0402775407,0.0100348443,-79.1755447388,81.1679153442,174.9494628906,0.0189042687,0.0292640924,0.0319145918,27.0347633362,54.6953735352,-117.0353775024,0.0743917227,-0.0044761002,-0.0017702579,
1741.513,-3.2070078850,1.3215801716,-178.5049285889,0.0572435707,0.0412803292,0.0125752687,-98.5814208984,-21.6009578705,16.0673198700,-0.0287846625,-0.0446994305,0.0113400668,-79.8291168213,81.0578689575,174.2451171875,0.0190958381,0.0309496224,0.0269740820,27.1176338196,54.6646614075,-116.9432830811,0.0672458410,0.0038573742,0.0045685172,
1741.523,-3.2079372406,1.3237750530,-178.5050811768,0.0563053042,0.0393433496,0.0018349886,-98.5251693726,-21.8608016968,16.1100635529,-0.0256732702,-0.0432943106,0.0121415406,-80.4651641846,80.9464797974,173.5576934814,0.0080496073,0.0355667174,0.0259338021,27.2091159821,54.6332511902,-116.8423309326,0.0713232160,0.0023427904,-0.0007785559,
1741.533,-3.2080996037,1.3229615688,-178.5045471191,0.0626387671,0.0398344807,0.0018347502,-98.4710540771,-22.1236133575,16.1552848816,-0.0279732645,-0.0409570336,0.0110209584,-81.0941848755,80.8299026489,172.8812255859,0.0243289471,0.0300025344,0.0288116336,27.2984943390,54.6031379700,-116.7410964966,0.0763900280,0.0037848055,0.0002310276,
1741.543,-3.2065072060,1.3232748508,-178.5033569336,0.0567848533,0.0437129773,0.0042746663,-98.4239883423,-22.3914604187,16.2025012970,-0.0264404118,-0.0411317945,0.0158682019,-81.7237777710,80.7106857300,172.2000274658,0.0166710019,0.0288639367,0.0205006003,27.3853149414,54.5711746216,-116.6408309937,0.0633714199,-0.0001338422,-0.0012339354,
1741.553,-3.2063889503,1.3239347935,-178.5027770996,0.0558198094,0.0427343398,0.0159936547,-98.3883666992,-22.6607990265,16.2565803528,-0.0249232054,-0.0330632925,0.0145482570,-82.3340835571,80.5889434814,171.5389709473,0.0119312406,0.0321433246,0.0278005600,27.4770278931,54.5343246460,-116.5363693237,0.0761820078,0.0036833584,0.0104475021,
1741.563,-3.2080712318,1.3217294216,-178.5028076172,0.0631055459,0.0388574451,0.0018342137,-98.3552932739,-22.9262142181,16.3139381409,-0.0257758200,-0.0284131169,0.0205961466,-82.9599304199,80.4640502930,170.8579254150,-0.0064939260,0.0266785324,0.0215138793,27.5714340210,54.4979057312,-116.4299545288,0.0758130550,-0.0027752519,0.0138491392,
1741.573,-3.2076537609,1.3215306997,-178.5028686523,0.0606606752,0.0417798646,0.0096462965,-98.3271179199,-23.1882438660,16.3756465912,-0.0251009762,-0.0213302970,0.0125644803,-83.5560150146,80.3370742798,170.2044677734,0.0043669939,0.0344084799,0.0278798342,27.6705913544,54.4599761963,-116.3215713501,0.0793346763,-0.0019630790,0.0065136552,
1741.583,-3.2076148987,1.3211760521,-178.5017395020,0.0611427650,0.0383612327,0.0013452172,-98.2944869995,-23.4392681122,16.4307460785,-0.0305893123,-0.0263882279,0.0152145177,-84.1280212402,80.2068786621,169.5769195557,0.0137486458,0.0397306979,0.0298207402,27.7676773071,54.4246902466,-116.2141571045,0.0672577620,0.0027906895,0.0006693602,
1741.593,-3.2078020573,1.3190847635,-178.5005187988,0.0630594045,0.0417825058,0.0047626495,-98.2526321411,-23.6806793213,16.4791240692,-0.0334749222,-0.0250282288,0.0084497035,-84.6679992676,80.0803527832,168.9879302979,0.0138589144,0.0420403183,0.0273218155,27.8686370850,54.3880767822,-116.1025161743,0.0786046386,0.0026175082,-0.0051705241,
1741.603,-3.2061789036,1.3188877106,-178.4986877441,0.0567083061,0.0437073559,0.0091551542,-98.2047653198,-23.9191722870,16.5209827423,-0.0387482941,-0.0182800889,0.0089172423,-85.1696472168,79.9568328857,168.4440155029,0.0125086904,0.0340213180,0.0345182419,27.9606018066,54.3498649597,-115.9953918457,0.0728449821,-0.0013923645,0.0065075159,
1741.613,-3.2064826488,1.3217800856,-178.4970092773,0.0562704951,0.0456657112,-0.0010969639,-98.1608123779,-24.1558094025,16.5604419708,-0.0420319438,-0.0188688040,0.0094490647,-85.6363830566,79.8411331177,167.9364318848,0.0160607696,0.0395233333,0.0382364392,28.0553054810,54.3142204285,-115.8861846924,0.0773651004,0.0014254153,-0.0012981892,
1741.623,-3.2051072121,1.3205685616,-178.4951171875,0.0582024828,0.0471066199,0.0115965009,-98.1222839355,-24.3981723785,16.5985603333,-0.0292863250,-0.0219680071,0.0007832348,-86.1109390259,79.7263107300,167.4229125977,0.0347483158,0.0303536654,0.0205286741,28.1377372742,54.2775382996,-115.7884750366,0.0750383139,0.0053225160,0.0040099025,
1741.633,-3.2026858330,1.3219732046,-178.4932556152,0.0533441752,0.0529237837,0.0125712156,-98.0782318115,-24.6431255341,16.6352157593,-0.0243869424,-0.0285084248,0.0125358254,-86.5759124756,79.6116790771,166.9171905518,0.0065574646,0.0353290439,0.0194255114,28.2135181427,54.2464218140,-115.6954193115,0.0761859417,-0.0028909445,0.0078926682,
1741.643,-3.2014193535,1.3232606649,-178.4914855957,0.0558080450,0.0446009040,0.0096409321,-98.0347213745,-24.8880996704,16.6747245789,-0.0228981972,-0.0282320976,0.0252743363,-87.0179595947,79.4971923828,166.4302368164,0.0169373751,0.0319853723,0.0285361409,28.2921237946,54.2145576477,-115.6006317139,0.0734194517,-0.0042994022,0.0025039911,
1741.653,-3.2023358345,1.3235455751,-178.4921417236,0.0567895807,0.0392457731,0.0125716329,-97.9935302734,-25.1269569397,16.7169075012,-0.0266762376,-0.0323271155,0.0185234100,-87.4758605957,79.3799591064,165.9249420166,0.0146092176,0.0296596587,0.0235655308,28.3755493164,54.1843338013,-115.5026168823,0.0711577535,-0.0023226440,0.0015553236,
1741.663,-3.2009084225,1.3234245777,-178.4909973145,0.0626468435,0.0431271531,0.0062224865,-97.9455490112,-25.3571338654,16.7577075958,-0.0249388814,-0.0324534178,0.0170471072,-87.8929901123,79.2590713501,165.4624328613,0.0039643049,0.0298189819,0.0263050795,28.4607658386,54.1478118896,-115.4027633667,0.0761556625,-0.0004048944,0.0083514452,
1741.673,-3.2003607750,1.3233004808,-178.4893188477,0.0626446828,0.0357933976,0.0028039813,-97.8946609497,-25.5781326294,16.8015003204,-0.0386751294,-0.0291027427,0.0223720446,-88.3023834229,79.1398468018,165.0114593506,0.0055274963,0.0333596468,0.0251435041,28.5521755219,54.1135215759,-115.2977828979,0.0670159459,0.0044013262,0.0000709295,
1741.683,-3.2003772259,1.3225342035,-178.4887542725,0.0606781840,0.0401882306,0.0111040473,-97.8348083496,-25.7911853790,16.8381710052,-0.0288426280,-0.0369181037,0.0163362995,-88.6992416382,79.0209732056,164.5774383545,0.0173414946,0.0407899022,0.0234812498,28.6450042725,54.0787429810,-115.1889038086,0.0744724870,0.0033315718,-0.0033237338,
