Time(sec),Gyr1_X(deg/sec),Gyr1_Y(deg/sec),Gyr1_Z(deg/sec),Acc1_X(m/s^2),Acc1_Y(m/s^2),Acc1_Z(m/s^2),Gyr2_X(deg/sec),Gyr2_Y(deg/sec),Gyr2_Z(deg/sec),Acc2_X(m/s^2),Acc2_Y(m/s^2),Acc2_Z(m/s^2),Gyr_X(deg/sec),Gyr_Y(deg/sec),Gyr_Z(deg/sec),Acc_X(m/s^2),Acc_Y(m/s^2),Acc_Z(m/s^2),Gyr_X(deg/sec),Gyr_Y(deg/sec),Gyr_Z(deg/sec),Acc_X(m/s^2),Acc_Y(m/s^2),Acc_Z(m/s^2),
1852.953,-3.2153930664,1.3225474358,-166.9931030273,0.0553073213,0.0399615467,0.0106311440,-116.6552429199,75.4964294434,0.6293466091,0.0350265503,0.0519362688,0.0166470408,-8.3053808212,82.8705978394,-23.5657806396,0.0230301023,0.0211034566,0.0180853382,23.2518367767,55.9057540894,-82.7541732788,0.0800697803,0.0076284707,0.0145674944,
1852.963,-3.2164769173,1.3211513758,-166.9914245605,0.0670017153,0.0365624987,0.0008655190,-116.6552429199,75.4981689453,0.6342138052,0.0364990234,0.0558164418,0.0127276182,-8.3112096786,82.8685607910,-23.5634193420,0.0274202228,0.0235625431,0.0244004130,23.2480907440,55.9066467285,-82.7549591064,0.0781253576,0.0003429353,0.0018688440,
1852.973,-3.2143881321,1.3227161169,-166.9897155762,0.0592165142,0.0453151315,0.0120946169,-116.6686401367,75.5003585815,0.6239916086,0.0404148698,0.0596626103,0.0044628978,-8.3025341034,82.8693313599,-23.5478363037,0.0288867354,0.0284246355,0.0219691098,23.2490482330,55.9080734253,-82.7516326904,0.0771627426,0.0032721758,0.0067747831,
1852.983,-3.2149529457,1.3243807554,-166.9898376465,0.0582689978,0.0448366515,0.0052599311,-116.6611785889,75.5029678345,0.6326363087,0.0306606293,0.0537792444,0.0141794086,-8.3012323380,82.8689193726,-23.5406455994,0.0225381851,0.0201221406,0.0244020969,23.2522563934,55.9127960205,-82.7462844849,0.0737910271,0.0008288026,0.0024548173,
1852.993,-3.2149894238,1.3233757019,-166.9898681641,0.0611811504,0.0423959084,0.0052596927,-116.6609344482,75.5032958984,0.6328957081,0.0365214348,0.0596337318,0.0112465024,-8.2956609726,82.8670501709,-23.5294113159,0.0293700695,0.0274387375,0.0302293599,23.2599620819,55.9177246094,-82.7385787964,0.0787220001,0.0012760162,0.0010860562,
1853.003,-3.2155640125,1.3258985281,-166.9875030518,0.0534126684,0.0468003936,-0.0015747547,-116.6595687866,75.5018463135,0.6359608769,0.0374916792,0.0552646518,0.0044161677,-8.2891664505,82.8674087524,-23.5185298920,0.0249763131,0.0284002572,0.0277921259,23.2751941681,55.9253311157,-82.7239151001,0.0724487305,0.0060651302,-0.0031501055,
1853.013,-3.2158563137,1.3273750544,-166.9869079590,0.0505087450,0.0414343514,0.0057502389,-116.6601333618,75.4978256226,0.6375848055,0.0389389396,0.0567888021,0.0059134960,-8.3090114594,82.8675155640,-23.5345649719,0.0200937390,0.0230720639,0.0214523524,23.2938079834,55.9354972839,-82.7093505859,0.0652239323,0.0083975196,-0.0053836703,
1853.023,-3.2156243324,1.3274908066,-166.9851074219,0.0578349829,0.0409420282,0.0116094947,-116.6535339355,75.4946517944,0.6464374661,0.0364836454,0.0583136678,0.0083530545,-8.3004159927,82.8685607910,-23.5239238739,0.0279085040,0.0264687687,0.0229322910,23.3057212830,55.9449729919,-82.6979141235,0.0731290579,0.0034618378,-0.0003291965,
1853.033,-3.2144939899,1.3295052052,-166.9839019775,0.0510341898,0.0462933816,0.0111209154,-116.6569061279,75.4925231934,0.6452156901,0.0291501284,0.0617578626,-0.0008952022,-8.3105926514,82.8713684082,-23.5296878815,0.0303559899,0.0245308504,0.0220060870,23.3181400299,55.9531898499,-82.6877975464,0.0771155953,0.0014441907,-0.0021249056,
1853.043,-3.2142353058,1.3301858902,-166.9827117920,0.0554406010,0.0433591753,0.0023318529,-116.6482849121,75.4864730835,0.6554611921,0.0340064764,0.0550284386,0.0069291592,-8.3285007477,82.8743972778,-23.5432567596,0.0240148902,0.0255388469,0.0196214840,23.3273525238,55.9615211487,-82.6788482666,0.0757321715,0.0018973351,-0.0029564500,
1853.053,-3.2144396305,1.3282759190,-166.9814453125,0.0602900870,0.0438510627,0.0047727823,-116.6233825684,75.4831466675,0.6813486814,0.0335036516,0.0565941036,0.0185751915,-8.3363962173,82.8778915405,-23.5481395721,0.0289052725,0.0294535384,0.0240780562,23.3421745300,55.9697685242,-82.6677246094,0.0772775412,0.0032764971,-0.0032769442,
1853.063,-3.2152843475,1.3280682564,-166.9809265137,0.0607747436,0.0394712500,0.0086798072,-116.6183166504,75.4809417725,0.6861685514,0.0325174332,0.0581004918,0.0063649416,-8.3604326248,82.8812561035,-23.5666007996,0.0240297318,0.0236380771,0.0246300250,23.3564224243,55.9732475281,-82.6535339355,0.0792646408,0.0046333969,0.0104960799,
1853.073,-3.2138359547,1.3265355825,-166.9796905518,0.0612362847,0.0453054272,0.0081894994,-116.6060638428,75.4777221680,0.7012427449,0.0329916477,0.0611036718,0.0146418810,-8.3626537323,82.8834609985,-23.5639400482,0.0264759064,0.0299850032,0.0271100178,23.3723545074,55.9791831970,-82.6394119263,0.0719984174,0.0050128400,0.0038006902,
1853.083,-3.2133674622,1.3250148296,-166.9778594971,0.0636511594,0.0482269861,0.0130711198,-116.5974578857,75.4727630615,0.7137053609,0.0373644829,0.0558236837,0.0126920938,-8.3822107315,82.8831253052,-23.5786399841,0.0176861286,0.0256337747,0.0383406654,23.3790740967,55.9820442200,-82.6333236694,0.0759326220,-0.0028434992,0.0048412085,
1853.093,-3.2129290104,1.3229527473,-166.9759826660,0.0611737669,0.0438248627,0.0111168027,-116.5874023438,75.4702377319,0.7271249294,0.0319823027,0.0534400642,0.0102302432,-8.4295358658,82.8870697021,-23.6229038239,0.0250188708,0.0213320404,0.0144962817,23.3919334412,55.9871406555,-82.6211929321,0.0730526447,-0.0004881620,0.0030054450,
1853.103,-3.2110629082,1.3231730461,-166.9742279053,0.0616658926,0.0467220396,0.0086737275,-116.5872116089,75.4694061279,0.7290861607,0.0305138230,0.0563828647,0.0121889114,-8.4352893829,82.8871002197,-23.6267833710,0.0245306492,0.0281805173,0.0198685378,23.4078979492,55.9919586182,-82.6095504761,0.0730997324,0.0013495684,0.0094789863,
1853.113,-3.2107717991,1.3226000071,-166.9730987549,0.0665387064,0.0476935431,0.0101379156,-116.5876312256,75.4738311768,0.7326216102,0.0373691320,0.0646161735,0.0116689801,-8.4662752151,82.8893356323,-23.6538829803,0.0264886022,0.0194527805,0.0165000632,23.4152526855,55.9958801270,-82.6026306152,0.0755794048,-0.0026001334,0.0154188871,
1853.123,-3.2094306946,1.3234031200,-166.9726409912,0.0616699085,0.0427873433,0.0125783682,-116.5788345337,75.4772033691,0.7431766987,0.0329893827,0.0538403690,0.0150269270,-8.4779195786,82.8904953003,-23.6628532410,0.0225848556,0.0224048123,0.0179879367,23.4223499298,56.0054054260,-82.5988235474,0.0693247318,-0.0065151453,-0.0010284185,
1853.133,-3.2084124088,1.3234870434,-166.9708862305,0.0621596575,0.0437461697,0.0091595650,-116.5792465210,75.4828186035,0.7443873286,0.0344787836,0.0561960638,0.0135214925,-8.4687261581,82.8939437866,-23.6510391235,0.0177094936,0.0282356367,0.0165781006,23.4318332672,56.0134239197,-82.5936889648,0.0737974644,0.0022349954,0.0005791187,
1853.143,-3.2094514370,1.3246726990,-166.9697875977,0.0582740903,0.0408345573,0.0120906830,-116.5772628784,75.4864044189,0.7461622953,0.0320530534,0.0493100882,0.0105570555,-8.4768905640,82.8916778564,-23.6578998566,0.0250288248,0.0258176401,0.0292375162,23.4436874390,56.0198745728,-82.5860977173,0.0758135319,0.0016777813,0.0026648045,
1853.153,-3.2093927860,1.3253446817,-166.9692993164,0.0597506613,0.0383921042,0.0062314868,-116.5651092529,75.4929656982,0.7557480931,0.0350114107,0.0599775910,0.0192489624,-8.4790382385,82.8938598633,-23.6573734283,0.0255218148,0.0248401910,0.0146270245,23.4535903931,56.0240783691,-82.5807037354,0.0739014149,0.0089373291,0.0047106147,
1853.163,-3.2092640400,1.3263833523,-166.9701080322,0.0622101873,0.0388781279,-0.0015805960,-116.5619812012,75.4991226196,0.7576983571,0.0311321020,0.0589148402,0.0123541951,-8.4730081558,82.8940277100,-23.6482887268,0.0269870162,0.0316626951,0.0239049196,23.4581241608,56.0294799805,-82.5767440796,0.0793251991,0.0020921230,-0.0049644709,
1853.173,-3.2096729279,1.3271132708,-166.9695892334,0.0592932366,0.0432797596,-0.0010920763,-116.5620346069,75.4990005493,0.7553055882,0.0330846906,0.0545217395,0.0060077906,-8.4764404297,82.8939743042,-23.6466884613,0.0279634595,0.0262991190,0.0239054710,23.4677639008,56.0325126648,-82.5699691772,0.0730071068,0.0113005638,0.0034132600,
1853.183,-3.2092430592,1.3283165693,-166.9690704346,0.0554079823,0.0398542732,-0.0045096874,-116.5644531250,75.4968338013,0.7518913746,0.0364931822,0.0555263162,0.0045687556,-8.4571008682,82.8930053711,-23.6234874725,0.0284496546,0.0287011564,0.0263237134,23.4712505341,56.0324363708,-82.5664367676,0.0803306103,0.0098040700,0.0053789020,
1853.193,-3.2110037804,1.3281852007,-166.9678955078,0.0563822538,0.0340255834,0.0101405382,-116.5551376343,75.4934310913,0.7604006529,0.0379431844,0.0599903464,0.0099288225,-8.4477710724,82.8922271729,-23.6090450287,0.0250300169,0.0272180066,0.0233782530,23.4739360809,56.0331344604,-82.5616912842,0.0715483427,0.0136903226,0.0049104095,
1853.203,-3.2120189667,1.3279441595,-166.9679870605,0.0607725792,0.0389260799,0.0086764693,-116.5563354492,75.4861068726,0.7572824359,0.0369345546,0.0586334765,0.0011996627,-8.4475679398,82.8909072876,-23.6038265228,0.0255154371,0.0272209197,0.0267736018,23.4747276306,56.0342597961,-82.5564956665,0.0720475912,0.0088068843,0.0000456572,
1853.213,-3.2119264603,1.3301488161,-166.9687347412,0.0564165190,0.0428306721,0.0101420879,-116.5519943237,75.4780273438,0.7601666451,0.0373874903,0.0665760338,0.0110089779,-8.4533824921,82.8930816650,-23.6012840271,0.0230787396,0.0194156095,0.0194875374,23.4732513428,56.0337715149,-82.5532760620,0.0754607916,0.0088172555,0.0005216599,
1853.223,-3.2137379646,1.3323675394,-166.9688720703,0.0564552322,0.0404207706,0.0091682076,-116.5502014160,75.4676666260,0.7644034028,0.0319710374,0.0540402234,0.0101034045,-8.4554347992,82.8944091797,-23.5927181244,0.0323589444,0.0257641003,0.0229308531,23.4736099243,56.0354461670,-82.5488967896,0.0735239983,-0.0014301538,0.0000571012,
1853.233,-3.2102713585,1.3344914913,-166.9665679932,0.0594219789,0.0501259565,0.0091656446,-116.5502700806,75.4592666626,0.7711845040,0.0255866051,0.0683264732,0.0165144205,-8.4404468536,82.8954849243,-23.5683574677,0.0201542377,0.0281706527,0.0253831521,23.4782619476,56.0349540710,-82.5405731201,0.0759606361,0.0092676282,0.0005571842,
1853.243,-3.2095324993,1.3334814310,-166.9659423828,0.0613574795,0.0471834168,0.0062348843,-116.5586853027,75.4459457397,0.7734188437,0.0294344425,0.0558151603,0.0059055686,-8.4424715042,82.8977584839,-23.5609931946,0.0260185003,0.0257278308,0.0229817480,23.4804134369,56.0345726013,-82.5362472534,0.0749803185,0.0014335513,0.0069075227,
1853.253,-3.2101051807,1.3354094028,-166.9654541016,0.0574848689,0.0447519422,0.0057478547,-116.5662002563,75.4360351563,0.7751676440,0.0328088999,0.0564383864,0.0089396238,-8.4478015900,82.8975296021,-23.5557727814,0.0206469297,0.0257399157,0.0322570279,23.4858970642,56.0348205566,-82.5294570923,0.0769358873,-0.0000788569,0.0108389854,
1853.263,-3.2111690044,1.3356995583,-166.9637603760,0.0613961816,0.0364696942,0.0081906319,-116.5756301880,75.4284286499,0.7708633542,0.0317989588,0.0594637692,0.0056158900,-8.4448137283,82.8973388672,-23.5459117889,0.0240644813,0.0276869610,0.0254177898,23.4992446899,56.0388183594,-82.5166320801,0.0818576217,0.0095903873,0.0006898046,
1853.273,-3.2112417221,1.3354048729,-166.9644775391,0.0628558844,0.0423303396,0.0052609444,-116.5930862427,75.4237289429,0.7553913593,0.0312900543,0.0599882603,0.0013256669,-8.4309682846,82.8992156982,-23.5251579285,0.0216271281,0.0291172937,0.0220256969,23.5081787109,56.0451202393,-82.5083312988,0.0799659491,-0.0026602149,-0.0001684427,
1853.283,-3.2095122337,1.3349732161,-166.9639129639,0.0613835081,0.0442533456,0.0037941933,-116.5970458984,75.4213027954,0.7516899109,0.0337207913,0.0585523248,0.0057541728,-8.4401111603,82.9029998779,-23.5291919708,0.0157759190,0.0237564668,0.0167216286,23.5212097168,56.0525665283,-82.4974746704,0.0732026100,0.0050787032,-0.0019724965,
1853.293,-3.2083110809,1.3338234425,-166.9639129639,0.0618517250,0.0466738530,0.0096518397,-116.5897140503,75.4220428467,0.7583031654,0.0337240696,0.0600202978,0.0164619088,-8.4310588837,82.9038619995,-23.5156497955,0.0240785480,0.0276408941,0.0221052989,23.5296478271,56.0601997375,-82.4909667969,0.0718121529,0.0035825670,-0.0003733039,
1853.303,-3.2075068951,1.3317693472,-166.9627838135,0.0671869814,0.0388473868,0.0042791367,-116.5896148682,75.4226226807,0.7608763576,0.0332382917,0.0609883070,0.0130392313,-8.4130229950,82.9032516479,-23.4943504333,0.0231006742,0.0280918777,0.0259938762,23.5318202972,56.0618209839,-82.4887084961,0.0718279481,0.0045490563,0.0060043335,
1853.313,-3.2087488174,1.3311507702,-166.9615173340,0.0559457205,0.0422870070,0.0101395845,-116.5776596069,75.4269561768,0.7759047747,0.0322808027,0.0570400655,0.0178420544,-8.4189653397,82.8993530273,-23.4971027374,0.0226039886,0.0246965215,0.0332541317,23.5294647217,56.0622596741,-82.4905548096,0.0713439584,0.0055492222,0.0069774985,
1853.323,-3.2082555294,1.3299090862,-166.9627990723,0.0637365505,0.0422784425,0.0008612275,-116.5695648193,75.4288330078,0.7868903875,0.0332655907,0.0594700873,0.0109601021,-8.3995151520,82.9004592896,-23.4707107544,0.0240712166,0.0290461704,0.0264308304,23.5245571136,56.0613632202,-82.4918670654,0.0757297873,0.0026582181,0.0084113479,
1853.333,-3.2070720196,1.3313653469,-166.9622650146,0.0549729019,0.0422577932,0.0096496940,-116.5609664917,75.4310760498,0.8001642227,0.0366933942,0.0648229122,0.0138390660,-8.3956480026,82.9001846313,-23.4629154205,0.0216292143,0.0246439725,0.0239835232,23.5207786560,56.0600662231,-82.4927902222,0.0766936541,0.0061024725,0.0039852262,
1853.343,-3.2081077099,1.3293133974,-166.9629058838,0.0647027194,0.0432524420,0.0047669411,-116.5687713623,75.4333953857,0.8000469804,0.0303559303,0.0623329580,0.0089695454,-8.3885231018,82.9054641724,-23.4502391815,0.0284765363,0.0314514115,0.0152808875,23.5210552216,56.0594062805,-82.4904174805,0.0718044043,0.0036547780,0.0069067478,
1853.353,-3.2062664032,1.3302584887,-166.9622650146,0.0544653088,0.0510328487,0.0042772889,-116.5694656372,75.4321441650,0.8050202727,0.0371863842,0.0555131137,0.0084934235,-8.4132976532,82.9037780762,-23.4687271118,0.0206604004,0.0212550014,0.0289343297,23.5214576721,56.0577888489,-82.4887466431,0.0752066374,0.0026652813,0.0112817287,
1853.363,-3.2072107792,1.3310043812,-166.9611053467,0.0574080087,0.0412836559,0.0042786002,-116.5632934570,75.4284820557,0.8134441376,0.0342406034,0.0521633923,0.0153325796,-8.4331293106,82.9036941528,-23.4829578400,0.0240781903,0.0237397626,0.0240543112,23.5317306519,56.0628662109,-82.4798202515,0.0708615780,0.0055324435,-0.0022828579,
1853.373,-3.2070765495,1.3303444386,-166.9611968994,0.0622793064,0.0407930501,0.0096488595,-116.5493545532,75.4265670776,0.8249706030,0.0391150117,0.0575892627,0.0148036480,-8.4421930313,82.9042205811,-23.4869174957,0.0255441666,0.0242461488,0.0196731389,23.5436782837,56.0631713867,-82.4690856934,0.0801419020,0.0068922639,0.0075330734,
1853.383,-3.2073867321,1.3288792372,-166.9600219727,0.0627420247,0.0393336415,-0.0020698905,-116.5418319702,75.4219665527,0.8302605152,0.0390948057,0.0596283972,0.0035780668,-8.4491939545,82.8998260498,-23.4893341064,0.0260229707,0.0203660876,0.0322962254,23.5537757874,56.0646400452,-82.4609451294,0.0806444883,0.0068105161,0.0027090311,
1853.393,-3.2071774006,1.3280667067,-166.9582366943,0.0632161200,0.0451893918,0.0106248856,-116.5340576172,75.4161300659,0.8339718580,0.0302801132,0.0533824265,0.0060326457,-8.4493484497,82.9019775391,-23.4838027954,0.0313987136,0.0247560143,0.0191450417,23.5558357239,56.0676727295,-82.4588012695,0.0655373335,0.0063214600,0.0100820661,
1853.403,-3.2054991722,1.3307181597,-166.9565887451,0.0593561381,0.0461366586,0.0023235679,-116.5222320557,75.4125823975,0.8440703750,0.0351473093,0.0583426058,0.0148015618,-8.4322786331,82.9022827148,-23.4622211456,0.0348173380,0.0286242217,0.0245189518,23.5549278259,56.0694580078,-82.4605712891,0.0753203034,0.0024336278,0.0066838264,
1853.413,-3.2049696445,1.3322306871,-166.9542083740,0.0549880005,0.0441742763,0.0047650933,-116.5090637207,75.4113082886,0.8563996553,0.0341651440,0.0622933209,0.0220832825,-8.4178848267,82.9049377441,-23.4420604706,0.0216394663,0.0271217376,0.0172337592,23.5562381744,56.0744552612,-82.4568634033,0.0719510317,0.0019624829,-0.0054518580,
1853.423,-3.2054102421,1.3333294392,-166.9531402588,0.0603782646,0.0388108306,0.0023245811,-116.5093078613,75.4079437256,0.8580772877,0.0312206745,0.0613678992,0.0123440027,-8.4107303619,82.9035797119,-23.4273281097,0.0221248269,0.0271094292,0.0255113319,23.5599193573,56.0754737854,-82.4511566162,0.0744023919,0.0092597306,0.0009237528,
1853.433,-3.2053494453,1.3344814777,-166.9514007568,0.0584452376,0.0446691178,0.0101375580,-116.5127639771,75.4059371948,0.8577685952,0.0297470093,0.0662734509,0.0128609538,-8.3994798660,82.9030532837,-23.4090003967,0.0221236944,0.0226920471,0.0298919678,23.5569553375,56.0748100281,-82.4500732422,0.0768373013,0.0068409741,0.0096925497,
1853.443,-3.2067434788,1.3339604139,-166.9508972168,0.0618541166,0.0354160704,0.0081855655,-116.5122833252,75.4043960571,0.8627228737,0.0336464643,0.0662970841,0.0138472319,-8.3958272934,82.9010925293,-23.3959350586,0.0235843062,0.0261067972,0.0293711424,23.5573368073,56.0756797791,-82.4466781616,0.0724512339,0.0078191161,-0.0000602007,
1853.453,-3.2078328133,1.3351438046,-166.9497833252,0.0579685196,0.0408061221,0.0028156638,-116.5250701904,75.4017486572,0.8557379246,0.0341231227,0.0653360188,0.0070817471,-8.3984394073,82.8998794556,-23.3885955811,0.0206519961,0.0261155739,0.0273975208,23.5572967529,56.0751533508,-82.4425811768,0.0656101704,0.0063515306,0.0116509199,
1853.463,-3.2071185112,1.3366328478,-166.9475097656,0.0594593436,0.0383522362,0.0081872940,-116.5364761353,75.3986587524,0.8502734900,0.0311798453,0.0609653592,0.0115445852,-8.4126024246,82.9000473022,-23.3933963776,0.0265117288,0.0237043649,0.0230106711,23.5561122894,56.0750274658,-82.4401245117,0.0758628845,-0.0009626746,-0.0005611777,
1853.473,-3.2057447433,1.3366854191,-166.9463653564,0.0599485412,0.0407697037,0.0076971650,-116.5416259766,75.3974304199,0.8500351906,0.0306861401,0.0624383092,0.0120626092,-8.4259366989,82.9002380371,-23.3971729279,0.0191879272,0.0178733468,0.0283892900,23.5624027252,56.0760078430,-82.4319610596,0.0773372650,0.0063109398,0.0043583512,
1853.483,-3.2054576874,1.3378345966,-166.9439849854,0.0565506220,0.0432060808,0.0140452981,-116.5396194458,75.3963317871,0.8586111665,0.0350758433,0.0580644906,0.0174339414,-8.4276142120,82.9020919800,-23.3915119171,0.0245630145,0.0310560316,0.0206078589,23.5713233948,56.0810279846,-82.4211044312,0.0739681721,0.0038188994,0.0015298724,
1853.493,-3.2057425976,1.3381268978,-166.9421691895,0.0550908819,0.0412579104,0.0125806928,-116.5409851074,75.3953094482,0.8642048240,0.0355596542,0.0595423281,0.0110992789,-8.4266500473,82.9052124023,-23.3822326660,0.0211517811,0.0227453262,0.0148010403,23.5817298889,56.0869522095,-82.4083633423,0.0720727444,0.0018071234,-0.0022571683,
1853.503,-3.2063832283,1.3371880054,-166.9391326904,0.0619104356,0.0441987813,0.0150223970,-116.5470046997,75.3968582153,0.8641442060,0.0336133242,0.0629252791,0.0062288046,-8.4277896881,82.9041595459,-23.3745594025,0.0314034224,0.0242150649,0.0289455429,23.5889663696,56.0889778137,-82.3997039795,0.0652565360,0.0066370666,0.0056105256,
1853.513,-3.2065892220,1.3386756182,-166.9386596680,0.0570535809,0.0373664014,0.0111170411,-116.5481185913,75.3938064575,0.8701148629,0.0282288194,0.0541796386,-0.0030212402,-8.4280738831,82.9056854248,-23.3655872345,0.0235942006,0.0281183720,0.0265277848,23.5942401886,56.0898551941,-82.3924255371,0.0784486532,0.0065950751,-0.0002167225,
1853.523,-3.2068963051,1.3402187824,-166.9381713867,0.0570805073,0.0368834361,0.0179535151,-116.5410385132,75.3941345215,0.8836389780,0.0360427499,0.0585834384,0.0130615234,-8.4182281494,82.9039993286,-23.3457946777,0.0250554085,0.0290777534,0.0308916420,23.5997982025,56.0926322937,-82.3848495483,0.0652921200,0.0104677677,-0.0011348724,
1853.533,-3.2069640160,1.3384871483,-166.9381408691,0.0594916940,0.0422557481,0.0067231059,-116.5339202881,75.3954315186,0.8980354667,0.0311656594,0.0605302751,0.0105821490,-8.3959083557,82.9059066772,-23.3152770996,0.0275009274,0.0290247872,0.0235921070,23.5998973846,56.0915451050,-82.3822021484,0.0755354762,0.0036246777,0.0032456517,
1853.543,-3.2057931423,1.3381749392,-166.9375610352,0.0589979663,0.0422353595,0.0086739659,-116.5345611572,75.3959274292,0.9051949978,0.0340974927,0.0590572655,0.0081396699,-8.3941917419,82.9048233032,-23.3065948486,0.0265220404,0.0246291608,0.0279684067,23.6016674042,56.0917358398,-82.3791122437,0.0701662302,0.0016568899,0.0066730976,
1853.553,-3.2071361542,1.3380926847,-166.9357910156,0.0585082509,0.0354228169,0.0111174583,-116.5353393555,75.3983383179,0.9101984501,0.0306901336,0.0590189993,0.0091012120,-8.3993225098,82.9080657959,-23.3025074005,0.0221344829,0.0290267542,0.0246063545,23.6031475067,56.0930976868,-82.3755874634,0.0682263374,0.0011633337,0.0057208538,
1853.563,-3.2080109119,1.3381379843,-166.9340515137,0.0599738844,0.0393443070,0.0042818785,-116.5334548950,75.3986434937,0.9204832911,0.0321563482,0.0590187013,0.0100679398,-8.4011793137,82.9078674316,-23.2974529266,0.0250637531,0.0256132707,0.0250921771,23.6097393036,56.0894851685,-82.3675079346,0.0808864832,0.0098725855,0.0066748857,
1853.573,-3.2082977295,1.3378773928,-166.9335021973,0.0604576208,0.0437438414,-0.0049949884,-116.5372314453,75.3999252319,0.9241574407,0.0350916386,0.0589914024,0.0110498071,-8.4086065292,82.9078674316,-23.2960872650,0.0235989094,0.0241643563,0.0221658647,23.6096687317,56.0857124329,-82.3630371094,0.0769435167,0.0015505254,0.0056475997,
1853.583,-3.2053229809,1.3369356394,-166.9323425293,0.0653240010,0.0485748462,0.0013494492,-116.5331268311,75.4033279419,0.9341783524,0.0409660339,0.0638311803,0.0217501521,-8.4191303253,82.9080047607,-23.2965850830,0.0221343637,0.0212576240,0.0270495415,23.6100902557,56.0831909180,-82.3585281372,0.0715478659,0.0083681643,0.0046398640,
1853.593,-3.2068643570,1.3338462114,-166.9323577881,0.0662466586,0.0393244326,0.0033028722,-116.5203018188,75.4035110474,0.9544888139,0.0365722775,0.0619004667,0.0202332735,-8.4102973938,82.9078140259,-23.2787342072,0.0275050402,0.0227033570,0.0226534456,23.6071929932,56.0765762329,-82.3569946289,0.0871084332,0.0020079911,0.0118649602,
1853.603,-3.2071015835,1.3321928978,-166.9317626953,0.0637764037,0.0437231287,0.0106266141,-116.5353317261,75.4027328491,0.9480531216,0.0365688801,0.0609062314,0.0085797906,-8.3756084442,82.9077606201,-23.2302398682,0.0211572647,0.0294645578,0.0260583907,23.6057643890,56.0784072876,-82.3522567749,0.0758957863,0.0054492950,-0.0071594119,
1853.613,-3.2079720497,1.3335163593,-166.9306335449,0.0554987118,0.0393437371,0.0076979995,-116.5496063232,75.4008865356,0.9460986257,0.0292364955,0.0609060526,0.0096265674,-8.3665580750,82.9100875854,-23.2099170685,0.0279982090,0.0269977897,0.0192590207,23.6020412445,56.0770339966,-82.3509750366,0.0734410286,-0.0003848374,0.0069674850,
1853.623,-3.2089436054,1.3337271214,-166.9294586182,0.0574555174,0.0388723761,0.0140473247,-116.5597000122,75.3975372314,0.9513120055,0.0365459919,0.0570302606,0.0116448998,-8.3458814621,82.9104385376,-23.1734695435,0.0221396089,0.0245108902,0.0236525387,23.6038322449,56.0765571594,-82.3441238403,0.0812488794,0.0044793189,-0.0042616725,
1853.633,-3.2097818851,1.3376917839,-166.9284057617,0.0526418835,0.0437697023,0.0062363148,-116.5729370117,75.3928756714,0.9521166682,0.0355489254,0.0565862358,0.0102674961,-8.3500461578,82.9106369019,-23.1650848389,0.0226283073,0.0230544135,0.0241467580,23.6042919159,56.0789527893,-82.3378067017,0.0759010911,0.0030241311,-0.0032520890,
1853.643,-3.2078595161,1.3387429714,-166.9266204834,0.0585195981,0.0491072796,0.0018410683,-116.5910110474,75.3915328979,0.9459155202,0.0321250558,0.0604766905,0.0137669444,-8.3261594772,82.9082641602,-23.1282119751,0.0231114626,0.0317978859,0.0328866094,23.6079139709,56.0775642395,-82.3317794800,0.0744227171,0.0088432431,0.0045565963,
1853.653,-3.2085018158,1.3380427361,-166.9254455566,0.0604605079,0.0422825478,0.0081886053,-116.6035232544,75.3877029419,0.9435075521,0.0286902189,0.0570917428,0.0040795803,-8.3173103333,82.9089813232,-23.1094341278,0.0240895748,0.0298237130,0.0270378590,23.6135940552,56.0774612427,-82.3238372803,0.0744217634,0.0083036423,0.0055540204,
1853.663,-3.2068321705,1.3387975693,-166.9248962402,0.0575439893,0.0417651609,0.0130704045,-116.6091461182,75.3886795044,0.9446616173,0.0316241980,0.0624371469,0.0123955011,-8.3081350327,82.9092254639,-23.0908641815,0.0216487050,0.0273620337,0.0231314003,23.6160945892,56.0739135742,-82.3195800781,0.0778051615,0.0053310692,0.0094230175,
1853.673,-3.2054340839,1.3373694420,-166.9230804443,0.0628901646,0.0451588072,0.0018379688,-116.5968017578,75.3867874146,0.9599409699,0.0296627283,0.0522355139,0.0167554021,-8.3184213638,82.9086151123,-23.0930233002,0.0245770812,0.0244560465,0.0260545537,23.6191234589,56.0749702454,-82.3166809082,0.0680497885,0.0028686225,-0.0022705197,
1853.683,-3.2060923576,1.3376917839,-166.9213104248,0.0589895397,0.0422405750,0.0037918091,-116.5937423706,75.3880844116,0.9660021663,0.0306450129,0.0571056902,0.0059913397,-8.3112564087,82.9110183716,-23.0783405304,0.0260471106,0.0288291201,0.0168158561,23.6220111847,56.0755195618,-82.3132629395,0.0758676529,0.0047992468,0.0011666417,
1853.693,-3.2048163414,1.3367546797,-166.9213256836,0.0609263107,0.0427066498,0.0047668219,-116.5936203003,75.3892364502,0.9698654413,0.0321149230,0.0663653016,0.0064704418,-8.3081064224,82.9095306396,-23.0702075958,0.0294618607,0.0283377469,0.0289963782,23.6225261688,56.0772438049,-82.3097381592,0.0773493052,0.0004100800,0.0007028580,
1853.703,-3.2056264877,1.3367183208,-166.9207611084,0.0579959899,0.0417442098,0.0076971650,-116.5915451050,75.3893966675,0.9745453000,0.0335804820,0.0609965920,0.0035313964,-8.3098096848,82.9098587036,-23.0657558441,0.0255563259,0.0298053846,0.0231436193,23.6266002655,56.0757255554,-82.3046340942,0.0822173357,0.0120837092,0.0031403303,
1853.713,-3.2080328465,1.3378795385,-166.9196624756,0.0560631268,0.0339736007,0.0077000260,-116.5725555420,75.3886413574,0.9950611591,0.0350419879,0.0546971560,0.0146923661,-8.3120784760,82.9074783325,-23.0598373413,0.0245746374,0.0249332115,0.0260350481,23.6169033051,56.0714683533,-82.3100204468,0.0748516321,0.0023799539,0.0103701353,
1853.723,-3.2084777355,1.3375753164,-166.9185485840,0.0614289120,0.0364227705,0.0140480399,-116.5621032715,75.3910064697,1.0096189976,0.0350524187,0.0600532591,0.0126801729,-8.3108568192,82.9079818726,-23.0522346497,0.0187163353,0.0249294564,0.0177412555,23.6105422974,56.0681457520,-82.3116455078,0.0704247355,0.0048589110,0.0039536357,
1853.733,-3.2097575665,1.3372765779,-166.9179992676,0.0609354153,0.0423044451,0.0042834282,-116.5606689453,75.3913116455,1.0132832527,0.0306591988,0.0571225584,0.0068128705,-8.3259458542,82.9098281860,-23.0586414337,0.0226265788,0.0259340778,0.0158239752,23.6029834747,56.0616683960,-82.3152389526,0.0854983330,0.0063537359,0.0096977353,
1853.743,-3.2093780041,1.3372377157,-166.9174041748,0.0580050536,0.0437626727,0.0077012777,-116.5555038452,75.3938217163,1.0227208138,0.0316468477,0.0619769692,0.0170273185,-8.3364562988,82.9134292603,-23.0591068268,0.0250757337,0.0230181664,0.0183297694,23.5984287262,56.0619125366,-82.3160171509,0.0732936859,0.0024895668,0.0004057288,
1853.753,-3.2084815502,1.3364132643,-166.9162597656,0.0628734827,0.0413056761,0.0037934184,-116.5530853271,75.3937988281,1.0301200151,0.0340881348,0.0512399971,0.0096937418,-8.3367710114,82.9104766846,-23.0500755310,0.0260459185,0.0259559080,0.0324396417,23.6011695862,56.0601463318,-82.3110504150,0.0840187073,0.0068494081,0.0003928542,
1853.763,-3.2075068951,1.3365567923,-166.9163208008,0.0594580173,0.0437300913,0.0096520782,-116.5646743774,75.3951721191,1.0248123407,0.0350707769,0.0585205257,0.0063111186,-8.3357019424,82.9118270874,-23.0402660370,0.0216543078,0.0283915624,0.0163498446,23.6021099091,56.0617713928,-82.3069610596,0.0811048746,0.0029442012,-0.0020231009,
1853.773,-3.2087194920,1.3365619183,-166.9158477783,0.0643409193,0.0403332487,0.0091649890,-116.5590667725,75.3971557617,1.0352578163,0.0287318230,0.0570379794,0.0165281892,-8.3369331360,82.9124908447,-23.0327072144,0.0265385509,0.0249746367,0.0222204924,23.6076278687,56.0594177246,-82.2995300293,0.0835232735,0.0082523525,0.0106624961,
1853.783,-3.2082026005,1.3385615349,-166.9147949219,0.0594929941,0.0442304499,0.0057473779,-116.5695343018,75.4001922607,1.0306078196,0.0336279869,0.0652709007,0.0155701041,-8.3404016495,82.9105529785,-23.0279617310,0.0250695348,0.0225455388,0.0309776738,23.6148529053,56.0614356995,-82.2918395996,0.0713359118,0.0052697659,-0.0000250936,
1853.793,-3.2087488174,1.3398100138,-166.9148712158,0.0556085296,0.0383805595,0.0106313825,-116.5705032349,75.3992156982,1.0342912674,0.0370416641,0.0604027212,0.0097218156,-8.3426408768,82.9092483521,-23.0200901031,0.0255550146,0.0220653713,0.0290029421,23.6201820374,56.0623550415,-82.2841186523,0.0772042274,0.0076688826,-0.0024332404,
1853.803,-3.2077956200,1.3420704603,-166.9143981934,0.0561362542,0.0437349975,-0.0001112819,-116.5718536377,75.3996505737,1.0384254456,0.0282545090,0.0613688529,0.0136302114,-8.3248996735,82.9079513550,-22.9940032959,0.0299467444,0.0234950632,0.0314169005,23.6222915649,56.0640373230,-82.2781677246,0.0694081783,0.0076597929,-0.0033795238,
1853.813,-3.2079486847,1.3451535702,-166.9132995605,0.0537486374,0.0417844690,0.0120976567,-116.5806808472,75.3986587524,1.0358172655,0.0321564078,0.0642959177,0.0107428432,-8.3129310608,82.9070968628,-22.9725761414,0.0294566154,0.0259126946,0.0255393237,23.6248226166,56.0652618408,-82.2711944580,0.0703966618,0.0052030087,-0.0033527017,
1853.823,-3.2076544762,1.3430678844,-166.9127044678,0.0649427176,0.0456856377,0.0018425584,-116.5939331055,75.3969650269,1.0306330919,0.0311723948,0.0608778596,-0.0009108186,-8.3160772324,82.9072113037,-22.9649372101,0.0294568539,0.0205481425,0.0235889405,23.6227989197,56.0657043457,-82.2686843872,0.0743072033,0.0013172925,0.0010390878,
1853.833,-3.2073221207,1.3422871828,-166.9115142822,0.0610228479,0.0412853323,0.0160017014,-116.5975494385,75.3962326050,1.0335786343,0.0301926136,0.0628335476,0.0069215894,-8.3198881149,82.9074783325,-22.9605236053,0.0270160437,0.0234852359,0.0250609890,23.6241531372,56.0690422058,-82.2625961304,0.0694569349,0.0027894676,-0.0023288131,
1853.843,-3.2047045231,1.3412563801,-166.9103088379,0.0614931360,0.0451460108,0.0047685504,-116.5949707031,75.3920288086,1.0420370102,0.0311506391,0.0541140437,0.0079196095,-8.3160438538,82.9099502563,-22.9466915131,0.0240916610,0.0264008045,0.0236342475,23.6240444183,56.0689201355,-82.2587890625,0.0699440241,-0.0011166036,0.0098756552,
1853.853,-3.2042086124,1.3418378830,-166.9096832275,0.0536907874,0.0441607945,0.0076980591,-116.5926589966,75.3923645020,1.0476243496,0.0243161917,0.0575314462,0.0098611116,-8.3459692001,82.9124069214,-22.9671745300,0.0206789970,0.0181586966,0.0217315033,23.6271095276,56.0677108765,-82.2518310547,0.0757915974,0.0003139079,0.0045008659,
1853.863,-3.2035214901,1.3404029608,-166.9084930420,0.0629430935,0.0426840112,0.0057432652,-116.5925140381,75.3936386108,1.0523808002,0.0316460133,0.0599537492,0.0093625784,-8.3513269424,82.9109954834,-22.9663047791,0.0236056447,0.0274510160,0.0226866230,23.6341438293,56.0668678284,-82.2418823242,0.0816427469,0.0065938532,0.0064702630,
1853.873,-3.2035868168,1.3390504122,-166.9078674316,0.0604780838,0.0421968997,0.0081848502,-116.5762863159,75.3936157227,1.0711532831,0.0301811099,0.0565680563,0.0180875063,-8.3436174393,82.9120407104,-22.9505443573,0.0201899409,0.0308495313,0.0241683871,23.6387958527,56.0684471130,-82.2354049683,0.0743339062,-0.0022276044,0.0055328012,
1853.883,-3.2041835785,1.3390012980,-166.9072723389,0.0560826994,0.0402541757,0.0135557055,-116.5739364624,75.3934783936,1.0794641972,0.0399461389,0.0599924624,0.0088019371,-8.3509159088,82.9101638794,-22.9497699738,0.0328812003,0.0250107497,0.0295085162,23.6475238800,56.0692787170,-82.2256698608,0.0792248249,0.0089297593,0.0021599531,
1853.893,-3.2030947208,1.3387790918,-166.9048309326,0.0590085089,0.0460945852,0.0076955557,-116.5708694458,75.3915252686,1.0897551775,0.0326132774,0.0585632622,0.0088046193,-8.3691682816,82.9081726074,-22.9604072571,0.0279940963,0.0201722980,0.0275279880,23.6518230438,56.0704116821,-82.2177581787,0.0753296614,0.0010854900,0.0002387166,
1853.903,-3.2043614388,1.3380817175,-166.9037170410,0.0643674359,0.0402572975,-0.0010924935,-116.5707092285,75.3931198120,1.0963915586,0.0375031233,0.0590285957,0.0097686052,-8.3587865829,82.9058761597,-22.9424896240,0.0226180553,0.0279680416,0.0269977227,23.6578121185,56.0747909546,-82.2110900879,0.0768371224,0.0049636662,-0.0040745139,
1853.913,-3.2035982609,1.3361012936,-166.9012756348,0.0653094351,0.0470799804,0.0111129284,-116.5724563599,75.3952331543,1.1026613712,0.0433717966,0.0599690080,0.0131775141,-8.3561496735,82.9049148560,-22.9328441620,0.0270105004,0.0250350758,0.0172147751,23.6600646973,56.0738830566,-82.2072601318,0.0831758976,0.0034734309,0.0037347078,
1853.923,-3.2031524181,1.3347024918,-166.8994598389,0.0628436282,0.0460956767,0.0032995939,-116.5712814331,75.3985671997,1.1101465225,0.0380153656,0.0599215627,0.0131477714,-8.3593158722,82.9030532837,-22.9277172089,0.0240768194,0.0206519961,0.0308562815,23.6630020142,56.0729675293,-82.2025985718,0.0743779540,0.0029536486,0.0115466714,
1853.933,-3.2028305531,1.3343101740,-166.8989410400,0.0633250624,0.0436486788,0.0023221970,-116.5652160645,75.4019775391,1.1234474182,0.0287530422,0.0584170818,0.0189573765,-8.3784437180,82.9014816284,-22.9373607635,0.0270031095,0.0187439770,0.0303489864,23.6623077393,56.0751075745,-82.1989593506,0.0704925656,-0.0004456937,0.0086427331,
1853.943,-3.2035362720,1.3351087570,-166.8977661133,0.0574796237,0.0441492349,0.0120894313,-116.5795898438,75.4012222290,1.1164429188,0.0399801731,0.0535176694,0.0043716431,-8.3944625854,82.9027557373,-22.9450588226,0.0230996013,0.0187756270,0.0157257169,23.6621818542,56.0742111206,-82.1977767944,0.0817142725,0.0010150373,0.0096067190,
1853.953,-3.2044568062,1.3361142874,-166.8954467773,0.0589620098,0.0412355624,0.0067191720,-116.5803298950,75.4045791626,1.1214637756,0.0356004238,0.0646961629,0.0131384134,-8.3945951462,82.9029159546,-22.9363327026,0.0226116776,0.0231700316,0.0245175660,23.6664829254,56.0764770508,-82.1910629272,0.0690410733,0.0058726668,-0.0035299063,
1853.963,-3.2047197819,1.3367555141,-166.8936309814,0.0555552319,0.0436815321,-0.0020691752,-116.5815658569,75.4030075073,1.1261503696,0.0297341347,0.0529988408,0.0131551623,-8.4005680084,82.9050750732,-22.9358978271,0.0270108581,0.0226892531,0.0186968446,23.6670799255,56.0768661499,-82.1879577637,0.0763690472,0.0019633174,0.0067313910,
1853.973,-3.2054352760,1.3364101648,-166.8906402588,0.0594554618,0.0397877581,0.0047669411,-116.5942153931,75.4039077759,1.1193513870,0.0351091623,0.0617495477,0.0044092536,-8.4081602097,82.9063186646,-22.9359550476,0.0226190090,0.0241674185,0.0245795846,23.6697216034,56.0732002258,-82.1827011108,0.0831692815,0.0058246851,0.0027869940,
1853.983,-3.2043917179,1.3375712633,-166.8900909424,0.0580108725,0.0461172052,0.0052549243,-116.5969619751,75.4045791626,1.1223102808,0.0268113613,0.0622215569,0.0107626915,-8.3951187134,82.9065933228,-22.9140052795,0.0226196051,0.0246268809,0.0250678509,23.6739253998,56.0728836060,-82.1775360107,0.0743771195,0.0028556287,-0.0011070371,
1853.993,-3.2032158375,1.3372218609,-166.8883209229,0.0614227429,0.0421904773,0.0062302351,-116.6114578247,75.4019622803,1.1143584251,0.0375420451,0.0583258569,0.0005856752,-8.3908624649,82.9054641724,-22.9014892578,0.0304296613,0.0241319686,0.0274909809,23.6754894257,56.0740127563,-82.1725082397,0.0738998652,0.0028481781,-0.0084107518,
1854.003,-3.2028989792,1.3399670124,-166.8872528076,0.0570761114,0.0456028655,0.0116022825,-116.6073455811,75.4006500244,1.1240937710,0.0355831385,0.0568901002,0.0137630701,-8.4007816315,82.9027252197,-22.9033813477,0.0235878229,0.0256253034,0.0337937921,23.6821231842,56.0749969482,-82.1646881104,0.0739094615,0.0086541772,-0.0005584955,
1854.013,-3.2044343948,1.3407720327,-166.8861083984,0.0570901558,0.0392819420,0.0008617640,-116.6152954102,75.3979415894,1.1213703156,0.0370360613,0.0603314638,0.0045374632,-8.4054174423,82.9071502686,-22.8998260498,0.0265270472,0.0251358747,0.0133632272,23.6829299927,56.0753822327,-82.1607360840,0.0744014978,0.0018132329,0.0048206449,
1854.023,-3.2027070522,1.3393900394,-166.8842468262,0.0585308857,0.0441346914,0.0037891865,-116.6194076538,75.3940124512,1.1231378317,0.0301828384,0.0530601740,0.0050715208,-8.4141044617,82.9056320190,-22.9003696442,0.0240823627,0.0246702209,0.0231055990,23.6812095642,56.0735130310,-82.1589202881,0.0817074776,0.0062122643,0.0077189207,
1854.033,-3.2009544373,1.3393945694,-166.8829956055,0.0580426827,0.0484986939,0.0096468329,-116.6131362915,75.3935470581,1.1340140104,0.0345753431,0.0613789558,0.0118862391,-8.4207735062,82.9099502563,-22.8995876312,0.0221385360,0.0280919373,0.0124373883,23.6814117432,56.0727195740,-82.1559143066,0.0792583227,0.0027878582,0.0042911172,
1854.043,-3.2007789612,1.3369045258,-166.8823242188,0.0599523634,0.0431245938,0.0018333197,-116.6056365967,75.3940429688,1.1436928511,0.0370188951,0.0565042496,0.0103879571,-8.4180564880,82.9115219116,-22.8881168365,0.0236067772,0.0271055549,0.0197873712,23.6842708588,56.0720710754,-82.1507110596,0.0768106580,0.0027586222,0.0008758903,
1854.053,-3.1999399662,1.3370809555,-166.8817291260,0.0594671592,0.0475045033,0.0096446872,-116.6067886353,75.3905410767,1.1458510160,0.0330972672,0.0550896227,0.0065126419,-8.4300088882,82.9131011963,-22.8930912018,0.0270281434,0.0222444832,0.0222603753,23.6879100800,56.0744171143,-82.1441650391,0.0680444241,0.0056694150,-0.0054265857,
1854.063,-3.2006537914,1.3373973370,-166.8812103271,0.0589843988,0.0377513096,0.0101343393,-116.5923995972,75.3905029297,1.1631278992,0.0311439633,0.0531650186,0.0191513300,-8.4580087662,82.9117736816,-22.9142379761,0.0231190324,0.0223084167,0.0193160325,23.6885509491,56.0738105774,-82.1419143677,0.0763393044,0.0066367388,0.0062867403,
1854.073,-3.1986176968,1.3352746964,-166.8806304932,0.0672481507,0.0474815108,0.0028070211,-116.5861968994,75.3894271851,1.1717973948,0.0384634137,0.0585656166,0.0157170296,-8.4645843506,82.9101943970,-22.9149532318,0.0240921974,0.0203734487,0.0231979340,23.6871757507,56.0730094910,-82.1400985718,0.0807260275,0.0046912730,-0.0005652308,
1854.083,-3.1986696720,1.3350532055,-166.8807525635,0.0628497452,0.0401582047,0.0086663365,-116.5744552612,75.3925018311,1.1876863241,0.0340824127,0.0595183671,0.0210184455,-8.4536781311,82.9104156494,-22.8983516693,0.0187215805,0.0286501572,0.0212448090,23.6892032623,56.0750656128,-82.1361160278,0.0753749609,0.0037085712,0.0004465580,
1854.093,-3.1972467899,1.3348711729,-166.8795013428,0.0564989150,0.0430631079,0.0081766844,-116.5757598877,75.3929443359,1.1900783777,0.0389671922,0.0575559735,0.0112547278,-8.4632253647,82.9142074585,-22.9008502960,0.0148234963,0.0223134607,0.0125240013,23.6892070770,56.0759506226,-82.1343154907,0.0817312002,-0.0006808937,0.0024112463,
1854.103,-3.1993331909,1.3360821009,-166.8790435791,0.0599380098,0.0416345857,0.0042728782,-116.5733489990,75.3933105469,1.1951187849,0.0301797390,0.0609730780,0.0122188926,-8.4759187698,82.9139328003,-22.9076576233,0.0255650878,0.0184352919,0.0203359127,23.6912841797,56.0756149292,-82.1331253052,0.0739154816,0.0071111023,0.0004618168,
1854.113,-3.1989631653,1.3354851007,-166.8771514893,0.0560213476,0.0435812734,0.0111078620,-116.5764846802,75.3982162476,1.1933188438,0.0302013159,0.0647994876,0.0117062926,-8.4635334015,82.9166717529,-22.8902530670,0.0280123949,0.0301205441,0.0179357007,23.6911487579,56.0743751526,-82.1332550049,0.0748799443,0.0056402683,0.0043510199,
1854.123,-3.1965038776,1.3318543434,-166.8782958984,0.0657236204,0.0469564833,0.0023155212,-116.5749816895,75.4007339478,1.1969399452,0.0350952148,0.0564633310,0.0170522928,-8.4734325409,82.9154281616,-22.8920173645,0.0275214314,0.0242856741,0.0257303938,23.6930332184,56.0720939636,-82.1298141479,0.0772991180,0.0041453540,0.0057929754,
1854.133,-3.1953010559,1.3321801424,-166.8771362305,0.0588933676,0.0444941148,0.0047553778,-116.5796585083,75.4015502930,1.1946183443,0.0331456661,0.0593718290,0.0116936564,-8.4822931290,82.9165878296,-22.8938980103,0.0255708098,0.0233253017,0.0179404467,23.6970710754,56.0752716064,-82.1255035400,0.0714707375,0.0011981428,-0.0039144754,
1854.143,-3.1959881783,1.3346480131,-166.8766632080,0.0555184633,0.0401114970,0.0032924414,-116.5816116333,75.4021987915,1.1982446909,0.0326602459,0.0544753969,0.0097432733,-8.4790391922,82.9157333374,-22.8828334808,0.0289869308,0.0194142163,0.0208543688,23.6989135742,56.0742568970,-82.1212615967,0.0743905306,0.0070351660,0.0048682690,
1854.153,-3.1978433132,1.3342739344,-166.8742675781,0.0594181828,0.0401438251,0.0042707920,-116.5850906372,75.4043426514,1.2025102377,0.0326696634,0.0607841313,0.0082761049,-8.4825267792,82.9153137207,-22.8761081696,0.0275211930,0.0199110359,0.0213369653,23.7034397125,56.0764617920,-82.1157150269,0.0724588633,0.0074958205,0.0005205274,
1854.163,-3.1985521317,1.3355562687,-166.8725128174,0.0555343032,0.0421092696,0.0003657341,-116.5770492554,75.4034118652,1.2166076899,0.0360835791,0.0608139634,0.0199699998,-8.4848136902,82.9143447876,-22.8703956604,0.0265425444,0.0296840146,0.0232747346,23.7105159760,56.0757522583,-82.1065521240,0.0885652304,0.0074286163,0.0068868399,
1854.173,-3.1988236904,1.3368628025,-166.8713531494,0.0555571020,0.0435788184,0.0076907873,-116.5748901367,75.3988342285,1.2253305912,0.0336220264,0.0535627902,0.0058358312,-8.4741439819,82.9149780273,-22.8515434265,0.0231259465,0.0277061164,0.0232832283,23.7151145935,56.0775833130,-82.0998840332,0.0729580522,0.0030035973,0.0030222535,
1854.183,-3.1997370720,1.3373750448,-166.8714599609,0.0604488552,0.0392001905,0.0135512352,-116.5695877075,75.3969955444,1.2363176346,0.0321490765,0.0584842265,0.0136413574,-8.4853696823,82.9153442383,-22.8558082581,0.0201970339,0.0218705237,0.0198709965,23.7208156586,56.0801887512,-82.0935440063,0.0724951625,0.0058977008,-0.0018032193,
1854.193,-3.1998989582,1.3393968344,-166.8691253662,0.0556013174,0.0416443683,0.0130639076,-116.5588760376,75.3959426880,1.2505577803,0.0316561460,0.0575444698,0.0194662809,-8.4930543900,82.9176635742,-22.8559665680,0.0270379782,0.0267636999,0.0155213922,23.7238159180,56.0822181702,-82.0882797241,0.0720266700,0.0024646819,-0.0007886291,
1854.203,-3.2000086308,1.3390047550,-166.8666992188,0.0595007241,0.0440876856,0.0047629476,-116.5526199341,75.3958435059,1.2604937553,0.0306791663,0.0619525611,0.0174890757,-8.4939002991,82.9206542969,-22.8492565155,0.0231381655,0.0257814825,0.0170364454,23.7240333557,56.0779685974,-82.0858306885,0.0754032135,0.0058560967,0.0128284097,
1854.213,-3.1999640465,1.3383023739,-166.8661499023,0.0624181591,0.0426220857,0.0062276125,-116.5529479980,75.3928222656,1.2644960880,0.0321307182,0.0556495190,0.0106770396,-8.4971494675,82.9186630249,-22.8432064056,0.0236221552,0.0272583738,0.0272576883,23.7194118500,56.0769271851,-82.0862197876,0.0680688620,-0.0004564226,0.0084017515,
1854.223,-3.1987795830,1.3395479918,-166.8643188477,0.0536508337,0.0465076715,0.0042737722,-116.5593566895,75.3922805786,1.2653203011,0.0321283340,0.0663874447,0.0077768564,-8.5015535355,82.9204940796,-22.8393306732,0.0246026516,0.0218922794,0.0184999183,23.7152709961,56.0760841370,-82.0871276855,0.0778263211,0.0025053322,0.0015385747,
1854.233,-3.1986610889,1.3390434980,-166.8637084961,0.0595014021,0.0450407788,0.0037851930,-116.5534286499,75.3945083618,1.2796713114,0.0423920155,0.0609944761,0.0214084983,-8.5092859268,82.9196853638,-22.8400688171,0.0250892043,0.0228873193,0.0243501291,23.7106208801,56.0705909729,-82.0873489380,0.0738665462,0.0030030906,0.0185374022,
1854.243,-3.1980028152,1.3380349874,-166.8631286621,0.0614369325,0.0425879210,0.0086669922,-116.5545501709,75.3932266235,1.2876312733,0.0350621939,0.0556407273,0.0145867467,-8.5200719833,82.9213562012,-22.8419647217,0.0309521556,0.0214416161,0.0155921206,23.7094650269,56.0696144104,-82.0847244263,0.0733687282,0.0039842725,0.0043596029,
1854.253,-3.1965403557,1.3386059999,-166.8613586426,0.0604703315,0.0474452451,0.0096420050,-116.5474700928,75.3931732178,1.3039642572,0.0238314867,0.0541905165,0.0155355930,-8.5235023499,82.9223480225,-22.8346862793,0.0265597701,0.0229114741,0.0170736536,23.7095775604,56.0683937073,-82.0807418823,0.0772631168,0.0059293807,0.0062975883,
1854.263,-3.1969738007,1.3393125534,-166.8608093262,0.0575529709,0.0430582464,0.0081782341,-116.5468063354,75.3929443359,1.3115372658,0.0292015672,0.0581009984,0.0111401081,-8.5403337479,82.9263992310,-22.8433170319,0.0255919099,0.0219607577,0.0181255043,23.7174510956,56.0703887939,-82.0709304810,0.0709348917,0.0073354542,0.0034244657,
1854.273,-3.1958026886,1.3396263123,-166.8596038818,0.0546287596,0.0401081555,0.0037826896,-116.5498199463,75.3921127319,1.3137451410,0.0321276188,0.0566430688,0.0062756538,-8.5429067612,82.9246826172,-22.8384513855,0.0290061831,0.0268535167,0.0317688063,23.7238960266,56.0717086792,-82.0637588501,0.0743656754,0.0019145608,0.0059089661,
1854.283,-3.1948883533,1.3388596773,-166.8577880859,0.0604747608,0.0435102098,-0.0011013746,-116.5540313721,75.3948287964,1.3142524958,0.0365340710,0.0605002344,0.0150609016,-8.5437364578,82.9265670776,-22.8293628693,0.0280336738,0.0283153802,0.0200821981,23.7312946320,56.0705718994,-82.0563354492,0.0816788673,0.0042833686,0.0098290443,
1854.293,-3.1942486763,1.3415613174,-166.8572692871,0.0527094007,0.0425224379,0.0081765056,-116.5548324585,75.3968048096,1.3176289797,0.0345896482,0.0673045516,0.0096780658,-8.5363140106,82.9282836914,-22.8150329590,0.0304787755,0.0282951295,0.0186432004,23.7398796082,56.0703659058,-82.0491867065,0.0748409033,0.0090883970,0.0088834167,
1854.303,-3.1926348209,1.3410576582,-166.8554077148,0.0556302965,0.0415177792,0.0091512203,-116.5555038452,75.3959121704,1.3235385418,0.0350739956,0.0575520396,0.0072459579,-8.5241975784,82.9298400879,-22.7952232361,0.0231578946,0.0243587121,0.0245259106,23.7477512360,56.0720558167,-82.0389404297,0.0724159479,0.0080514550,0.0006361604,
1854.313,-3.1934723854,1.3435065746,-166.8554687500,0.0512784943,0.0395791829,0.0062234402,-116.5546569824,75.3945388794,1.3292309046,0.0414156318,0.0639207065,0.0072529912,-8.5276288986,82.9281692505,-22.7898235321,0.0255957246,0.0229055956,0.0259626508,23.7491683960,56.0738906860,-82.0348358154,0.0709689856,0.0007252693,0.0040839911,
1854.323,-3.1949448586,1.3428009748,-166.8560638428,0.0556607172,0.0396048538,0.0028066635,-116.5468063354,75.3929824829,1.3422797918,0.0326197147,0.0585893989,0.0135812163,-8.5040388107,82.9277801514,-22.7562103271,0.0304777026,0.0292032212,0.0327859372,23.7502574921,56.0738983154,-82.0313034058,0.0787816048,0.0002272725,0.0011581182,
1854.333,-3.1938629150,1.3423950672,-166.8554687500,0.0590716042,0.0420274250,0.0013405085,-116.5431976318,75.3920135498,1.3531213999,0.0282208920,0.0586105585,0.0082032681,-8.5127840042,82.9274291992,-22.7569255829,0.0241292715,0.0272699594,0.0235044882,23.7505207062,56.0739898682,-82.0285720825,0.0758527517,0.0016903579,0.0060436130,
1854.343,-3.1922535896,1.3408938646,-166.8542327881,0.0609985366,0.0459056683,0.0047563314,-116.5523910522,75.3907623291,1.3496594429,0.0350513458,0.0581230819,0.0058075786,-8.5145397186,82.9290313721,-22.7516822815,0.0255975723,0.0223869905,0.0318320543,23.7480468750,56.0708847046,-82.0279846191,0.0738694072,0.0056005418,0.0113637447,
1854.353,-3.1915693283,1.3394130468,-166.8524017334,0.0609726980,0.0405226871,0.0028019547,-116.5584945679,75.3912277222,1.3485124111,0.0321236849,0.0556626022,0.0077814460,-8.5311470032,82.9304275513,-22.7606716156,0.0270653963,0.0204660520,0.0206309929,23.7467632294,56.0707435608,-82.0272064209,0.0753328800,-0.0017129779,0.0064742565,
1854.363,-3.1920435429,1.3383721113,-166.8518066406,0.0594896860,0.0385778435,0.0111023784,-116.5644836426,75.3925247192,1.3478804827,0.0331059694,0.0561193228,0.0117014647,-8.5506086349,82.9318084717,-22.7718601227,0.0207207203,0.0195278376,0.0172430128,23.7480411530,56.0688247681,-82.0228576660,0.0811735392,0.0090065598,0.0010825992,
1854.373,-3.1926097870,1.3377219439,-166.8506317139,0.0599666275,0.0405408479,-0.0006157756,-116.5701599121,75.3925018311,1.3477115631,0.0316410065,0.0556212366,0.0097711682,-8.5695466995,82.9333648682,-22.7819271088,0.0256068707,0.0200530738,0.0162979513,23.7533168793,56.0684318542,-82.0173416138,0.0762869120,0.0055392385,0.0025628805,
1854.383,-3.1923894882,1.3393173218,-166.8477478027,0.0614593066,0.0429783799,0.0111033320,-116.5748748779,75.3941268921,1.3481730223,0.0321364403,0.0629106462,0.0088008046,-8.5811977386,82.9322280884,-22.7853622437,0.0285341144,0.0215458721,0.0250716433,23.7545051575,56.0671310425,-82.0132827759,0.0728562474,0.0025914013,0.0020621419,
1854.393,-3.1932218075,1.3399709463,-166.8465881348,0.0580527447,0.0415280312,0.0140340924,-116.5765686035,75.3959884644,1.3524692059,0.0365391970,0.0604389906,0.0166060925,-8.5808115005,82.9343032837,-22.7754497528,0.0236557722,0.0225162655,0.0221773461,23.7543354034,56.0640182495,-82.0095748901,0.0791735649,0.0030630529,0.0098326802,
1854.403,-3.1904933453,1.3389312029,-166.8453674316,0.0638939738,0.0497812927,0.0106131434,-116.5774688721,75.3953399658,1.3587466478,0.0340949297,0.0521445870,0.0122199059,-8.5749473572,82.9361114502,-22.7607784271,0.0314721465,0.0264053419,0.0202525035,23.7511482239,56.0625495911,-82.0089187622,0.0786709785,0.0065009296,0.0068711638,
1854.413,-3.1914780140,1.3375183344,-166.8442382813,0.0648458898,0.0390563011,0.0018245578,-116.5890808105,75.3958053589,1.3544137478,0.0326321125,0.0526040494,0.0073795915,-8.5737485886,82.9345550537,-22.7507781982,0.0236563087,0.0249418244,0.0280387551,23.7505054474,56.0621795654,-82.0057525635,0.0815970898,0.0040630996,0.0034458041,
1854.423,-3.1924867630,1.3368816376,-166.8443145752,0.0619050898,0.0390738882,0.0018249154,-116.5918579102,75.3951492310,1.3578128815,0.0340940952,0.0550497770,0.0098369718,-8.5630140305,82.9346923828,-22.7317695618,0.0182855129,0.0254066363,0.0216900036,23.7498683929,56.0634040833,-82.0017700195,0.0703785419,0.0040758550,0.0044360161,
1854.433,-3.1936244965,1.3356300592,-166.8431243896,0.0623715334,0.0405585766,0.0076851845,-116.5958557129,75.3955154419,1.3583952188,0.0321425796,0.0589422286,0.0069201589,-8.5546665192,82.9356460571,-22.7156887054,0.0187758207,0.0224566162,0.0251210034,23.7478809357,56.0626945496,-82.0005798340,0.0767192841,-0.0003051162,0.0073480010,
1854.443,-3.1906468868,1.3361011744,-166.8413391113,0.0584734976,0.0463660657,0.0037758350,-116.5958175659,75.3979721069,1.3610218763,0.0292236805,0.0554874539,0.0176438689,-8.5345201492,82.9383087158,-22.6879081726,0.0217112303,0.0282657817,0.0173476934,23.7533931732,56.0659408569,-81.9917755127,0.0723564029,0.0074771941,-0.0013758540,
1854.453,-3.1891324520,1.3371530771,-166.8414306641,0.0604449809,0.0478045084,0.0062168837,-116.5910186768,75.3980484009,1.3686065674,0.0331302881,0.0574495196,0.0098117590,-8.5395174026,82.9368057251,-22.6841506958,0.0256142616,0.0243743137,0.0275759846,23.7541427612,56.0696258545,-81.9873809814,0.0728805661,0.0001677275,-0.0018125772,
1854.463,-3.1902873516,1.3363164663,-166.8402404785,0.0609186664,0.0405004248,0.0076820254,-116.5950088501,75.3980484009,1.3680692911,0.0360599756,0.0569523871,0.0122689605,-8.5247087479,82.9373321533,-22.6623210907,0.0241505504,0.0267823562,0.0236751810,23.7581100464,56.0700149536,-81.9823913574,0.0733726025,0.0064822435,-0.0003272295,
1854.473,-3.1909658909,1.3335626125,-166.8371582031,0.0638003051,0.0419771448,0.0101232529,-116.5936737061,75.3997344971,1.3734225035,0.0302079916,0.0583954453,0.0185984969,-8.5059280396,82.9341430664,-22.6353797913,0.0236554146,0.0291913897,0.0304512605,23.7598094940,56.0706787109,-81.9787445068,0.0758205056,0.0074475706,0.0006650090,
1854.483,-3.1929605007,1.3326309919,-166.8371887207,0.0608543567,0.0420119166,0.0032888651,-116.5968017578,75.3988647461,1.3760007620,0.0321573019,0.0627962053,0.0108050108,-8.4988842010,82.9342498779,-22.6200408936,0.0221908092,0.0238048956,0.0231263489,23.7613162994,56.0684471130,-81.9753952026,0.0797049999,0.0054680109,0.0040596724,
1854.493,-3.1930096149,1.3318265676,-166.8360137939,0.0608403236,0.0400596708,0.0086596608,-116.5930175781,75.3975219727,1.3840456009,0.0316631198,0.0569644272,0.0142181516,-8.4901399612,82.9326171875,-22.6038436890,0.0221872926,0.0296495259,0.0289555937,23.7599735260,56.0654067993,-81.9728088379,0.0733277202,0.0074152946,0.0147556663,
1854.503,-3.1913075447,1.3310877085,-166.8366546631,0.0622922704,0.0463776886,0.0057278872,-116.5932769775,75.3968048096,1.3875454664,0.0287302732,0.0579514802,0.0112949014,-8.4941349030,82.9303359985,-22.6009826660,0.0260886550,0.0257576331,0.0318479463,23.7592239380,56.0689582825,-81.9702148438,0.0758037567,-0.0018345416,-0.0066840053,
1854.513,-3.1937277317,1.3300393820,-166.8354644775,0.0593442954,0.0361659713,0.0028000474,-116.5921401978,75.3945236206,1.3911929131,0.0345796347,0.0584761202,0.0117957592,-8.5009069443,82.9319763184,-22.6002483368,0.0260921717,0.0267446190,0.0143000185,23.7616214752,56.0702476501,-81.9665451050,0.0680038333,0.0040108562,0.0011543632,
1854.523,-3.1910903454,1.3302810192,-166.8336944580,0.0613016374,0.0473504849,0.0008444786,-116.5989990234,75.3923873901,1.3882112503,0.0355467796,0.0594714880,0.0069563389,-8.4933776855,82.9308319092,-22.5864028931,0.0280428529,0.0267313123,0.0284382626,23.7685222626,56.0718231201,-81.9588012695,0.0826675892,0.0024937093,-0.0012386441,
1854.533,-3.1896278858,1.3298346996,-166.8330535889,0.0573875979,0.0453718938,0.0106086135,-116.5950622559,75.3932571411,1.3953289986,0.0316443443,0.0619077086,0.0147466063,-8.4906148911,82.9319992065,-22.5784473419,0.0202328563,0.0233045518,0.0216201842,23.7756347656,56.0747337341,-81.9520797729,0.0753717422,0.0029355586,0.0022457838,
1854.543,-3.1881201267,1.3302999735,-166.8319854736,0.0622785315,0.0414393656,-0.0055059195,-116.5926055908,75.3957214355,1.4013922215,0.0360497236,0.0574812591,0.0147184134,-8.4792127609,82.9311141968,-22.5612354279,0.0251137614,0.0262117237,0.0216031522,23.7816486359,56.0751266479,-81.9456558228,0.0758638382,0.0111849606,0.0066691041,
1854.553,-3.1891813278,1.3341033459,-166.8315582275,0.0555089563,0.0429226160,0.0154923797,-116.6045303345,75.4043655396,1.3909320831,0.0385291576,0.0622104406,0.0137238503,-8.4618110657,82.9275588989,-22.5387001038,0.0241295695,0.0271597058,0.0313034058,23.7792263031,56.0756530762,-81.9471130371,0.0753806829,-0.0000208914,0.0086196065,
1854.563,-3.1880850792,1.3336230516,-166.8303985596,0.0618482344,0.0419269577,0.0086558461,-116.6220321655,75.4172744751,1.3728723526,0.0332148075,0.0605163872,0.0117425919,-8.4435138702,82.9245986938,-22.5134353638,0.0236349106,0.0285925642,0.0253879800,23.7722225189,56.0731277466,-81.9523086548,0.0758443475,0.0019800663,0.0080705881,
1854.573,-3.1880338192,1.3329230547,-166.8292236328,0.0603711754,0.0404612422,0.0057253242,-116.6648559570,75.4329605103,1.3295564651,0.0352368355,0.0684966147,0.0030039549,-8.4374942780,82.9224853516,-22.5014839172,0.0250952244,0.0212606564,0.0214440599,23.7770442963,56.0747985840,-81.9457397461,0.0773254633,0.0136654973,-0.0040955544,
1854.583,-3.1863715649,1.3327142000,-166.8292388916,0.0584144071,0.0418971367,0.0057238340,-116.6999511719,75.4535064697,1.2960259914,0.0289793015,0.0656771660,0.0215415955,-8.4072599411,82.9201049805,-22.4660568237,0.0226486921,0.0290138721,0.0262770802,23.7775650024,56.0758705139,-81.9416351318,0.0719648600,0.0112257600,-0.0035908818,
1854.593,-3.1858272552,1.3311755657,-166.8286590576,0.0627820864,0.0423759595,-0.0045312643,-116.7501220703,75.4729614258,1.2530181408,0.0344356298,0.0628441572,0.0132908225,-8.3735713959,82.9195480347,-22.4227886200,0.0265537500,0.0289426595,0.0160023421,23.7811470032,56.0791778564,-81.9352493286,0.0744384527,0.0092599392,0.0018376708,
1854.603,-3.1854991913,1.3281497955,-166.8280181885,0.0661472604,0.0457882844,0.0032797456,-116.7975234985,75.4930801392,1.2163367271,0.0286642909,0.0634247065,0.0186953545,-8.3312349319,82.9184417725,-22.3713626862,0.0255748034,0.0259242877,0.0267128572,23.7862796783,56.0827026367,-81.9265060425,0.0778907537,0.0053284168,-0.0010253191,
1854.613,-3.1864631176,1.3276557922,-166.8274536133,0.0617441088,0.0433636829,0.0076749325,-116.8467330933,75.5046615601,1.1811741590,0.0384805202,0.0533879101,0.0100111365,-8.2821083069,82.9172821045,-22.3090248108,0.0236191750,0.0326569527,0.0257018432,23.7925434113,56.0847816467,-81.9164352417,0.0764461756,0.0057731569,-0.0009724498,
1854.623,-3.1872708797,1.3269263506,-166.8262786865,0.0607548207,0.0394715220,0.0135349035,-116.8782196045,75.5178756714,1.1660882235,0.0302374363,0.0531274378,0.0207762122,-8.2804498672,82.9181900024,-22.2966213226,0.0353398919,0.0228856057,0.0183914304,23.7943210602,56.0885658264,-81.9102020264,0.0691587925,-0.0000799596,-0.0038450956,
1854.633,-3.1879999638,1.3271373510,-166.8257141113,0.0592936575,0.0463201553,0.0081645846,-116.8889312744,75.5275192261,1.1710093021,0.0302795172,0.0514960289,0.0139086843,-8.2553873062,82.9186630249,-22.2601966858,0.0285049677,0.0286895782,0.0198577642,23.7978096008,56.0881233215,-81.9025192261,0.0759904385,0.0052573681,0.0010449886,
1854.643,-3.1887257099,1.3314485550,-166.8246459961,0.0491149761,0.0399850458,-0.0006222129,-116.8717041016,75.5349044800,1.1980551481,0.0342179537,0.0450717509,0.0172032118,-8.2476167679,82.9228210449,-22.2415237427,0.0250959396,0.0208501890,0.0135772452,23.7942657471,56.0892410278,-81.9020004272,0.0677005053,0.0052954257,0.0073935390,
1854.653,-3.1897838116,1.3322663307,-166.8240966797,0.0569417477,0.0409800261,0.0013324618,-116.8219223022,75.5372238159,1.2502467632,0.0322749615,0.0426940322,0.0116198659,-8.2514114380,82.9260406494,-22.2358322144,0.0241262913,0.0232919827,0.0160735995,23.7946472168,56.0898895264,-81.8983840942,0.0760076046,0.0048075914,-0.0043147206,
1854.663,-3.1912415028,1.3318153620,-166.8229217529,0.0574221611,0.0351460539,0.0076813698,-116.7432250977,75.5406875610,1.3261520863,0.0249658227,0.0442610979,0.0098209977,-8.2475948334,82.9255981445,-22.2245388031,0.0216839314,0.0281676129,0.0268073604,23.7900447845,56.0936965942,-81.8984146118,0.0701853037,0.0014528930,-0.0013526678,
1854.673,-3.1909615993,1.3322564363,-166.8217468262,0.0584064163,0.0434419475,0.0023099780,-116.6425247192,75.5441436768,1.4196351767,0.0264457464,0.0439192951,0.0128188729,-8.2627878189,82.9247894287,-22.2336330414,0.0260767341,0.0277140886,0.0282631367,23.7907123566,56.0941238403,-81.8947372437,0.0765371323,0.0029142797,0.0059798360,
1854.683,-3.1898267269,1.3341932297,-166.8206024170,0.0555105247,0.0463518240,0.0081691146,-116.5429077148,75.5455703735,1.5106157064,0.0264519453,0.0558110476,0.0099769235,-8.2883167267,82.9252090454,-22.2524604797,0.0221713781,0.0263033360,0.0263247490,23.7886276245,56.0923500061,-81.8939132690,0.0755433440,-0.0039134622,0.0049712062,
1854.693,-3.1889195442,1.3320764303,-166.8187561035,0.0632860884,0.0434063785,0.0052378178,-116.4391174316,75.5436553955,1.6048753262,0.0381623507,0.0550651848,0.0066548586,-8.3178777695,82.9301986694,-22.2778148651,0.0241352320,0.0278195739,0.0122585073,23.7907466888,56.0917625427,-81.8899917603,0.0735844374,-0.0014943182,0.0039956570,
1854.703,-3.1893320084,1.3311128616,-166.8181762695,0.0613161474,0.0409721769,0.0096322894,-116.3232269287,75.5399856567,1.7107034922,0.0366815329,0.0533928871,0.0106222630,-8.3516120911,82.9276199341,-22.3080615997,0.0280359387,0.0283868611,0.0302928686,23.7836265564,56.0878829956,-81.8942413330,0.0789177418,-0.0019418895,0.0127046704,
1854.713,-3.1898047924,1.3297880888,-166.8170013428,0.0627578795,0.0385390334,0.0110970140,-116.2059249878,75.5371704102,1.8176400661,0.0361809731,0.0600091517,0.0087177157,-8.4039554596,82.9260406494,-22.3561229706,0.0236380100,0.0192264169,0.0268637016,23.7826290131,56.0902404785,-81.8955917358,0.0784524083,-0.0014308989,-0.0053339601,
1854.723,-3.1872794628,1.3324506283,-166.8171234131,0.0549918339,0.0448426344,0.0120721459,-116.0915069580,75.5391540527,1.9217379093,0.0337482095,0.0626415312,0.0092298388,-8.4220676422,82.9239044189,-22.3711872101,0.0304693580,0.0265949667,0.0273221135,23.7858066559,56.0903167725,-81.8918991089,0.0843125582,0.0083068907,-0.0004374981,
1854.733,-3.1861078739,1.3320069313,-166.8164825439,0.0574254990,0.0443339609,0.0120708942,-115.9637680054,75.5435943604,2.0325720310,0.0366972685,0.0662376285,0.0121125579,-8.4339056015,82.9239578247,-22.3827400208,0.0250983834,0.0207609981,0.0190260112,23.7839946747,56.0912628174,-81.8920516968,0.0755326748,0.0044222474,0.0083563328,
1854.743,-3.1874833107,1.3313039541,-166.8146820068,0.0603429228,0.0419165269,0.0013294220,-115.8057403564,75.5590133667,2.1698403358,0.0318815708,0.0706988275,0.0294434428,-8.4490566254,82.9266738892,-22.3960628510,0.0270573497,0.0276227668,0.0181002468,23.7881259918,56.0935020447,-81.8874511719,0.0755544901,0.0068399906,0.0015673041,
1854.753,-3.1882276535,1.3300267458,-166.8140716553,0.0603206381,0.0419295207,0.0110955834,-115.6472930908,75.5761489868,2.3074250221,0.0353741050,0.0682979822,0.0218583941,-8.4608230591,82.9255981445,-22.4034538269,0.0231487751,0.0261860639,0.0234565660,23.7959346771,56.0960540771,-81.8792724609,0.0824152827,0.0116679370,-0.0047172904,
1854.763,-3.1905250549,1.3305338621,-166.8141326904,0.0578880832,0.0409929752,0.0008441806,-115.4721298218,75.5977325439,2.4652686119,0.0291202068,0.0697641373,0.0244298577,-8.4565496445,82.9235153198,-22.3925113678,0.0231443048,0.0335062370,0.0278150439,23.7997570038,56.0987663269,-81.8740005493,0.0643752813,0.0082319081,-0.0007589459,
1854.773,-3.1920244694,1.3332074881,-166.8142852783,0.0545167625,0.0395541973,-0.0020830035,-115.2918090820,75.6238174438,2.6325387955,0.0336278677,0.0711673200,0.0196253657,-8.4713039398,82.9215469360,-22.3973731995,0.0294877291,0.0247538239,0.0316935331,23.7994575500,56.0972251892,-81.8684768677,0.0672899485,0.0101786256,0.0055664778,
1854.783,-3.1940627098,1.3324235678,-166.8131408691,0.0628038645,0.0395897254,0.0057311654,-115.1056747437,75.6500167847,2.8112132549,0.0312998891,0.0652537048,0.0216345191,-8.5162334442,82.9185791016,-22.4301090240,0.0255751014,0.0229053497,0.0301911980,23.8013343811,56.0979995728,-81.8594131470,0.0765748620,0.0057719946,-0.0027160048,
1854.793,-3.1951932907,1.3318061829,-166.8113861084,0.0623048097,0.0405859947,0.0047554970,-114.9179000854,75.6746063232,2.9960539341,0.0338475704,0.0637569427,0.0094899535,-8.5424919128,82.9213562012,-22.4448127747,0.0211865306,0.0293023884,0.0204827338,23.8036346436,56.0965881348,-81.8505325317,0.0780259371,0.0062314272,-0.0002849102,
1854.803,-3.1952643394,1.3322840929,-166.8102722168,0.0608483069,0.0420520604,0.0145212412,-114.7185668945,75.6994476318,3.1952211857,0.0373727083,0.0647162497,0.0124360323,-8.5688629150,82.9217147827,-22.4564094543,0.0314412117,0.0230109021,0.0278198868,23.8035812378,56.0951004028,-81.8435897827,0.0765466094,0.0003638864,0.0050668120,
1854.813,-3.1943998337,1.3299933672,-166.8090362549,0.0637380257,0.0454550236,0.0042657256,-114.5094146729,75.7243194580,3.4050557613,0.0408978462,0.0647111535,0.0124151707,-8.6080875397,82.9236526489,-22.4808769226,0.0270508528,0.0226021856,0.0220065117,23.8112735748,56.0968132019,-81.8291854858,0.0746101737,0.0037232935,0.0002363324,
1854.823,-3.1921460629,1.3300945759,-166.8078002930,0.0578804165,0.0459040478,0.0150057673,-114.2782897949,75.7494125366,3.6355118752,0.0375877619,0.0627838373,0.0132842064,-8.6418056488,82.9248428345,-22.5011959076,0.0304713845,0.0260896683,0.0283860937,23.8175315857,56.1011924744,-81.8149490356,0.0702582598,0.0027165413,-0.0016341209,
1854.833,-3.1926763058,1.3296844959,-166.8066864014,0.0637326315,0.0405421928,0.0081701875,-114.0318527222,75.7803573608,3.8807249069,0.0347908735,0.0637185276,0.0111246705,-8.6683645248,82.9266738892,-22.5141639709,0.0246159434,0.0232125893,0.0215890408,23.8220767975,56.1038169861,-81.8042907715,0.0737017393,-0.0026797354,0.0033013225,
1854.843,-3.1920721531,1.3296310902,-166.8067169189,0.0578723252,0.0424847938,0.0057281852,-113.7590713501,75.8119506836,4.1481060982,0.0412738323,0.0627295077,0.0103240013,-8.6891460419,82.9274826050,-22.5243434906,0.0275473595,0.0217903852,0.0245396942,23.8276882172,56.1040802002,-81.7937774658,0.0722394586,0.0060609579,0.0057687163,
1854.853,-3.1927816868,1.3314436674,-166.8055725098,0.0535094254,0.0400557071,-0.0015947819,-113.4725646973,75.8478546143,4.4277992249,0.0365444422,0.0641319454,0.0099310279,-8.7221021652,82.9264831543,-22.5467567444,0.0275452137,0.0199108422,0.0299045742,23.8260421753,56.1081352234,-81.7897796631,0.0747203827,-0.0041546226,0.0009326339,
1854.863,-3.1922719479,1.3319549561,-166.8019866943,0.0588894375,0.0439530686,0.0096350908,-113.1475448608,75.8881072998,4.7450704575,0.0391573906,0.0611288249,0.0210796595,-8.7437925339,82.9288406372,-22.5591907501,0.0207143426,0.0258109570,0.0162786171,23.8245792389,56.1128425598,-81.7869186401,0.0762310028,-0.0006961226,0.0009892583,
1854.873,-3.1935539246,1.3311547041,-166.8020172119,0.0603403188,0.0381160378,0.0018238425,-112.8008651733,75.9281692505,5.0848956108,0.0290737152,0.0576657355,0.0155467987,-8.7752704620,82.9280319214,-22.5815505981,0.0177829266,0.0263691321,0.0265292227,23.8269443512,56.1171760559,-81.7790985107,0.0709021091,0.0066324770,0.0039861202,
1854.883,-3.1928660870,1.3300610781,-166.8007659912,0.0598329529,0.0468931459,0.0120767951,-112.4197845459,75.9696884155,5.4579248428,0.0307145119,0.0542241931,0.0191507936,-8.7948093414,82.9294738770,-22.5926704407,0.0221805573,0.0322666243,0.0187490731,23.8317909241,56.1220703125,-81.7697143555,0.0670434833,0.0075944662,-0.0017898083,
1854.893,-3.1936817169,1.3292343616,-166.7996063232,0.0607950948,0.0395831540,0.0052412152,-112.0077514648,76.0075836182,5.8608741760,0.0240386724,0.0518501997,0.0172895193,-8.8353977203,82.9335021973,-22.6249904633,0.0226774812,0.0308788493,0.0198051035,23.8344020844,56.1233901978,-81.7616043091,0.0743805766,0.0061141551,0.0026329160,
1854.903,-3.1945040226,1.3299510479,-166.7972259521,0.0578779131,0.0415505953,0.0081719160,-111.5517883301,76.0410766602,6.3050994873,0.0324806571,0.0466685593,0.0182159543,-8.9076423645,82.9384994507,-22.6883563995,0.0226882100,0.0246732533,0.0223561600,23.8405284882,56.1231765747,-81.7511291504,0.0729135871,0.0016637444,-0.0027175546,
1854.913,-3.1937832832,1.3306323290,-166.7954101563,0.0554483905,0.0449559912,-0.0011057854,-111.0673904419,76.0704803467,6.7726397514,0.0326043367,0.0489015877,0.0136870146,-8.9934129715,82.9423065186,-22.7655162811,0.0231846571,0.0287536979,0.0234258920,23.8486919403,56.1236801147,-81.7391815186,0.0690122843,0.0020824075,0.0031815767,
1854.923,-3.1936583519,1.3304865360,-166.7953948975,0.0559341274,0.0430006906,0.0018236041,-110.5483703613,76.0962753296,7.2711534500,0.0356422663,0.0492713153,0.0183217525,-9.1060686111,82.9463653564,-22.8685569763,0.0280761719,0.0284964591,0.0264618769,23.8624515533,56.1228752136,-81.7210159302,0.0724223852,0.0039081872,0.0027354956,
1854.933,-3.1925268173,1.3324654102,-166.7936553955,0.0554803759,0.0420043655,0.0081710815,-110.0096282959,76.1246643066,7.7880039215,0.0396674871,0.0593713522,0.0126101375,-9.2371778488,82.9493408203,-22.9891967773,0.0285708308,0.0185157359,0.0265572220,23.8728694916,56.1186981201,-81.7061767578,0.0738466382,0.0018379986,0.0046754479,
1854.943,-3.1935482025,1.3299369812,-166.7930908203,0.0666667297,0.0410456546,0.0062179565,-109.4529266357,76.1551513672,8.3156585693,0.0461425781,0.0684637725,0.0087698698,-9.3552875519,82.9497299194,-23.0993843079,0.0305247903,0.0236506239,0.0290472582,23.8874244690,56.1180953979,-81.6919250488,0.0772587061,0.0085406899,-0.0099250078,
1854.953,-3.1939597130,1.3280988932,-166.7925109863,0.0641932487,0.0410528742,0.0047526360,-108.8659744263,76.1938247681,8.8635787964,0.0506983995,0.0676761866,0.0101382136,-9.4408931732,82.9480361938,-23.1761245728,0.0271031857,0.0218857154,0.0241661966,23.8903369904,56.1165504456,-81.6845321655,0.0767554045,0.0011816025,0.0047154427,
1854.963,-3.1941528320,1.3257565498,-166.7912902832,0.0636640936,0.0439859740,-0.0020839572,-108.2666168213,76.2414703369,9.4202795029,0.0499199629,0.0784500539,0.0148323774,-9.4950580597,82.9467544556,-23.2238044739,0.0290535688,0.0259116963,0.0266051218,23.8939018250,56.1151390076,-81.6750259399,0.0835776329,0.0104189515,-0.0021250248,
1854.973,-3.1944963932,1.3233593702,-166.7918395996,0.0616691411,0.0435037389,0.0057279468,-107.6759719849,76.2909545898,9.9726829529,0.0462187529,0.0735292733,0.0073524117,-9.5291757584,82.9475326538,-23.2511405945,0.0261255503,0.0230528042,0.0193071291,23.8921413422,56.1185531616,-81.6704559326,0.0806810856,-0.0012642741,-0.0011115074,
1854.983,-3.1958706379,1.3253097534,-166.7901611328,0.0597500503,0.0440159142,0.0047535300,-107.1014328003,76.3438415527,10.5135707855,0.0410659909,0.0709459782,0.0038341284,-9.5878849030,82.9522933960,-23.3007888794,0.0241826177,0.0221886262,0.0218490735,23.8964366913,56.1220817566,-81.6595382690,0.0763209462,0.0050660074,0.0004182458,
1854.993,-3.1957807541,1.3270958662,-166.7885284424,0.0602694973,0.0405963324,0.0032891631,-106.5512084961,76.4008560181,11.0324869156,0.0398356318,0.0755627751,0.0033319592,-9.6356315613,82.9535446167,-23.3382053375,0.0276032686,0.0232640356,0.0213977769,23.9080295563,56.1250801086,-81.6433410645,0.0700024366,0.0113280416,-0.0004730821,
1855.003,-3.1963453293,1.3280255795,-166.7879638672,0.0568677522,0.0425592773,0.0111026764,-106.0175476074,76.4566116333,11.5360708237,0.0439702272,0.0762481093,0.0029125810,-9.6734943390,82.9554367065,-23.3645286560,0.0241893530,0.0262692198,0.0243740529,23.9142322540,56.1285438538,-81.6310348511,0.0724775791,-0.0004255176,0.0044801235,
1855.013,-3.1964564323,1.3284645081,-166.7868804932,0.0627347827,0.0420729183,0.0037788153,-105.5124969482,76.5075912476,12.0172700882,0.0441781878,0.0657261610,0.0041037202,-9.7160224915,82.9559097290,-23.3933105469,0.0251669288,0.0307533965,0.0331864804,23.9214839935,56.1313934326,-81.6174850464,0.0710403919,-0.0014498234,0.0016170740,
1855.023,-3.1958951950,1.3268028498,-166.7862548828,0.0612409487,0.0445045903,-0.0006173253,-105.0367431641,76.5518188477,12.4744167328,0.0467994213,0.0635623932,-0.0052925944,-9.7872629166,82.9581146240,-23.4520893097,0.0256599188,0.0274815410,0.0210419446,23.9310569763,56.1323814392,-81.6020812988,0.0715382695,0.0004238188,0.0041085482,
1855.033,-3.1967544556,1.3283094168,-166.7851409912,0.0568727031,0.0415898301,0.0037788749,-104.5862960815,76.5930252075,12.9076700211,0.0474547148,0.0560315847,-0.0048030019,-9.8911848068,82.9612884521,-23.5412044525,0.0183424950,0.0237882435,0.0250395834,23.9406089783,56.1303977966,-81.5861587524,0.0759135485,0.0047218502,0.0016791821,
1855.043,-3.1971108913,1.3277947903,-166.7821960449,0.0641879439,0.0411077701,0.0013377070,-104.1569824219,76.6309585571,13.3158998489,0.0529791117,0.0602366626,-0.0110460520,-9.9820222855,82.9641876221,-23.6200351715,0.0183486938,0.0195791051,0.0221933648,23.9421501160,56.1261329651,-81.5775985718,0.0817314386,0.0017533004,0.0055344701,
1855.053,-3.1952626705,1.3281419277,-166.7810821533,0.0607760288,0.0425404087,-0.0001287460,-103.7268142700,76.6655960083,13.7235555649,0.0526304245,0.0566677153,0.0051883459,-10.0415735245,82.9641036987,-23.6674613953,0.0295789838,0.0226360634,0.0222151503,23.9468097687,56.1243553162,-81.5656890869,0.0817141533,0.0065842867,-0.0066772699,
1855.063,-3.1942746639,1.3296148777,-166.7811431885,0.0568954833,0.0459411331,0.0081716776,-103.3014297485,76.7003860474,14.1239805222,0.0635124445,0.0667504668,0.0053325891,-10.1006870270,82.9632110596,-23.7156562805,0.0344598889,0.0217885450,0.0202682018,23.9451141357,56.1249237061,-81.5613861084,0.0768368840,-0.0036511719,-0.0027700067,
1855.073,-3.1957821846,1.3310959339,-166.7795257568,0.0613158531,0.0371782966,0.0028025508,-102.8717041016,76.7358474731,14.5245914459,0.0631663799,0.0636261702,0.0088813305,-10.1186590195,82.9622039795,-23.7231578827,0.0281100869,0.0262242779,0.0241658092,23.9455966949,56.1280174255,-81.5560226440,0.0719841719,0.0007572174,-0.0022393465,
1855.083,-3.1971843243,1.3323243856,-166.7783966064,0.0559661947,0.0352495760,0.0120817423,-102.4393386841,76.7703933716,14.9229497910,0.0574451685,0.0663655698,0.0090104938,-10.1401748657,82.9608383179,-23.7349281311,0.0305485725,0.0262745395,0.0314735472,23.9481163025,56.1332130432,-81.5500946045,0.0720347166,0.0056481957,-0.0055781603,
1855.093,-3.1964511871,1.3318357468,-166.7747955322,0.0598639213,0.0406079106,-0.0011028051,-102.0389480591,76.8012619019,15.2923297882,0.0512206554,0.0647295415,-0.0043880343,-10.1419696808,82.9619598389,-23.7280101776,0.0251798630,0.0272512957,0.0227059722,23.9463920593,56.1346244812,-81.5483398438,0.0730249882,0.0032304227,0.0090822577,
1855.103,-3.1943356991,1.3313970566,-166.7730102539,0.0618093908,0.0454538725,0.0081722736,-101.6159439087,76.8319854736,15.6813364029,0.0464601517,0.0567522645,0.0070328712,-10.1443605423,82.9593887329,-23.7216835022,0.0237095356,0.0248226598,0.0334060937,23.9458084106,56.1377220154,-81.5458221436,0.0706136823,0.0027654767,0.0013077855,
1855.113,-3.1949868202,1.3294186592,-166.7723999023,0.0647045597,0.0444886982,0.0052424073,-101.2038497925,76.8647994995,16.0582656860,0.0470787287,0.0633688271,0.0043338537,-10.1629314423,82.9599227905,-23.7309932709,0.0227341056,0.0263256505,0.0158434808,23.9454193115,56.1388778687,-81.5417480469,0.0730663538,0.0008227229,0.0027874112,
1855.123,-3.1937282085,1.3295823336,-166.7712097168,0.0573831946,0.0425136462,0.0067063570,-100.7823257446,76.8931121826,16.4437103271,0.0476791859,0.0666335523,0.0089426637,-10.1924753189,82.9579162598,-23.7489414215,0.0227298141,0.0254184455,0.0280265883,23.9438838959,56.1386222839,-81.5376968384,0.0701341629,0.0018112957,0.0052181482,
1855.133,-3.1947777271,1.3304753304,-166.7701110840,0.0593518987,0.0386256538,0.0135432482,-100.3428497314,76.9210433960,16.8477630615,0.0477896333,0.0586759150,0.0154395700,-10.2446660995,82.9588394165,-23.7921199799,0.0237083435,0.0250386521,0.0241571069,23.9425926208,56.1376075745,-81.5316925049,0.0735422969,0.0008403957,0.0037358403,
1855.143,-3.1954610348,1.3320493698,-166.7684783936,0.0608442090,0.0401023775,-0.0011032820,-99.9047775269,76.9453506470,17.2459373474,0.0493503809,0.0610149205,0.0121924281,-10.2867898941,82.9611206055,-23.8245773315,0.0198069811,0.0260983929,0.0193275288,23.9454364777,56.1379699707,-81.5233459473,0.0750106573,0.0032584369,0.0057035685,
1855.153,-3.1979541779,1.3338615894,-166.7668304443,0.0579461418,0.0337981135,0.0003642440,-99.4344863892,76.9679260254,17.6737136841,0.0489510298,0.0638800263,0.0200579762,-10.3572502136,82.9626541138,-23.8855113983,0.0237165093,0.0242907330,0.0227999091,23.9558010101,56.1395988464,-81.5081710815,0.0760030746,0.0070822835,0.0038140416,
1855.163,-3.1989054680,1.3323388100,-166.7656097412,0.0613375455,0.0411389358,0.0120834708,-98.9532775879,76.9895706177,18.1127738953,0.0524541140,0.0652845502,0.0068915486,-10.4233074188,82.9634094238,-23.9419021606,0.0286009312,0.0214996412,0.0189319700,23.9647789001,56.1422004700,-81.4946365356,0.0779814720,0.0040880442,-0.0019755363,
1855.173,-3.1975307465,1.3349055052,-166.7644958496,0.0555229522,0.0450211763,0.0106183887,-98.4081649780,77.0159301758,18.6151561737,0.0549989939,0.0729776025,0.0227647424,-10.4572362900,82.9642410278,-23.9680233002,0.0256730318,0.0279170796,0.0214006007,23.9755172729,56.1454925537,-81.4813690186,0.0760603547,0.0079182088,0.0044581890,
1855.183,-3.1986374855,1.3357447386,-166.7639312744,0.0550493151,0.0406459048,0.0115963817,-97.8451843262,77.0386886597,19.1344661713,0.0545998812,0.0650950670,0.0141678452,-10.5004854202,82.9623184204,-24.0022830963,0.0256689191,0.0270387381,0.0257796273,23.9867401123,56.1468238831,-81.4662475586,0.0731436014,0.0107559860,-0.0003627539,
1855.193,-3.2003562450,1.3372093439,-166.7640228271,0.0545865856,0.0387226939,0.0018330216,-97.2582550049,77.0583190918,19.6773815155,0.0502821207,0.0660430789,0.0089069009,-10.5625495911,82.9636306763,-24.0553588867,0.0237185955,0.0232607648,0.0243611410,23.9919204712,56.1441574097,-81.4555892944,0.0745825171,0.0077645481,0.0001106262,
1855.203,-3.2029800415,1.3372536898,-166.7635192871,0.0599584579,0.0353504382,0.0106242299,-96.6564025879,77.0750122070,20.2306613922,0.0547418594,0.0626284480,0.0065270066,-10.6318883896,82.9644927979,-24.1163997650,0.0242087245,0.0238939747,0.0248924643,23.9872360229,56.1431579590,-81.4526977539,0.0701782703,0.0004760921,0.0064265132,
1855.213,-3.2009382248,1.3372532129,-166.7610473633,0.0580053255,0.0494750217,0.0008573532,-96.0304794312,77.0882110596,20.8076858521,0.0513753891,0.0612106025,0.0099218488,-10.6948509216,82.9660263062,-24.1691799164,0.0290948153,0.0235351771,0.0229889452,23.9871387482,56.1422042847,-81.4460372925,0.0794463754,-0.0019700527,0.0064135194,
1855.223,-3.1999833584,1.3371834755,-166.7610473633,0.0560509861,0.0435990058,0.0140394568,-95.4003448486,77.0967254639,21.3847141266,0.0543382764,0.0613107383,0.0079386234,-10.7654390335,82.9673690796,-24.2302589417,0.0271445513,0.0241695717,0.0230396166,23.9915847778,56.1417350769,-81.4361343384,0.0774886012,-0.0005475581,0.0005653501,
1855.233,-3.1991252899,1.3385630846,-166.7587280273,0.0599813052,0.0430957451,0.0120862722,-94.7391052246,77.1034698486,21.9869709015,0.0597356558,0.0619105995,0.0116969943,-10.8303909302,82.9697113037,-24.2849788666,0.0276378393,0.0233235657,0.0177354813,24.0025844574,56.1393699646,-81.4202041626,0.0813719034,0.0110594928,0.0044838786,
1855.243,-3.1986672878,1.3368378878,-166.7581329346,0.0638574511,0.0440643765,0.0062256455,-94.0624084473,77.1076583862,22.5966567993,0.0534043312,0.0591105223,0.0061208606,-10.8921604156,82.9720306396,-24.3372554779,0.0295959115,0.0263773724,0.0202397704,24.0142669678,56.1451225281,-81.4035720825,0.0765450001,-0.0017057359,-0.0080889463,
1855.253,-3.1995930672,1.3358385563,-166.7569732666,0.0613986067,0.0391977131,0.0052495599,-93.3447647095,77.1082153320,23.2427654266,0.0538947582,0.0631858408,0.0140597224,-10.9578046799,82.9742889404,-24.3927669525,0.0242296457,0.0250448510,0.0207924917,24.0197315216,56.1437721252,-81.3942337036,0.0858092308,-0.0002973676,0.0060749054,
1855.263,-3.1985077858,1.3356025219,-166.7569580078,0.0584648028,0.0484561510,0.0042718649,-92.6118545532,77.1089172363,23.9055423737,0.0475498438,0.0721088350,0.0082652569,-11.0207405090,82.9774703979,-24.4475612640,0.0257012844,0.0280979499,0.0301489756,24.0301570892,56.1443939209,-81.3786926270,0.0667723417,0.0074261725,0.0085658431,
1855.273,-3.1979634762,1.3367737532,-166.7557983398,0.0579969548,0.0464935191,0.0023187399,-91.8600311279,77.1068038940,24.5931282043,0.0534009933,0.0776268244,0.0102096200,-11.1110973358,82.9822235107,-24.5247554779,0.0266879797,0.0219264328,0.0185481757,24.0378284454,56.1437606812,-81.3659973145,0.0706723928,0.0024714470,0.0032166243,
1855.283,-3.1985983849,1.3368349075,-166.7546539307,0.0599511489,0.0401569232,0.0086670518,-91.0861511230,77.1018447876,25.3120803833,0.0528934002,0.0763205588,0.0193904638,-11.1846351624,82.9870300293,-24.5877666473,0.0242568254,0.0279259160,0.0284251273,24.0488014221,56.1405448914,-81.3496246338,0.0725942850,0.0062612593,0.0081004500,
1855.293,-3.1987557411,1.3347183466,-166.7539978027,0.0608907789,0.0440659635,0.0047600269,-90.3110046387,77.0934982300,26.0383911133,0.0553022623,0.0686832368,0.0109857917,-11.2713756561,82.9889831543,-24.6622238159,0.0232844353,0.0276151448,0.0309350193,24.0642757416,56.1389884949,-81.3306808472,0.0730674267,0.0012318492,0.0066767931,
1855.303,-3.2005047798,1.3369045258,-166.7517700195,0.0589758009,0.0362838767,0.0028094649,-89.5504684448,77.0798339844,26.7552490234,0.0601317883,0.0693959594,0.0026336908,-11.3944978714,82.9920120239,-24.7729949951,0.0262205601,0.0195650458,0.0237134844,24.0727577209,56.1383743286,-81.3146896362,0.0750145912,0.0006644726,0.0096313357,
1855.313,-3.2000155449,1.3386245966,-166.7505950928,0.0541230030,0.0440878160,0.0081809759,-88.7667160034,77.0661239624,27.4985237122,0.0600782633,0.0705565810,0.0190867186,-11.5127620697,82.9908905029,-24.8808689117,0.0242650509,0.0222605914,0.0315580294,24.0876579285,56.1380844116,-81.2955169678,0.0779414177,0.0005304813,-0.0015433431,
1855.323,-3.1996843815,1.3403561115,-166.7494659424,0.0561063401,0.0435937308,0.0042746663,-88.0065231323,77.0467910767,28.2160453796,0.0668386221,0.0624949932,0.0033977032,-11.6330204010,82.9945068359,-24.9881916046,0.0272024274,0.0215259567,0.0194642320,24.1030063629,56.1412773132,-81.2756729126,0.0769959092,-0.0010518432,-0.0116946101,
1855.333,-3.1994016171,1.3411142826,-166.7477111816,0.0595375337,0.0455419086,0.0018334985,-87.2263488770,77.0219802856,28.9443149567,0.0765070915,0.0598541498,0.0091022849,-11.7250423431,82.9964065552,-25.0703010559,0.0296478868,0.0265968293,0.0166060179,24.1106281281,56.1394920349,-81.2625808716,0.0769785643,0.0032644868,0.0102850795,
1855.343,-3.1991074085,1.3409259319,-166.7465667725,0.0624639355,0.0435836650,-0.0045143366,-86.4574890137,76.9952163696,29.6526088715,0.0768903494,0.0640427768,-0.0056678057,-11.7800855637,82.9952545166,-25.1138935089,0.0286688805,0.0237874165,0.0278417990,24.1169052124,56.1410827637,-81.2511978149,0.0730877519,0.0027297735,-0.0004116893,
1855.353,-3.1993269920,1.3413623571,-166.7460327148,0.0585653037,0.0416343585,0.0101344585,-85.6415100098,76.9681701660,30.3981990814,0.0645769835,0.0701340735,0.0096396804,-11.8041782379,82.9981155396,-25.1287879944,0.0237921476,0.0257816240,0.0200869888,24.1156692505,56.1417732239,-81.2464828491,0.0779773593,-0.0011612177,0.0005702972,
1855.363,-3.2007791996,1.3414913416,-166.7448730469,0.0595441163,0.0416596532,0.0037881732,-84.7919387817,76.9389877319,31.1764678955,0.0610440373,0.0752238035,0.0140608549,-11.8339071274,82.9994277954,-25.1500473022,0.0281894803,0.0263281241,0.0259812549,24.1164588928,56.1417732239,-81.2405548096,0.0843249559,0.0056674778,0.0030132532,
1855.373,-3.1992549896,1.3425782919,-166.7449645996,0.0580982380,0.0435861945,0.0037872791,-83.9322662354,76.9111328125,31.9724140167,0.0511684418,0.0797491372,0.0106210709,-11.8873071671,83.0006942749,-25.1951389313,0.0272156000,0.0269246325,0.0240735114,24.1175441742,56.1431159973,-81.2352981567,0.0716426969,0.0007830858,0.0045011044,
1855.383,-3.1956584454,1.3418927193,-166.7449951172,0.0624808073,0.0464532450,0.0125722289,-83.0640335083,76.8801651001,32.7876930237,0.0539755821,0.0808527172,0.0115270615,-11.9435396194,83.0032424927,-25.2431755066,0.0189202428,0.0265466198,0.0299967602,24.1249027252,56.1458320618,-81.2235260010,0.0765519142,-0.0017076135,0.0050541759,
1855.393,-3.1962401867,1.3403092623,-166.7437896729,0.0614766181,0.0381626338,0.0101312995,-82.2015533447,76.8483428955,33.6064300537,0.0567790270,0.0887534916,-0.0002496839,-12.0261669159,83.0064697266,-25.3176956177,0.0257630348,0.0267090425,0.0232543126,24.1353797913,56.1482086182,-81.2066421509,0.0653445721,0.0026080310,0.0041511655,
1855.403,-3.1966004372,1.3414274454,-166.7420806885,0.0580781549,0.0391454473,-0.0040289164,-81.3212280273,76.8088226318,34.4500961304,0.0615046620,0.0786545277,0.0074042678,-12.1084203720,83.0090179443,-25.3906440735,0.0199090838,0.0268732682,0.0247987732,24.1543006897,56.1521453857,-81.1847000122,0.0756367445,0.0049047470,0.0018362999,
1855.413,-3.1938676834,1.3402693272,-166.7402954102,0.0644056052,0.0454455204,0.0101287961,-80.4318084717,76.7676849365,35.3049850464,0.0711061954,0.0729130507,0.0062176585,-12.1940698624,83.0120239258,-25.4682960510,0.0247982740,0.0294841155,0.0219590440,24.1676769257,56.1527938843,-81.1665039063,0.0780844688,0.0043016672,0.0082463026,
1855.423,-3.1957163811,1.3404176235,-166.7397003174,0.0551308468,0.0381535105,0.0052477121,-79.5470581055,76.7233200073,36.1542549133,0.0748349428,0.0788890421,-0.0081562400,-12.2788314819,83.0116653442,-25.5448932648,0.0291920304,0.0233164132,0.0244318768,24.1799983978,56.1541099548,-81.1496353149,0.0820034742,0.0066415668,0.0044065118,
1855.433,-3.1950836182,1.3396283388,-166.7391815186,0.0648827031,0.0425370336,0.0067115426,-78.6468658447,76.6775207520,37.0152206421,0.0775807500,0.0789591968,-0.0025892258,-12.3694772720,83.0113830566,-25.6284694672,0.0311445594,0.0205783099,0.0186106265,24.1863498688,56.1541862488,-81.1395797729,0.0854222178,0.0012145936,0.0054094195,
1855.443,-3.1940398216,1.3415234089,-166.7393035889,0.0575915501,0.0439836457,0.0091527700,-77.7208786011,76.6286849976,37.8930282593,0.0715246201,0.0760663450,0.0023640990,-12.3854284286,83.0091629028,-25.6363830566,0.0306515694,0.0230617523,0.0302977338,24.1924304962,56.1561317444,-81.1305618286,0.0781168938,0.0006839037,0.0044825673,
1855.453,-3.1963338852,1.3396996260,-166.7381286621,0.0643956661,0.0386525579,0.0081778169,-76.7744369507,76.5787506104,38.7880668640,0.0771820545,0.0779908597,0.0038008094,-12.4122152328,83.0107574463,-25.6539936066,0.0267487168,0.0260418579,0.0191068798,24.1974830627,56.1601638794,-81.1219711304,0.0781561136,0.0060341060,-0.0003267527,
1855.463,-3.1951870918,1.3392047882,-166.7369842529,0.0638987496,0.0464450940,0.0047581792,-75.8135528564,76.5274963379,39.6986694336,0.0740443468,0.0783889890,0.0027212501,-12.4436464310,83.0121917725,-25.6774711609,0.0247986317,0.0256142393,0.0171932355,24.1986408234,56.1701316833,-81.1163635254,0.0728818774,-0.0056357086,-0.0060497522,
1855.473,-3.1962740421,1.3391275406,-166.7370300293,0.0599911511,0.0430460535,0.0028064251,-74.8548583984,76.4774703979,40.6099433899,0.0655397773,0.0855340958,-0.0032389164,-12.4675111771,83.0113220215,-25.6927719116,0.0174725652,0.0251794755,0.0269548893,24.2109642029,56.1770210266,-81.1018218994,0.0670894384,0.0045498610,-0.0015152693,
1855.483,-3.1967828274,1.3363662958,-166.7351684570,0.0633609444,0.0406135805,0.0042706132,-73.8941879272,76.4302597046,41.5312995911,0.0658350587,0.0930489004,0.0054447055,-12.5340337753,83.0140457153,-25.7510318756,0.0248025656,0.0248209387,0.0245901942,24.2197189331,56.1794471741,-81.0889129639,0.0739489198,0.0039983988,0.0019699335,
1855.493,-3.1958572865,1.3350867033,-166.7339782715,0.0623620525,0.0435271785,0.0047571063,-72.9569778442,76.3821105957,42.4412384033,0.0719851851,0.0912583172,-0.0053216219,-12.6082010269,83.0187911987,-25.8183364868,0.0199298263,0.0288654417,0.0178676322,24.2257690430,56.1787033081,-81.0763854980,0.0700354576,0.0073582530,0.0093079209,
1855.503,-3.1954784393,1.3358219862,-166.7335052490,0.0618866012,0.0415674299,0.0120815039,-72.0323181152,76.3323440552,43.3472290039,0.0825225115,0.0913940966,-0.0082410574,-12.6718959808,83.0197753906,-25.8732337952,0.0189553499,0.0270425752,0.0296318009,24.2345390320,56.1771812439,-81.0623397827,0.0739269257,0.0053185225,0.0005347133,
1855.513,-3.1928348541,1.3338830471,-166.7328796387,0.0647824556,0.0473807938,0.0106132627,-71.1036300659,76.2838897705,44.2635269165,0.0818340778,0.0938794613,0.0049360394,-12.7553424835,83.0196304321,-25.9478607178,0.0218847394,0.0223353580,0.0286927223,24.2434616089,56.1765060425,-81.0477752686,0.0739203691,0.0052352250,-0.0028579831,
1855.523,-3.1908550262,1.3322564363,-166.7310485840,0.0613361038,0.0429518111,-0.0011080503,-70.1775283813,76.2369766235,45.1806182861,0.0865224004,0.0923680663,-0.0018903613,-12.8124694824,83.0201721191,-25.9948463440,0.0248155594,0.0258709490,0.0262887329,24.2471752167,56.1743583679,-81.0393829346,0.0758526325,0.0042131245,0.0117778778,
1855.533,-3.1909401417,1.3317812681,-166.7286987305,0.0642575026,0.0419767424,0.0096341968,-69.2250061035,76.1904678345,46.1200637817,0.0804696083,0.0873266160,0.0087568164,-12.8849201202,83.0243606567,-26.0570220947,0.0233595967,0.0201479420,0.0156489909,24.2578792572,56.1755981445,-81.0242843628,0.0802592039,0.0036372542,0.0001177192,
1855.543,-3.1918129921,1.3327065706,-166.7264251709,0.0632970855,0.0415036455,0.0008463860,-68.2433547974,76.1373901367,47.0820960999,0.0768300891,0.0769000947,0.0114363432,-12.9535875320,83.0241928101,-26.1155071259,0.0282420516,0.0227337927,0.0249572843,24.2688541412,56.1792602539,-81.0082931519,0.0729705095,0.0060032904,0.0026518703,
1855.553,-3.1926655769,1.3333566189,-166.7252807617,0.0579373315,0.0415184908,0.0101243258,-67.2517471313,76.0880889893,48.0468444824,0.0805298090,0.0755994618,-0.0034788847,-13.0006017685,83.0265502930,-26.1518764496,0.0238525271,0.0316122994,0.0216012299,24.2767448425,56.1813201904,-80.9959793091,0.0705491900,0.0020393431,0.0036866069,
1855.563,-3.1919746399,1.3318605423,-166.7246398926,0.0588877909,0.0405299254,0.0096350908,-66.2529754639,76.0318222046,49.0078201294,0.0832229257,0.0684570074,-0.0018662810,-13.0588932037,83.0283813477,-26.2012634277,0.0282509327,0.0258680359,0.0236125141,24.2825088501,56.1823501587,-80.9840545654,0.0686060190,0.0010179281,0.0090948939,
1855.573,-3.1913392544,1.3331005573,-166.7235107422,0.0579328649,0.0424719527,0.0076818466,-65.2601013184,75.9743652344,49.9522628784,0.0854218006,0.0588198304,-0.0104922652,-13.1371860504,83.0305786133,-26.2714195251,0.0233727694,0.0260234624,0.0231985897,24.2899551392,56.1853904724,-80.9711303711,0.0730301142,0.0009698868,-0.0020669699,
1855.583,-3.1906747818,1.3340691328,-166.7218170166,0.0608794540,0.0405072235,0.0003574491,-64.2828292847,75.9145507813,50.8733596802,0.0963987112,0.0716288686,-0.0171234012,-13.2371597290,83.0325469971,-26.3633728027,0.0267949104,0.0232951567,0.0296280831,24.2997493744,56.1853332520,-80.9550399780,0.0764475465,0.0013712943,0.0013905764,
1855.593,-3.1880595684,1.3343043327,-166.7212677002,0.0613718368,0.0472975969,0.0086558461,-63.3189697266,75.8525772095,51.7794075012,0.0922286510,0.0770927966,-0.0105358362,-13.3284959793,83.0354461670,-26.4471168518,0.0194768310,0.0210333914,0.0243495554,24.3099594116,56.1881828308,-80.9373016357,0.0759869218,-0.0021202266,-0.0004846454,
1855.603,-3.1903858185,1.3334046602,-166.7195281982,0.0633092672,0.0385490768,0.0052393675,-62.3845329285,75.7887496948,52.6625633240,0.0968385935,0.0874474645,-0.0145921111,-13.4063701630,83.0370788574,-26.5156974792,0.0287576318,0.0285134837,0.0239287168,24.3278217316,56.1921310425,-80.9146347046,0.0799314976,0.0045812130,-0.0018254519,
1855.613,-3.1919584274,1.3329728842,-166.7195739746,0.0593954809,0.0390647687,0.0115886331,-61.4596977234,75.7240676880,53.5484390259,0.0999788046,0.0972720087,-0.0098305941,-13.4833650589,83.0410766602,-26.5838947296,0.0326723456,0.0262173489,0.0142656863,24.3385410309,56.1953964233,-80.8986740112,0.0819163322,0.0015760362,0.0055842400,
1855.623,-3.1906950474,1.3324481249,-166.7183990479,0.0618277341,0.0468552671,0.0037747622,-60.5293502808,75.6561203003,54.4558601379,0.0996856689,0.0977818072,-0.0016989708,-13.5228519440,83.0438461304,-26.6143779755,0.0292602181,0.0282415301,0.0197038054,24.3511886597,56.1979713440,-80.8807830811,0.0892655849,0.0088038146,-0.0011661053,
1855.633,-3.1901385784,1.3323986530,-166.7178649902,0.0623151474,0.0444041677,0.0071918368,-59.5980682373,75.5816421509,55.3835601807,0.0881323218,0.0939151943,0.0068609715,-13.5552501678,83.0448303223,-26.6371574402,0.0199849606,0.0278171375,0.0260827020,24.3554821014,56.2022819519,-80.8696594238,0.0717293024,0.0029321313,0.0081846118,
1855.643,-3.1891744137,1.3323035240,-166.7167053223,0.0623134896,0.0458522215,-0.0001327991,-58.6801338196,75.5038299561,56.3179283142,0.0951175094,0.0851658881,0.0003038645,-13.5698080063,83.0441284180,-26.6437683105,0.0243780017,0.0268736482,0.0280319154,24.3644657135,56.2055740356,-80.8542098999,0.0785971880,0.0062902868,0.0082639456,
1855.653,-3.1905190945,1.3335753679,-166.7150573730,0.0598942749,0.0356217064,0.0023096800,-57.7521781921,75.4224166870,57.2715377808,0.0825538039,0.0827136934,0.0019773841,-13.6249933243,83.0463790894,-26.6892127991,0.0268241763,0.0196553469,0.0246792063,24.3705101013,56.2103919983,-80.8411102295,0.0737611055,0.0004062057,0.0005392432,
1855.663,-3.1906952858,1.3352645636,-166.7127990723,0.0609003082,0.0395309925,0.0081706047,-56.8453483582,75.3396682739,58.2042922974,0.0939080715,0.0704874992,-0.0075176358,-13.6761541367,83.0460739136,-26.7284832001,0.0268235207,0.0285521671,0.0315363258,24.3766441345,56.2121429443,-80.8279876709,0.0781726837,0.0018273592,0.0113293529,
1855.673,-3.1923995018,1.3352732658,-166.7121734619,0.0555293709,0.0429786481,0.0023124814,-55.9417037964,75.2530288696,59.1173133850,0.0979187489,0.0626400411,-0.0087378621,-13.7624778748,83.0514373779,-26.8048439026,0.0239051580,0.0262688249,0.0160438418,24.3928241730,56.2152519226,-80.8042602539,0.0786911249,0.0060974061,0.0036227107,
1855.683,-3.1904578209,1.3350042105,-166.7122497559,0.0633371770,0.0448979512,0.0169591904,-55.0589179993,75.1640930176,59.9918823242,0.1009404659,0.0616339743,-0.0172289610,-13.8297405243,83.0569152832,-26.8627166748,0.0268464088,0.0298041478,0.0147052929,24.4074840546,56.2207679749,-80.7837142944,0.0719087124,0.0050242245,0.0022894144,
1855.693,-3.1907339096,1.3330237865,-166.7103729248,0.0628143400,0.0478324965,0.0052395463,-54.1668090820,75.0757446289,60.8543319702,0.1103100777,0.0610078275,-0.0081736445,-13.9244756699,83.0614624023,-26.9480724335,0.0268560052,0.0241232738,0.0133629292,24.4182815552,56.2245140076,-80.7679061890,0.0695036650,0.0015332103,0.0023821592,
1855.703,-3.1925227642,1.3325704336,-166.7085876465,0.0574353337,0.0361449234,0.0042651892,-53.3166770935,74.9865646362,61.6621437073,0.1167440414,0.0662869811,-0.0302234888,-14.0010499954,83.0624008179,-27.0150165558,0.0244165659,0.0203722566,0.0187884942,24.4259128571,56.2249183655,-80.7556991577,0.0734138489,-0.0014615059,-0.0019764304,
1855.713,-3.1917750835,1.3333749771,-166.7062530518,0.0618439019,0.0449209400,0.0076823235,-52.4775123596,74.8927764893,62.4506645203,0.1168069839,0.0730504692,-0.0185907483,-14.0476245880,83.0626525879,-27.0544242859,0.0278350711,0.0248620883,0.0271191001,24.4276676178,56.2272796631,-80.7482604980,0.0729484558,-0.0019511282,-0.0019382834,
1855.723,-3.1908748150,1.3328827620,-166.7050170898,0.0574407838,0.0434404202,0.0037751198,-51.6421051025,74.7921295166,63.2416954041,0.1134179831,0.0827722549,-0.0045776963,-14.0555915833,83.0621109009,-27.0543556213,0.0239276886,0.0253699422,0.0227154493,24.4304847717,56.2277297974,-80.7404785156,0.0812535882,0.0092571676,0.0117507577,
1855.733,-3.1905636787,1.3335382938,-166.7032470703,0.0579405017,0.0434349887,0.0071930289,-50.8148536682,74.6907043457,64.0391845703,0.1061161757,0.1017299891,-0.0125190616,-14.0759096146,83.0640106201,-27.0659999847,0.0258848071,0.0249154568,0.0183655918,24.4355468750,56.2315788269,-80.7328033447,0.0822675228,0.0077706873,0.0010800362,
1855.743,-3.1892316341,1.3345406055,-166.7020416260,0.0545400195,0.0448765978,0.0096335411,-50.0076522827,74.5812530518,64.8392944336,0.1021920443,0.0963627398,-0.0048534870,-14.0958242416,83.0667800903,-27.0762939453,0.0288203359,0.0303164050,0.0262339413,24.4413795471,56.2388916016,-80.7231597900,0.0720845461,0.0019036531,0.0007117391,
1855.753,-3.1870779991,1.3341044188,-166.7021026611,0.0633214712,0.0458156504,0.0013305545,-49.2214126587,74.4645080566,65.6349487305,0.0972537994,0.0910775065,-0.0084286332,-14.1523942947,83.0708236694,-27.1246776581,0.0229694843,0.0284637809,0.0253533274,24.4622917175,56.2471656799,-80.6985244751,0.0716764927,0.0086044967,-0.0039780140,
1855.763,-3.1864778996,1.3339221478,-166.7002868652,0.0608768873,0.0487348922,0.0071893334,-48.4521179199,74.3417434692,66.4258499146,0.0913066268,0.0790108442,-0.0042053461,-14.2584934235,83.0766296387,-27.2217140198,0.0200520158,0.0291471183,0.0230649337,24.4845218658,56.2530250549,-80.6702957153,0.0678271055,0.0040488243,0.0015591979,
1855.773,-3.1875731945,1.3341680765,-166.6979217529,0.0569749251,0.0365469344,-0.0040403605,-47.7125968933,74.2161788940,67.1862106323,0.1034080982,0.0718833804,-0.0189598799,-14.3884658813,83.0824127197,-27.3432884216,0.0254352689,0.0254853815,0.0222516730,24.5001373291,56.2550964355,-80.6465988159,0.0629643202,-0.0048654675,0.0128807425,
1855.783,-3.1877205372,1.3354506493,-166.6967620850,0.0555324666,0.0419205688,0.0042613149,-46.9776153564,74.0833892822,67.9280548096,0.1125407815,0.0647878349,-0.0098636150,-14.5160427094,83.0869827271,-27.4625549316,0.0205620527,0.0276822820,0.0267906189,24.5185604095,56.2537269592,-80.6214828491,0.0702753067,-0.0055247843,0.0070759654,
1855.793,-3.1872663498,1.3351243734,-166.6961822510,0.0589447394,0.0419126637,0.0057255626,-46.2502632141,73.9457473755,68.6455154419,0.1143205762,0.0640515387,-0.0135023594,-14.6581096649,83.0927200317,-27.5943393707,0.0235037804,0.0235565677,0.0132872313,24.5311107635,56.2516403198,-80.6010208130,0.0731847286,0.0021644831,0.0070998669,
1855.803,-3.1882758141,1.3326230049,-166.6955718994,0.0647604689,0.0409537442,0.0145146251,-45.5280723572,73.8067016602,69.3417739868,0.1229239702,0.0642524362,-0.0181264877,-14.7833271027,83.0969772339,-27.7091865540,0.0269306898,0.0252603143,0.0163573846,24.5402679443,56.2510871887,-80.5846939087,0.0829449892,0.0006155074,0.0037115216,
1855.813,-3.1871426105,1.3327150345,-166.6943969727,0.0593909845,0.0443519652,-0.0040411949,-44.8017082214,73.6660156250,70.0336685181,0.1202831864,0.0682908297,-0.0188882351,-14.8939285278,83.0967178345,-27.8099269867,0.0259535909,0.0206071958,0.0276391879,24.5463981628,56.2481079102,-80.5727310181,0.0804747343,0.0039614439,0.0110210776,
1855.823,-3.1876726151,1.3315607309,-166.6932373047,0.0618122518,0.0385018550,0.0018183589,-44.0622291565,73.5199279785,70.7366027832,0.1263989210,0.0834995806,-0.0114662051,-14.9594316483,83.0980224609,-27.8659439087,0.0274211764,0.0256183967,0.0257463902,24.5500926971,56.2480583191,-80.5631484985,0.0873101950,-0.0004659593,0.0076174736,
1855.833,-3.1893670559,1.3333586454,-166.6908874512,0.0540311188,0.0385313332,0.0062152147,-43.3237953186,73.3709869385,71.4498214722,0.1139395237,0.0937835574,-0.0114098787,-15.0028085709,83.0994491577,-27.9045925140,0.0274241567,0.0242364854,0.0277467296,24.5592479706,56.2528457642,-80.5485153198,0.0751495361,0.0004585981,0.0008813739,
1855.843,-3.1895821095,1.3340927362,-166.6909637451,0.0594150200,0.0439061560,0.0062156916,-42.6134490967,73.2203369141,72.1470565796,0.1146485806,0.0860435069,-0.0181204081,-15.0491104126,83.1030273438,-27.9456024170,0.0259668231,0.0272454694,0.0185538381,24.5656623840,56.2554512024,-80.5371932983,0.0732216835,0.0028591752,0.0058243275,
1855.853,-3.1889040470,1.3352980614,-166.6904602051,0.0599243343,0.0448708832,0.0032858253,-41.9176254272,73.0642395020,72.8404846191,0.1143468022,0.0910388827,-0.0116768479,-15.1323547363,83.1039352417,-28.0237350464,0.0196210742,0.0225295946,0.0283804312,24.5770931244,56.2568893433,-80.5201797485,0.0790950060,0.0047200620,0.0058891773,
1855.863,-3.1865479946,1.3371107578,-166.6886901855,0.0560497120,0.0462946370,0.0076788664,-41.2438278198,72.9034118652,73.5196914673,0.1193847656,0.0804675519,-0.0149884224,-15.2224788666,83.1068420410,-28.1068534851,0.0264630914,0.0202603191,0.0245713592,24.5878372192,56.2581214905,-80.5042953491,0.0742241144,0.0065859556,0.0059495568,
1855.873,-3.1857132912,1.3374431133,-166.6875000000,0.0589851998,0.0453035310,0.0081665516,-40.5704841614,72.7394790649,74.2001419067,0.1180514097,0.0845051706,-0.0085825324,-15.3122863770,83.1113052368,-28.1893081665,0.0225661993,0.0282369554,0.0242065042,24.5999145508,56.2630615234,-80.4856643677,0.0698775053,0.0050442517,0.0002026558,
1855.883,-3.1845762730,1.3382610083,-166.6863403320,0.0570463426,0.0443071350,0.0008416176,-39.9192008972,72.5731506348,74.8592758179,0.1186509132,0.0836977065,-0.0163029432,-15.4086408615,83.1171493530,-28.2758445740,0.0206252933,0.0279194266,0.0214279518,24.6097946167,56.2670936584,-80.4671173096,0.0669869184,-0.0028307736,0.0027384758,
1855.893,-3.1839225292,1.3367830515,-166.6857299805,0.0628799349,0.0447840616,0.0032817125,-39.2856216431,72.4022369385,75.4993667603,0.1153118610,0.0756118596,-0.0123121142,-15.5224599838,83.1207427979,-28.3799781799,0.0196562409,0.0252062008,0.0313169211,24.6272163391,56.2699241638,-80.4445877075,0.0743385553,0.0004504621,0.0038211942,
1855.903,-3.1834073067,1.3382382393,-166.6851348877,0.0526514165,0.0442867726,0.0032817721,-38.6748123169,72.2321014404,76.1112518311,0.1266169548,0.0743756592,-0.0248470902,-15.6421451569,83.1253051758,-28.4887962341,0.0221071839,0.0264062732,0.0270660967,24.6514930725,56.2717552185,-80.4149856567,0.0665438175,0.0085485578,0.0058977008,
1855.913,-3.1862287521,1.3363682032,-166.6833190918,0.0623844117,0.0389648788,0.0042603016,-38.0678176880,72.0628814697,76.7097167969,0.1301060319,0.0696571171,-0.0271095634,-15.7835416794,83.1274719238,-28.6224193573,0.0299242139,0.0227787569,0.0247405022,24.6706390381,56.2697181702,-80.3897857666,0.0806841850,0.0020197630,0.0049710274,
1855.923,-3.1860897541,1.3369771242,-166.6826934814,0.0555590950,0.0472632200,0.0018189549,-37.4535446167,71.8953018188,77.3050994873,0.1306660175,0.0804470479,-0.0240135193,-15.8922338486,83.1270980835,-28.7213497162,0.0177164078,0.0259317160,0.0257742032,24.6873073578,56.2718582153,-80.3674621582,0.0782635212,0.0018860400,-0.0037211180,
1855.933,-3.1870577335,1.3356808424,-166.6820983887,0.0604192913,0.0389793254,0.0120733976,-36.8686866760,71.7276458740,77.8680572510,0.1385416985,0.0795774758,-0.0344988108,-16.0129909515,83.1284484863,-28.8347549438,0.0260199904,0.0217771530,0.0258658677,24.6979351044,56.2704963684,-80.3525772095,0.0787386298,0.0027605593,0.0060682893,
1855.943,-3.1866202354,1.3334131241,-166.6808471680,0.0618445687,0.0438545682,0.0130482316,-36.3019409180,71.5550460815,78.4156646729,0.1380811930,0.0777928531,-0.0264387727,-16.1067504883,83.1285858154,-28.9192829132,0.0309031010,0.0239207447,0.0322700739,24.7054290771,56.2708358765,-80.3403015137,0.0733708143,0.0056264400,-0.0017082691,
1855.953,-3.1875319481,1.3337775469,-166.6790924072,0.0589212403,0.0370345116,0.0062139034,-35.7450904846,71.3904876709,78.9571762085,0.1371685863,0.0847003162,-0.0333845615,-16.1740875244,83.1306991577,-28.9804096222,0.0240715742,0.0308836102,0.0230674073,24.7157135010,56.2718086243,-80.3251647949,0.0743567944,0.0055415630,0.0027392507,
1855.963,-3.1873381138,1.3330725431,-166.6779785156,0.0647683144,0.0409373976,0.0081657171,-35.1950492859,71.2305679321,79.4984054565,0.1377390623,0.0959273577,-0.0314602852,-16.2538681030,83.1323852539,-29.0536804199,0.0206571221,0.0193190053,0.0255841464,24.7298355103,56.2744445801,-80.3083114624,0.0865893960,0.0020153522,-0.0059567094,
1855.973,-3.1857240200,1.3312082291,-166.6767730713,0.0642475039,0.0438390076,0.0008400083,-34.6733131409,71.0733566284,80.0182189941,0.1339229345,0.0871818364,-0.0338056087,-16.3116321564,83.1355819702,-29.1045589447,0.0284762979,0.0296755433,0.0246921480,24.7486629486,56.2809448242,-80.2874298096,0.0739570260,0.0077483058,-0.0028656721,
1855.983,-3.1840770245,1.3330440521,-166.6744232178,0.0559787564,0.0438102745,0.0042566657,-34.1587028503,70.9163589478,80.5329360962,0.1359602809,0.0857372284,-0.0219691396,-16.3842926025,83.1419296265,-29.1697692871,0.0167707801,0.0312571377,0.0180048868,24.7669448853,56.2846641541,-80.2655868530,0.0822938681,0.0066335499,-0.0042066574,
1855.993,-3.1864242554,1.3341282606,-166.6739349365,0.0584390797,0.0384800471,0.0101190209,-33.6568679810,70.7634353638,81.0355148315,0.1306897402,0.0798672736,-0.0300562978,-16.4790802002,83.1492538452,-29.2571582794,0.0226454139,0.0275082290,0.0162263215,24.7835559845,56.2872314453,-80.2450637817,0.0749945045,0.0035732388,0.0061482191,
1856.003,-3.1874568462,1.3338358402,-166.6721954346,0.0613636635,0.0365449153,0.0101198554,-33.1663284302,70.6124572754,81.5196990967,0.1376308203,0.0715413988,-0.0322233438,-16.5578880310,83.1518936157,-29.3285617828,0.0202094913,0.0296078399,0.0246189982,24.7978954315,56.2873344421,-80.2240676880,0.0745072365,0.0039359927,0.0101140738,
1856.013,-3.1879591942,1.3345052004,-166.6704101563,0.0579573736,0.0448544361,0.0091440082,-32.6848602295,70.4641876221,81.9829483032,0.1357920766,0.0719750226,-0.0333481431,-16.6683521271,83.1559295654,-29.4311027527,0.0158233643,0.0268821269,0.0193801373,24.8054389954,56.2865867615,-80.2084197998,0.0681523681,-0.0010177195,0.0150177479,
1856.023,-3.1871120930,1.3331638575,-166.6685180664,0.0584222488,0.0453279912,0.0047482252,-32.2031021118,70.3180694580,82.4367752075,0.1456784010,0.0747818649,-0.0320041776,-16.8056659698,83.1564788818,-29.5612583160,0.0270549655,0.0232508406,0.0277731493,24.8177909851,56.2832717896,-80.1893081665,0.0749561787,0.0008065999,0.0091649294,
1856.033,-3.1868124008,1.3318957090,-166.6672821045,0.0623063743,0.0477642044,0.0042586923,-31.7264518738,70.1735000610,82.8796691895,0.1536146402,0.0804826319,-0.0335509777,-16.9164962769,83.1594238281,-29.6677417755,0.0207134485,0.0244366676,0.0151937753,24.8254241943,56.2820434570,-80.1764068604,0.0832450390,0.0017085075,0.0042971373,
1856.043,-3.1858572960,1.3331625462,-166.6661682129,0.0579339452,0.0413998812,0.0106066465,-31.2379131317,70.0329360962,83.3361129761,0.1518031359,0.0953192115,-0.0267770290,-16.9998378754,83.1619186401,-29.7458953857,0.0246248841,0.0226398036,0.0177252442,24.8334770203,56.2857475281,-80.1630935669,0.0769332647,-0.0012695491,-0.0024579167,
1856.053,-3.1849937439,1.3329917192,-166.6655883789,0.0584192462,0.0433379635,0.0062106848,-30.7724018097,69.8916397095,83.7772445679,0.1538878679,0.0921667516,-0.0287287235,-17.0520744324,83.1620635986,-29.7933654785,0.0290197134,0.0222556740,0.0255743563,24.8474559784,56.2911949158,-80.1453781128,0.0764977932,0.0045001805,-0.0052583814,
1856.063,-3.1849689484,1.3319824934,-166.6655578613,0.0588899180,0.0448023975,0.0003510714,-30.3284454346,69.7546539307,84.2150421143,0.1462273002,0.1002769768,-0.0398290753,-17.1071777344,83.1623535156,-29.8426971436,0.0236492157,0.0277367905,0.0241469443,24.8608837128,56.2945327759,-80.1292114258,0.0814129114,0.0107501149,-0.0017417669,
1856.073,-3.1865811348,1.3326271772,-166.6644439697,0.0598777272,0.0389710963,0.0037708879,-29.8973617554,69.6184234619,84.6546630859,0.1478432417,0.1049895883,-0.0323229432,-17.1657485962,83.1665115356,-29.8947792053,0.0226812959,0.0263689607,0.0174155906,24.8720989227,56.2975082397,-80.1159896851,0.0711878538,0.0111579895,0.0042024851,
1856.083,-3.1881165504,1.3336333036,-166.6633148193,0.0589187220,0.0433923565,0.0125619173,-29.4963588715,69.4797668457,85.0741729736,0.1489508152,0.0932411253,-0.0315954089,-17.2130584717,83.1658248901,-29.9323673248,0.0290275216,0.0210966542,0.0276876688,24.8831024170,56.2996177673,-80.1009674072,0.0687668324,0.0071678460,0.0023217797,
1856.093,-3.1888697147,1.3336766958,-166.6627655029,0.0598960370,0.0419406295,0.0086563826,-29.1171970367,69.3431854248,85.4682159424,0.1451828480,0.0781387389,-0.0385838151,-17.2515144348,83.1692047119,-29.9588432312,0.0226868987,0.0294578820,0.0253248736,24.8894252777,56.3007469177,-80.0862731934,0.0736606121,0.0041894913,-0.0020321608,
1856.103,-3.1898884773,1.3346050978,-166.6616363525,0.0564942732,0.0390286744,-0.0040379167,-28.7547702789,69.2068710327,85.8347930908,0.1443409324,0.0674856603,-0.0386818647,-17.3189315796,83.1726837158,-30.0160503387,0.0207409859,0.0237164050,0.0171232522,24.8973503113,56.3014144897,-80.0694274902,0.0790381432,0.0051004291,-0.0058974624,
1856.113,-3.1907408237,1.3340401649,-166.6604919434,0.0618555099,0.0395318121,0.0008457899,-28.3951683044,69.0720672607,86.1853942871,0.1503390670,0.0719406009,-0.0460727811,-17.4096107483,83.1764221191,-30.0948696136,0.0187956095,0.0238795206,0.0201713294,24.9092273712,56.3028526306,-80.0522384644,0.0727043748,0.0040283501,0.0000296235,
1856.123,-3.1912493706,1.3344289064,-166.6587982178,0.0633271337,0.0405172184,0.0115886331,-28.0309772491,68.9399261475,86.5269546509,0.1446299553,0.0660640299,-0.0373249054,-17.4880752563,83.1798706055,-30.1627693176,0.0202676058,0.0279257894,0.0202763528,24.9225234985,56.3036422729,-80.0340194702,0.0712472200,0.0029397309,0.0074179769,
1856.133,-3.1901712418,1.3355329037,-166.6570129395,0.0565104634,0.0439163819,0.0115880370,-27.6723041534,68.8075942993,86.8550643921,0.1535631418,0.0645826757,-0.0358867049,-17.6065540314,83.1810760498,-30.2702255249,0.0236880779,0.0227862075,0.0262302831,24.9336452484,56.3026924133,-80.0165405273,0.0634255409,0.0043010712,0.0147751570,
1856.143,-3.1898200512,1.3366789818,-166.6553192139,0.0604367107,0.0414688401,0.0052404404,-27.3111515045,68.6767959595,87.1800384521,0.1556651592,0.0786695480,-0.0295489430,-17.6967716217,83.1820297241,-30.3549671173,0.0183189511,0.0293099806,0.0243494958,24.9464454651,56.3026351929,-79.9993972778,0.0702609420,0.0022352338,-0.0003095269,
1856.153,-3.1890594959,1.3362309933,-166.6541900635,0.0638468564,0.0429204404,0.0076809525,-26.9661731720,68.5523300171,87.4862442017,0.1573144197,0.0717745423,-0.0445544124,-17.7910213470,83.1834106445,-30.4423675537,0.0227163434,0.0246087909,0.0239440426,24.9567813873,56.3000106812,-79.9847183228,0.0770714283,0.0070110261,-0.0003031492,
1856.163,-3.1881573200,1.3372409344,-166.6530914307,0.0609347969,0.0433929823,0.0091453195,-26.6271076202,68.4264221191,87.7873611450,0.1569969654,0.0785675943,-0.0434485674,-17.8591957092,83.1821975708,-30.5029125214,0.0310146213,0.0242631957,0.0259219334,24.9649658203,56.2988128662,-79.9708862305,0.0790129900,0.0069319606,0.0011805296,
1856.173,-3.1902229786,1.3378480673,-166.6514434814,0.0624102317,0.0351281725,0.0076828599,-26.2985210419,68.2935256958,88.0819549561,0.1585829854,0.0825136602,-0.0282522440,-17.8840065002,83.1800994873,-30.5199203491,0.0261274576,0.0277419239,0.0288331434,24.9650039673,56.2955436707,-79.9655914307,0.0833758116,-0.0004126132,0.0089502335,
1856.183,-3.1895394325,1.3381042480,-166.6514892578,0.0589967333,0.0448818840,0.0076822639,-25.9794330597,68.1589355469,88.3766250610,0.1538053751,0.0977292061,-0.0316057205,-17.9223251343,83.1817932129,-30.5503559113,0.0256426930,0.0243913084,0.0230279788,24.9738063812,56.3006744385,-79.9538726807,0.0726833344,0.0063773394,0.0017290115,
1856.193,-3.1903681755,1.3376405239,-166.6515197754,0.0614300482,0.0439197682,0.0052410960,-25.6946620941,68.0195465088,88.6535949707,0.1524092555,0.0867858231,-0.0305361748,-17.9587116241,83.1845855713,-30.5789127350,0.0202773809,0.0239615962,0.0274896026,24.9856357574,56.3065910339,-79.9386444092,0.0771351457,0.0033800900,0.0023437142,
1856.203,-3.1916236877,1.3385910988,-166.6498565674,0.0609583557,0.0380822495,0.0008484721,-25.4304161072,67.8834381104,88.9215164185,0.1495643854,0.0891002417,-0.0415677428,-18.0185699463,83.1878433228,-30.6304874420,0.0241903663,0.0260173604,0.0222099572,25.0004444122,56.3119049072,-79.9202117920,0.0683975220,0.0037709475,0.0073570013,
1856.213,-3.1895341873,1.3381878138,-166.6487121582,0.0638810024,0.0453700759,0.0125650764,-25.1853160858,67.7500076294,89.1787948608,0.1560093164,0.0802577138,-0.0456694961,-18.1043548584,83.1918182373,-30.7087192535,0.0183392167,0.0247027576,0.0213542730,25.0143127441,56.3148117065,-79.9024887085,0.0772147179,0.0036670566,0.0035457015,
1856.223,-3.1898806095,1.3381947279,-166.6463165283,0.0580217503,0.0390284508,0.0023114085,-24.9456272125,67.6171722412,89.4305191040,0.1565937996,0.0865601003,-0.0390051007,-18.1809482574,83.1958770752,-30.7777500153,0.0203007460,0.0262992084,0.0180508643,25.0244903564,56.3179512024,-79.8884048462,0.0713857412,0.0001789927,0.0050933361,
1856.233,-3.1894927025,1.3386211395,-166.6457824707,0.0585174710,0.0395099670,0.0076822042,-24.7189750671,67.4873962402,89.6648254395,0.1635414362,0.0797177851,-0.0439785123,-18.2719745636,83.1998901367,-30.8605346680,0.0266566873,0.0210881382,0.0215936005,25.0332756042,56.3209686279,-79.8733444214,0.0704383850,0.0074446797,0.0002863407,
1856.243,-3.1899645329,1.3384153843,-166.6459503174,0.0648615360,0.0365885049,0.0067061186,-24.4960403442,67.3637771606,89.8895416260,0.1612483263,0.0801627636,-0.0503144860,-18.3332271576,83.1978149414,-30.9134006500,0.0320234895,0.0202444941,0.0313670784,25.0356445313,56.3210792542,-79.8638458252,0.0743457079,0.0025417805,0.0061568618,
1856.253,-3.1917653084,1.3388321400,-166.6436004639,0.0590094365,0.0380847119,0.0106142759,-24.2643890381,67.2383041382,90.1165542603,0.1667509079,0.0746899247,-0.0366833210,-18.3871974945,83.1988525391,-30.9594554901,0.0232365727,0.0174177587,0.0265326500,25.0376548767,56.3227539063,-79.8552246094,0.0728970766,-0.0013718307,0.0096051693,
1856.263,-3.1929161549,1.3398393393,-166.6424713135,0.0570738837,0.0381047353,0.0223345160,-24.0220012665,67.1164779663,90.3447341919,0.1620199680,0.0793622732,-0.0352343917,-18.4266662598,83.2000350952,-30.9911117554,0.0281218290,0.0277431831,0.0197446793,25.0462265015,56.3265190125,-79.8426589966,0.0787928700,0.0083417594,0.0018773079,
1856.273,-3.1927354336,1.3390973806,-166.6412200928,0.0585257821,0.0429844148,0.0101271272,-23.7905845642,66.9960937500,90.5555343628,0.1592477560,0.0723561943,-0.0376377702,-18.4769592285,83.2009277344,-31.0318298340,0.0271471143,0.0258853808,0.0222337320,25.0579643250,56.3320808411,-79.8269882202,0.0768935680,0.0048550069,0.0034633875,
1856.283,-3.1933357716,1.3401154280,-166.6401062012,0.0585435480,0.0425065681,0.0028038025,-23.5633831024,66.8790969849,90.7564620972,0.1604009867,0.0741266012,-0.0394912958,-18.5212993622,83.2009277344,-31.0690631866,0.0227525830,0.0284145996,0.0237296298,25.0664138794,56.3375892639,-79.8152694702,0.0720640421,-0.0015328825,-0.0018007159,
1856.293,-3.1931793690,1.3413341045,-166.6390075684,0.0600296557,0.0429920964,0.0042691231,-23.3402233124,66.7684707642,90.9527130127,0.1630590558,0.0851428509,-0.0480749607,-18.5774307251,83.2012176514,-31.1181926727,0.0261711478,0.0260837898,0.0276760459,25.0797157288,56.3411636353,-79.7997283936,0.0711220503,-0.0001626611,-0.0051171780,
1856.303,-3.1931331158,1.3423056602,-166.6378173828,0.0546755083,0.0425029919,0.0106170774,-23.1268482208,66.6591110229,91.1395034790,0.1588865519,0.0839907527,-0.0395222902,-18.6510639191,83.2028350830,-31.1854019165,0.0271510482,0.0247565135,0.0184741169,25.0867710114,56.3434104919,-79.7880477905,0.0696789622,-0.0075348914,0.0042187572,
1856.313,-3.1949918270,1.3435637951,-166.6379394531,0.0576271564,0.0381408036,0.0076893568,-22.9095439911,66.5540771484,91.3324584961,0.1669477224,0.0954672694,-0.0431224108,-18.7139720917,83.2048187256,-31.2413005829,0.0208075047,0.0253587589,0.0258732289,25.0941505432,56.3443984985,-79.7777862549,0.0706651211,0.0036369860,0.0071916580,
1856.323,-3.1930716038,1.3444582224,-166.6379699707,0.0566661954,0.0449432805,0.0047588348,-22.7066307068,66.4505310059,91.5186309814,0.1667154431,0.0899230242,-0.0432429910,-18.7539596558,83.2043914795,-31.2748470306,0.0227597356,0.0293468609,0.0258929729,25.0971794128,56.3439483643,-79.7703628540,0.0745669603,0.0040959418,0.0101278424,
1856.333,-3.1922788620,1.3424670696,-166.6373443604,0.0629791096,0.0429763906,0.0150107145,-22.5044822693,66.3493041992,91.7097244263,0.1669846773,0.0911920667,-0.0423482656,-18.8080215454,83.2065277100,-31.3187198639,0.0212993026,0.0260243714,0.0205931216,25.1032447815,56.3443450928,-79.7593536377,0.0726177096,0.0006272793,0.0023454428,
1856.343,-3.1935787201,1.3428590298,-166.6361999512,0.0585914180,0.0400693342,0.0028052926,-22.2971649170,66.2497024536,91.9075622559,0.1682391167,0.0919163823,-0.0390005112,-18.8779888153,83.2097854614,-31.3817329407,0.0242357254,0.0261451900,0.0245994031,25.1133480072,56.3451538086,-79.7461853027,0.0716489553,0.0020085871,-0.0005322099,
1856.353,-3.1948804855,1.3414264917,-166.6356658936,0.0649140775,0.0400920473,0.0047587156,-22.0973339081,66.1511535645,92.0959472656,0.1626621485,0.0741159022,-0.0385466218,-18.9397583008,83.2111206055,-31.4346981049,0.0217970610,0.0257724822,0.0285672694,25.1178359985,56.3480377197,-79.7362899780,0.0677706003,0.0005221963,0.0024539232,
1856.363,-3.1953151226,1.3406345844,-166.6326751709,0.0609940067,0.0386347920,0.0042711496,-21.8749485016,66.0570297241,92.2945709229,0.1629732847,0.0781007707,-0.0415024161,-19.0051994324,83.2121276855,-31.4925994873,0.0227757096,0.0278494135,0.0261875018,25.1236076355,56.3468170166,-79.7282943726,0.0672705173,0.0014405549,0.0073438287,
1856.373,-3.1939203739,1.3414490223,-166.6314086914,0.0531957224,0.0493526682,0.0145232081,-21.6530761719,65.9674453735,92.4770584106,0.1647790670,0.0644708574,-0.0482942462,-19.1022377014,83.2141265869,-31.5846710205,0.0213149786,0.0260773599,0.0209145844,25.1276950836,56.3432540894,-79.7212905884,0.0701657534,-0.0025232434,0.0097565055,
1856.383,-3.1927125454,1.3411468267,-166.6289672852,0.0590498224,0.0444488190,0.0008508563,-21.4277610779,65.8847808838,92.6494598389,0.1710264683,0.0649249852,-0.0535243154,-19.1737670898,83.2098999023,-31.6504592896,0.0237476826,0.0233123899,0.0331041813,25.1329994202,56.3379173279,-79.7125473022,0.0720672607,0.0037448406,0.0111715198,
1856.393,-3.1938159466,1.3443210125,-166.6279144287,0.0556872375,0.0405617133,0.0155010223,-21.1817359924,65.8073806763,92.8307723999,0.1836572886,0.0842414498,-0.0499388576,-19.2710914612,83.2116394043,-31.7426738739,0.0232629776,0.0215425417,0.0195256248,25.1438922882,56.3334350586,-79.6997909546,0.0827660561,0.0041101277,0.0043225884,
1856.403,-3.1928696632,1.3443332911,-166.6261138916,0.0581288561,0.0434749164,0.0096409917,-20.9354305267,65.7300109863,93.0141143799,0.1874976158,0.0981718600,-0.0478140712,-19.3282260895,83.2083206177,-31.7939147949,0.0286272168,0.0236273929,0.0253711194,25.1596393585,56.3332252502,-79.6840972900,0.0827640295,0.0054355264,0.0009651780,
1856.413,-3.1919193268,1.3442269564,-166.6236877441,0.0586152859,0.0434583686,0.0081753731,-20.7130012512,65.6504745483,93.1894836426,0.1830199361,0.1049383283,-0.0417510271,-19.3819084167,83.2095642090,-31.8404064178,0.0286297798,0.0222612619,0.0259179994,25.1765670776,56.3390502930,-79.6665039063,0.0784258842,0.0097178817,-0.0027936697,
1856.423,-3.1919190884,1.3450706005,-166.6231842041,0.0591182858,0.0424817801,0.0052456260,-20.5274600983,65.5708770752,93.3521804810,0.1702392101,0.1021773815,-0.0360799432,-19.3709850311,83.2110290527,-31.8216075897,0.0222851634,0.0329735950,0.0269105360,25.1896610260,56.3449363708,-79.6501312256,0.0789710283,0.0071981549,-0.0021742582,
1856.433,-3.1913988590,1.3431015015,-166.6224975586,0.0605487712,0.0463790074,0.0096390247,-20.3857116699,65.4907531738,93.4940109253,0.1652654409,0.0904302299,-0.0459305048,-19.3780727386,83.2114028931,-31.8213500977,0.0257039070,0.0266381726,0.0254552811,25.2003955841,56.3504409790,-79.6355209351,0.0673055649,0.0105561614,0.0086843371,
1856.443,-3.1929361820,1.3446477652,-166.6213836670,0.0566695035,0.0371284112,0.0018288493,-20.2579898834,65.4068374634,93.6343994141,0.1739342213,0.0905111432,-0.0455469489,-19.3752670288,83.2144088745,-31.8081245422,0.0257101059,0.0305214897,0.0225734711,25.2054862976,56.3513183594,-79.6251525879,0.0765913725,0.0070990026,0.0135994554,
1856.453,-3.1933865547,1.3455228806,-166.6202697754,0.0591261759,0.0429956131,0.0052474737,-20.1597099304,65.3254165649,93.7515945435,0.1713887453,0.0810078681,-0.0509109497,-19.3914699554,83.2160568237,-31.8115329742,0.0203424096,0.0266380012,0.0299352258,25.2092571259,56.3464775085,-79.6144866943,0.0784976482,0.0045945942,0.0130630136,
1856.463,-3.1916482449,1.3448081017,-166.6190185547,0.0581371449,0.0463833176,0.0013393760,-20.0699195862,65.2468109131,93.8588333130,0.1688621044,0.0764253736,-0.0513274670,-19.4318332672,83.2201309204,-31.8397064209,0.0174211264,0.0218117237,0.0275873095,25.2179260254,56.3466949463,-79.6010894775,0.0745935440,-0.0023158491,0.0043125749,
