Time(sec),Gyr1_X(deg/sec),Gyr1_Y(deg/sec),Gyr1_Z(deg/sec),Acc1_X(m/s^2),Acc1_Y(m/s^2),Acc1_Z(m/s^2),Gyr2_X(deg/sec),Gyr2_Y(deg/sec),Gyr2_Z(deg/sec),Acc2_X(m/s^2),Acc2_Y(m/s^2),Acc2_Z(m/s^2),Gyr_X(deg/sec),Gyr_Y(deg/sec),Gyr_Z(deg/sec),Acc_X(m/s^2),Acc_Y(m/s^2),Acc_Z(m/s^2),Gyr_X(deg/sec),Gyr_Y(deg/sec),Gyr_Z(deg/sec),Acc_X(m/s^2),Acc_Y(m/s^2),Acc_Z(m/s^2),
1781.453,-3.2020411491,1.3361907005,-174.2813873291,0.0565219373,0.0392403491,0.0052522421,-115.4777450562,75.0391006470,-20.1839942932,0.0388561487,0.0533341169,0.0055443347,-7.0816073418,82.8324279785,-77.0451202393,0.0214823484,0.0253565609,0.0156153440,22.9855766296,55.8628997803,-107.7580337524,0.0845330954,0.0073422492,0.0032092333,
1781.463,-3.2024123669,1.3356435299,-174.2813873291,0.0574889556,0.0411999524,0.0067170858,-115.4814071655,75.0300292969,-20.1898918152,0.0358855724,0.0607875288,0.0134375393,-7.0527091026,82.8337936401,-77.0085830688,0.0224618912,0.0272434950,0.0239316225,22.9810714722,55.8640213013,-107.7600784302,0.0777081251,0.0025063902,0.0022302866,
1781.473,-3.2029528618,1.3353464603,-174.2795867920,0.0589486137,0.0426742174,0.0018346906,-115.4848709106,75.0195388794,-20.1917018890,0.0329085588,0.0580117106,0.0120626092,-7.0434904099,82.8338699341,-76.9911270142,0.0214855075,0.0247817636,0.0253949463,22.9825763702,55.8676757813,-107.7559432983,0.0723728538,0.0054430962,-0.0040628910,
1781.483,-3.2024204731,1.3352309465,-174.2784271240,0.0584583171,0.0377821364,0.0096466541,-115.4991607666,75.0106658936,-20.2042522430,0.0304270983,0.0649535060,0.0077907443,-7.0400257111,82.8339004517,-76.9781112671,0.0273449421,0.0228208601,0.0283255577,22.9852180481,55.8693656921,-107.7514648438,0.0767838955,0.0054288059,-0.0074484348,
1781.493,-3.2025530338,1.3344933987,-174.2772216797,0.0603985712,0.0441321246,0.0028105378,-115.5085983276,75.0047225952,-20.2103557587,0.0362596512,0.0660022497,0.0156849623,-7.0157604218,82.8339004517,-76.9475402832,0.0244152546,0.0261859596,0.0263628662,22.9835014343,55.8685531616,-107.7500152588,0.0782408118,0.0054396093,0.0110883117,
1781.503,-3.2022449970,1.3357474804,-174.2748565674,0.0560259223,0.0411970429,0.0091584921,-115.5316772461,74.9973602295,-20.2302875519,0.0342732668,0.0563032031,0.0065553784,-7.0236167908,82.8330535889,-76.9457702637,0.0263665318,0.0218100548,0.0283074379,22.9878330231,55.8689193726,-107.7440032959,0.0762912631,0.0083324313,0.0013452768,
1781.513,-3.2017240524,1.3375180960,-174.2737731934,0.0584982261,0.0441176072,0.0159946084,-115.5348052979,74.9923171997,-20.2284564972,0.0332739353,0.0549085736,0.0168585479,-7.0389490128,82.8348388672,-76.9524078369,0.0273469687,0.0213519931,0.0180841386,22.9873390198,55.8691215515,-107.7426681519,0.0718986988,0.0029667914,0.0042744875,
1781.523,-3.2017378807,1.3351742029,-174.2725067139,0.0618752986,0.0402116477,0.0067163706,-115.5511550903,74.9921340942,-20.2383995056,0.0298551321,0.0631801784,0.0120441020,-7.0291576385,82.8323669434,-76.9324264526,0.0288064480,0.0247534811,0.0282955766,22.9892997742,55.8688354492,-107.7387161255,0.0738490224,0.0083186775,0.0023258328,
1781.533,-3.2017526627,1.3333514929,-174.2712860107,0.0618434921,0.0446064807,-0.0025621057,-115.5497741699,74.9943237305,-20.2326259613,0.0284001827,0.0621725321,0.0217882097,-7.0276393890,82.8305892944,-76.9209747314,0.0258728862,0.0276836157,0.0243582129,22.9897117615,55.8684272766,-107.7372131348,0.0792161226,0.0068477988,0.0013453364,
1781.543,-3.2003648281,1.3316613436,-174.2694244385,0.0618140027,0.0450706258,0.0057369471,-115.5487060547,74.9981231689,-20.2253265381,0.0352532864,0.0591881573,0.0217562318,-7.0036411285,82.8291397095,-76.8893356323,0.0248931646,0.0281223059,0.0243273973,22.9853134155,55.8685302734,-107.7367095947,0.0762874484,0.0024935007,0.0047478676,
1781.553,-3.2010605335,1.3317043781,-174.2682800293,0.0598616302,0.0421530604,0.0042726994,-115.5465469360,75.0011520386,-20.2165184021,0.0313607454,0.0620754957,0.0173309743,-7.0076255798,82.8303985596,-76.8837738037,0.0200130939,0.0222688615,0.0248398781,22.9905052185,55.8688507080,-107.7298965454,0.0792202950,0.0092844814,0.0013540983,
1781.563,-3.2018470764,1.3305660486,-174.2671051025,0.0617948920,0.0397253782,0.0028082132,-115.5428771973,75.0056991577,-20.2044525146,0.0279632807,0.0605489314,0.0197243392,-6.9844293594,82.8329696655,-76.8512573242,0.0239249468,0.0280723572,0.0199915469,22.9890022278,55.8685417175,-107.7261962891,0.0743344426,0.0029485822,0.0023206472,
1781.573,-3.2011883259,1.3295593262,-174.2665100098,0.0612890422,0.0426436141,0.0047603846,-115.5383148193,75.0105819702,-20.1917419434,0.0274970531,0.0590198338,0.0142992437,-6.9982399940,82.8352432251,-76.8544692993,0.0239298940,0.0251680315,0.0224768519,22.9897937775,55.8691215515,-107.7206802368,0.0772697926,0.0044095516,0.0028197765,
1781.583,-3.2012205124,1.3293845654,-174.2660217285,0.0627508387,0.0402027704,0.0072016716,-115.5179748535,75.0156631470,-20.1651496887,0.0324028134,0.0555636883,0.0200386345,-6.9819951057,82.8370513916,-76.8290100098,0.0258869529,0.0309882462,0.0195716321,22.9907131195,55.8684272766,-107.7161865234,0.0753098726,0.0024442822,0.0023257732,
1781.593,-3.2007787228,1.3281292915,-174.2642211914,0.0627289340,0.0416599438,0.0135483742,-115.5049438477,75.0156631470,-20.1464576721,0.0338676572,0.0536360443,0.0063135028,-6.9850831032,82.8391571045,-76.8238601685,0.0229618549,0.0265957713,0.0191233158,22.9945240021,55.8679199219,-107.7090148926,0.0782345533,0.0068015158,0.0023334026,
1781.603,-3.2000007629,1.3277914524,-174.2642517090,0.0588167906,0.0431112461,0.0042701364,-115.4965515137,75.0101852417,-20.1339836121,0.0343312025,0.0498290956,-0.0024703443,-6.9881181717,82.8405303955,-76.8164138794,0.0268710852,0.0251350701,0.0181671977,22.9922237396,55.8672523499,-107.7074737549,0.0762749314,0.0034005493,0.0067104101,
1781.613,-3.1999964714,1.3256783485,-174.2630157471,0.0631744564,0.0445760638,0.0057340860,-115.4926223755,75.0069885254,-20.1277942657,0.0391995907,0.0557455420,0.0068140328,-7.0123343468,82.8397064209,-76.8330764771,0.0263810158,0.0222600996,0.0215777755,22.9894657135,55.8660125732,-107.7053604126,0.0801690221,0.0019535869,0.0081480742,
1781.623,-3.1993942261,1.3277598619,-174.2619781494,0.0612576455,0.0445655286,0.0032929182,-115.4807510376,75.0005264282,-20.1148796082,0.0421000719,0.0504940748,0.0058356822,-7.0249471664,82.8430557251,-76.8368377686,0.0273648500,0.0232570469,0.0182221830,22.9861202240,55.8672294617,-107.7058639526,0.0816457868,0.0019905716,0.0027802587,
1781.633,-3.2015557289,1.3265177011,-174.2595977783,0.0602594092,0.0348375849,0.0028064251,-115.4834899902,74.9967346191,-20.1182289124,0.0347587466,0.0608015358,0.0019678473,-7.0183897018,82.8423385620,-76.8253250122,0.0258984566,0.0281272829,0.0274829865,22.9871444702,55.8666534424,-107.7025146484,0.0762690902,0.0093023926,0.0022888184,
1781.643,-3.2004153728,1.3270045519,-174.2572174072,0.0583147779,0.0421419218,-0.0025659800,-115.4890518188,74.9889678955,-20.1240310669,0.0332587957,0.0560241640,0.0088828504,-7.0074558258,82.8404235840,-76.8072662354,0.0244294405,0.0242008567,0.0269616842,22.9892120361,55.8675689697,-107.6980590820,0.0811608434,0.0078240335,-0.0025742650,
1781.653,-3.2011284828,1.3283357620,-174.2566986084,0.0554083213,0.0377597846,0.0096429586,-115.4988632202,74.9820022583,-20.1326751709,0.0283445120,0.0580653548,0.0070202649,-6.9897484779,82.8376541138,-76.7812500000,0.0258882642,0.0251444280,0.0283747613,22.9889945984,55.8683090210,-107.6968078613,0.0748204589,0.0058770478,0.0052472949,
1781.663,-3.1979968548,1.3281240463,-174.2542877197,0.0612640008,0.0489356965,0.0115923882,-115.5149154663,74.9700698853,-20.1458225250,0.0297553539,0.0538186729,0.0027777553,-6.9836325645,82.8383941650,-76.7681503296,0.0205187798,0.0231765509,0.0254542530,22.9847030640,55.8712844849,-107.6988067627,0.0694784522,0.0020262599,-0.0015655756,
1781.673,-3.2006270885,1.3264107704,-174.2524566650,0.0597692579,0.0353096873,0.0062233806,-115.5263061523,74.9594116211,-20.1554908752,0.0365430117,0.0549366176,0.0058314502,-6.9570398331,82.8357086182,-76.7344970703,0.0263723135,0.0284947753,0.0322395563,22.9862556458,55.8704338074,-107.6950836182,0.0836303234,0.0059137642,0.0003824234,
1781.683,-3.1993479729,1.3270474672,-174.2507019043,0.0578272454,0.0426116027,0.0018278360,-115.5342407227,74.9504928589,-20.1609210968,0.0277135372,0.0555426478,0.0132527053,-6.9490799904,82.8381729126,-76.7190017700,0.0200300217,0.0270074606,0.0195834935,22.9846267700,55.8732910156,-107.6947097778,0.0773106217,0.0025264770,-0.0010514259,
1781.693,-3.2000539303,1.3240330219,-174.2512817383,0.0636340231,0.0401825681,0.0008507967,-115.5365066528,74.9401931763,-20.1605453491,0.0345028043,0.0581373870,0.0079654753,-6.9460334778,82.8402557373,-76.7090911865,0.0219876766,0.0265084207,0.0142447352,22.9853172302,55.8737106323,-107.6914291382,0.0699905157,0.0069172382,0.0004224181,
1781.703,-3.2000417709,1.3240206242,-174.2507171631,0.0602158383,0.0445768908,0.0120812058,-115.5154037476,74.9321746826,-20.1376647949,0.0281187892,0.0558571815,0.0206321478,-6.9492273331,82.8385620117,-76.7045745850,0.0302847624,0.0226124823,0.0288671851,22.9831962585,55.8731422424,-107.6900482178,0.0743795037,0.0035151243,0.0028474331,
1781.713,-3.2011749744,1.3232192993,-174.2496490479,0.0650846660,0.0362958722,0.0076875687,-115.4963226318,74.9213180542,-20.1145000458,0.0314874649,0.0555719137,0.0147727728,-6.9439187050,82.8375396729,-76.6916885376,0.0253997445,0.0265092254,0.0239655375,22.9778041840,55.8731422424,-107.6915969849,0.0748677850,-0.0013189167,0.0028278232,
1781.723,-3.2004296780,1.3228703737,-174.2485198975,0.0636137426,0.0406774208,0.0106162429,-115.4644775391,74.9088363647,-20.0740032196,0.0358253121,0.0597291589,0.0122904181,-6.9470472336,82.8380661011,-76.6885299683,0.0293071270,0.0250500739,0.0259290338,22.9803810120,55.8725662231,-107.6865844727,0.0748621225,0.0059787482,0.0018526316,
1781.733,-3.1989047527,1.3246657848,-174.2480468750,0.0577856898,0.0435805060,0.0008499622,-115.4025268555,74.8925933838,-19.9971885681,0.0372163057,0.0532608628,0.0258238316,-6.9482507706,82.8365325928,-76.6834716797,0.0249092579,0.0250560045,0.0298082232,22.9838695526,55.8729515076,-107.6807403564,0.0748658776,0.0059494525,-0.0025230646,
1781.743,-3.1976370811,1.3236416578,-174.2468872070,0.0636271909,0.0425818786,0.0052427649,-115.3013839722,74.8678131104,-19.8803291321,0.0336855054,0.0489505827,0.0226544738,-6.9462442398,82.8332138062,-76.6732711792,0.0288082957,0.0265231729,0.0370771289,22.9890537262,55.8700408936,-107.6737289429,0.0816733241,0.0141869932,0.0067348480,
1781.753,-3.1978919506,1.3232158422,-174.2457122803,0.0592252314,0.0416097678,0.0003600121,-115.1700439453,74.8360595703,-19.7365379333,0.0335406661,0.0418780744,0.0198961198,-6.9489641190,82.8351669312,-76.6691894531,0.0273476839,0.0260370076,0.0219722390,22.9877738953,55.8697433472,-107.6702880859,0.0753227472,0.0068727285,0.0042854548,
1781.763,-3.1977989674,1.3241193295,-174.2421112061,0.0572878718,0.0425846949,0.0028017759,-114.9785232544,74.8021545410,-19.5346698761,0.0226435661,0.0408114791,0.0261768997,-6.9815001488,82.8402023315,-76.6942062378,0.0263820887,0.0231678784,0.0157213211,22.9899253845,55.8700180054,-107.6638259888,0.0806965828,0.0107610971,0.0008786321,
1781.773,-3.1973276138,1.3236886263,-174.2421875000,0.0611866117,0.0420882031,0.0018246174,-114.7291564941,74.7596435547,-19.2738895416,0.0312378407,0.0399871469,0.0239706635,-7.0228409767,82.8432693481,-76.7296524048,0.0254122019,0.0242288113,0.0250585377,22.9869194031,55.8720436096,-107.6625137329,0.0694859028,-0.0018956512,0.0013831854,
1781.783,-3.1973521709,1.3226073980,-174.2403564453,0.0597028956,0.0401355326,0.0062183738,-114.3915023804,74.7054061890,-18.9200592041,0.0275706053,0.0312080085,0.0351385176,-7.0759596825,82.8455734253,-76.7754592896,0.0224875212,0.0258046985,0.0285331309,22.9866352081,55.8716392517,-107.6570358276,0.0724116564,0.0000576973,-0.0000889897,
1781.793,-3.1995449066,1.3233472109,-174.2380371094,0.0597158112,0.0411502793,0.0018265843,-113.9875411987,74.6387710571,-18.5050773621,0.0360522270,0.0276210308,0.0260767043,-7.1324095726,82.8495025635,-76.8237304688,0.0244491696,0.0254319310,0.0281225443,22.9850215912,55.8701438904,-107.6527633667,0.0777680874,0.0000638515,0.0037916899,
1781.803,-3.2000679970,1.3246960640,-174.2381439209,0.0572979376,0.0406710766,0.0071987510,-113.5114440918,74.5651855469,-18.0152244568,0.0352229476,0.0423365831,0.0347996354,-7.1842393875,82.8519363403,-76.8687744141,0.0298255682,0.0240747035,0.0267174840,22.9781055450,55.8684272766,-107.6544342041,0.0738450289,-0.0008599907,0.0076487064,
1781.813,-3.2006216049,1.3240355253,-174.2369537354,0.0602160990,0.0426338613,0.0052459240,-112.9637298584,74.4817810059,-17.4498043060,0.0309282541,0.0358399749,0.0339744091,-7.2525000572,82.8578109741,-76.9312667847,0.0283734798,0.0222584009,0.0180427730,22.9768810272,55.8677139282,-107.6499099731,0.0870215893,0.0040298104,0.0017750263,
1781.823,-3.2010562420,1.3251819611,-174.2352447510,0.0582829751,0.0387351662,0.0047581792,-112.3264083862,74.3925552368,-16.8002586365,0.0329518318,0.0349530876,0.0381321311,-7.3261766434,82.8612213135,-76.9994125366,0.0234980583,0.0209465623,0.0191009641,22.9740753174,55.8684577942,-107.6489181519,0.0757984519,0.0050359219,0.0022625923,
1781.833,-3.2009894848,1.3265846968,-174.2341308594,0.0573308915,0.0426402129,0.0067120790,-111.6128692627,74.3057250977,-16.0811119080,0.0325430036,0.0497676134,0.0321300626,-7.3781099319,82.8635330200,-77.0473480225,0.0249679089,0.0249613225,0.0206162035,22.9694004059,55.8688240051,-107.6477127075,0.0762903094,0.0011738092,0.0056669712,
1781.843,-3.2020061016,1.3258477449,-174.2335662842,0.0626891255,0.0431462228,0.0101307631,-110.8210220337,74.2241363525,-15.2833719254,0.0184849501,0.0528881252,0.0403472781,-7.4603905678,82.8688354492,-77.1283340454,0.0288856626,0.0163395405,0.0217090249,22.9690399170,55.8726081848,-107.6431121826,0.0709562898,0.0041281283,-0.0016074181,
1781.853,-3.2018079758,1.3254405260,-174.2323760986,0.0592640489,0.0431427807,0.0032944083,-109.9665374756,74.1400222778,-14.4164676666,0.0180847645,0.0546503961,0.0418953598,-7.5327682495,82.8688888550,-77.1993255615,0.0269326568,0.0267511308,0.0305178463,22.9700469971,55.8750762939,-107.6375274658,0.0807460546,0.0080391467,0.0008698702,
1781.863,-3.2029068470,1.3250590563,-174.2312011719,0.0592573956,0.0407205299,0.0057368279,-109.0765533447,74.0437698364,-13.5046348572,0.0195774436,0.0507552922,0.0301046968,-7.6399288177,82.8746185303,-77.3015899658,0.0230388045,0.0264831483,0.0267396569,22.9768085480,55.8786010742,-107.6270904541,0.0719915032,0.0040918887,0.0009433627,
1781.873,-3.2031321526,1.3258911371,-174.2294158936,0.0548773818,0.0417009965,-0.0025637746,-108.1764068604,73.9308471680,-12.5660648346,0.0219634771,0.0549076796,0.0251206756,-7.7611556053,82.8826370239,-77.4187164307,0.0235444307,0.0296578705,0.0220293403,22.9906539917,55.8816986084,-107.6092224121,0.0627444983,0.0083789080,0.0073841810,
1781.883,-3.2020530701,1.3278415203,-174.2276916504,0.0578411035,0.0460766852,0.0115963221,-107.2604064941,73.7918395996,-11.5899763107,0.0261719227,0.0433368087,0.0176730454,-7.9109544754,82.8923645020,-77.5627822876,0.0181943774,0.0275192261,0.0202829838,23.0056018829,55.8802833557,-107.5866546631,0.0793322325,0.0077480525,0.0010759234,
1781.893,-3.2010331154,1.3277513981,-174.2246704102,0.0583278127,0.0416643843,-0.0020765066,-106.3189620972,73.6253204346,-10.5703697205,0.0312160254,0.0361011028,0.0174656212,-8.0805015564,82.9016189575,-77.7268676758,0.0221205950,0.0210283995,0.0190289021,23.0134963989,55.8763771057,-107.5718002319,0.0680634975,0.0042367280,0.0127719641,
1781.903,-3.1985151768,1.3294322491,-174.2223205566,0.0588454194,0.0489447042,0.0096403956,-105.3690109253,73.4268341064,-9.5145292282,0.0321867466,0.0347120762,0.0118778050,-8.2238998413,82.9119110107,-77.8641738892,0.0236076117,0.0310797095,0.0285207331,23.0231933594,55.8744926453,-107.5564346313,0.0699982047,-0.0061150938,0.0030195713,
1781.913,-3.2006375790,1.3292635679,-174.2218017578,0.0607956052,0.0392160565,0.0130605102,-104.3958511353,73.1967391968,-8.4087858200,0.0393342972,0.0245348215,0.0183870494,-8.3954229355,82.9202194214,-78.0314102173,0.0246020555,0.0343590677,0.0277407765,23.0359172821,55.8696937561,-107.5376205444,0.0748339891,0.0069264472,0.0054444671,
1781.923,-3.2010526657,1.3276263475,-174.2205352783,0.0593021885,0.0431295745,0.0037829280,-103.4247436523,72.9411392212,-7.3052291870,0.0375468731,0.0181332827,0.0170448124,-8.5534524918,82.9265365601,-78.1842575073,0.0290101767,0.0249185264,0.0225252807,23.0451698303,55.8665313721,-107.5225830078,0.0738264918,-0.0034285784,0.0029975176,
1781.933,-3.2019972801,1.3289107084,-174.2188110352,0.0559066311,0.0367983393,0.0125733614,-102.4820404053,72.6603164673,-6.2413449287,0.0468397737,0.0262151659,-0.0105909109,-8.7291154861,82.9346084595,-78.3575820923,0.0319572091,0.0194166005,0.0163723230,23.0576629639,55.8634796143,-107.5061111450,0.0801442266,0.0047423244,-0.0077373981,
1781.943,-3.2008328438,1.3289630413,-174.2170104980,0.0578606725,0.0421491526,0.0057364106,-101.5391311646,72.3641052246,-5.1890797615,0.0428447723,0.0286355615,-0.0036770701,-8.8542737961,82.9391403198,-78.4817962646,0.0300137997,0.0279750526,0.0321128368,23.0629253387,55.8612442017,-107.4990692139,0.0752395391,0.0027291179,0.0059249997,
1781.953,-3.1989655495,1.3311017752,-174.2152709961,0.0549682975,0.0445579812,0.0096416473,-100.6211013794,72.0471954346,-4.1607193947,0.0382248163,0.0366822183,-0.0152990222,-8.9807271957,82.9446182251,-78.6088790894,0.0251427293,0.0253023207,0.0244371593,23.0651493073,55.8614654541,-107.4934387207,0.0723119974,-0.0007076561,0.0074014664,
1781.963,-3.1994502544,1.3307921886,-174.2147369385,0.0613105595,0.0406601764,0.0135481358,-99.6935958862,71.7026062012,-3.1195952892,0.0451428890,0.0270680189,0.0002665818,-9.0951557159,82.9525680542,-78.7284240723,0.0193004012,0.0299212039,0.0221678317,23.0664405823,55.8616905212,-107.4916610718,0.0737790465,0.0007467121,0.0049672127,
1781.973,-3.1991152763,1.3299551010,-174.2154388428,0.0647139251,0.0416309275,0.0042701960,-98.7822952271,71.3182754517,-2.0956709385,0.0327617526,0.0273039043,0.0021527708,-9.2102966309,82.9557723999,-78.8473663330,0.0232135057,0.0277179778,0.0310500264,23.0697689056,55.8576545715,-107.4863128662,0.0864347816,0.0036235601,0.0063915849,
1781.983,-3.1999576092,1.3310458660,-174.2136993408,0.0564321652,0.0372510441,0.0076893568,-97.9071426392,70.8988037109,-1.0973917246,0.0391803384,0.0304628611,-0.0037028491,-9.3376464844,82.9630203247,-78.9784622192,0.0222524405,0.0269939005,0.0204762816,23.0758609772,55.8584098816,-107.4794692993,0.0747234821,-0.0022863448,-0.0023639202,
1781.993,-3.1982536316,1.3336802721,-174.2119750977,0.0530601665,0.0440572351,0.0037825108,-97.0955886841,70.4436874390,-0.1476506740,0.0424106121,0.0438590050,-0.0098272562,-9.4793281555,82.9665832520,-79.1261749268,0.0222600698,0.0307052433,0.0323029160,23.0862312317,55.8580894470,-107.4684448242,0.0766735077,0.0025011599,-0.0033048391,
1782.003,-3.1953780651,1.3338047266,-174.2107543945,0.0594099946,0.0503547974,-0.0006145835,-96.3297424316,69.9494400024,0.7614041567,0.0463240147,0.0363166630,-0.0050877631,-9.5827693939,82.9707183838,-79.2334747314,0.0261751413,0.0333558917,0.0319223404,23.0979232788,55.8543205261,-107.4568710327,0.0864021778,0.0087220222,0.0074322224,
1782.013,-3.1954104900,1.3339735270,-174.2102813721,0.0613660663,0.0381483212,0.0023152232,-95.5997314453,69.4188842773,1.6168571711,0.0435973406,0.0239088237,-0.0007837713,-9.6949148178,82.9751281738,-79.3493118286,0.0291142464,0.0257702172,0.0237363279,23.1041240692,55.8547210693,-107.4510650635,0.0751756430,0.0008559227,-0.0003510714,
1782.023,-3.1944205761,1.3347406387,-174.2078857422,0.0579614788,0.0435021557,0.0159863830,-94.8915786743,68.8590240479,2.4359719753,0.0406060219,0.0280127823,0.0190951824,-9.7779283524,82.9807662964,-79.4359970093,0.0335208178,0.0303255320,0.0272795558,23.1094417572,55.8561401367,-107.4455108643,0.0830020308,0.0037456900,-0.0017766356,
1782.033,-3.1936266422,1.3349605799,-174.2067260742,0.0594301634,0.0430000313,0.0096380115,-94.2311706543,68.2677536011,3.2147073746,0.0304868221,0.0344860256,0.0029548109,-9.8334512711,82.9853286743,-79.4938583374,0.0266945958,0.0314071774,0.0298179090,23.1147289276,55.8607940674,-107.4407653809,0.0698640347,0.0056775510,-0.0065773726,
1782.043,-3.1947824955,1.3320037127,-174.2061462402,0.0681676343,0.0405788310,0.0062198639,-93.5894088745,67.6430358887,3.9824364185,0.0312772989,0.0170034766,0.0126245022,-9.9260215759,82.9900512695,-79.5911560059,0.0237749815,0.0213368237,0.0313944221,23.1191978455,55.8633918762,-107.4370040894,0.0757488608,0.0027223378,-0.0045725107,
1782.053,-3.1949946880,1.3317593336,-174.2062683105,0.0647453964,0.0440005064,0.0003606677,-92.9723510742,66.9922027588,4.7344117165,0.0225024223,0.0374516547,0.0168820918,-10.0525665283,82.9983978271,-79.7232894897,0.0237927437,0.0279283524,0.0198668838,23.1228923798,55.8616905212,-107.4342041016,0.0776852965,0.0046324879,0.0086026192,
1782.063,-3.1940391064,1.3315095901,-174.2038116455,0.0569285452,0.0434955806,0.0067073703,-92.3967895508,66.3199996948,5.4815831184,0.0261543989,0.0439844728,0.0094970167,-10.1898546219,83.0046463013,-79.8687515259,0.0169700980,0.0233187377,0.0322280228,23.1297931671,55.8603973389,-107.4287719727,0.0688835979,0.0021215826,0.0056823492,
1782.073,-3.1943035126,1.3301202059,-174.2025756836,0.0583691448,0.0415470935,0.0018243194,-91.8332443237,65.6356353760,6.2259302139,0.0208036900,0.0335316062,0.0200523436,-10.3377656937,83.0099182129,-80.0267333984,0.0277234912,0.0260576904,0.0299326777,23.1319046021,55.8563613892,-107.4253768921,0.0820276737,0.0035444796,0.0188203454,
1782.083,-3.1930968761,1.3294880390,-174.2006835938,0.0559167042,0.0444557779,0.0037755966,-91.2523880005,64.9507217407,6.9731345177,0.0226432085,0.0352064669,0.0253796279,-10.5221014023,83.0173568726,-80.2230682373,0.0267627239,0.0220307112,0.0242691040,23.1340637207,55.8544349670,-107.4251022339,0.0751728415,-0.0042984337,0.0158734322,
1782.093,-3.1916835308,1.3282481432,-174.1994628906,0.0622427315,0.0473608635,0.0052388310,-90.6874160767,64.2715225220,7.7135362625,0.0283027887,0.0864963233,0.0066794753,-10.7093772888,83.0271148682,-80.4287567139,0.0179943442,0.0282554328,0.0210881531,23.1368827820,55.8558311462,-107.4238128662,0.0742099285,-0.0048041642,0.0080903172,
1782.103,-3.1921553612,1.3286148310,-174.1989440918,0.0607842840,0.0429745466,0.0052395463,-90.1853332520,63.5976562500,8.4790267944,0.0241115689,0.1136763990,0.0209709406,-10.8862323761,83.0358657837,-80.6213455200,0.0263136625,0.0290885270,0.0213086307,23.1461334229,55.8572692871,-107.4176788330,0.0800834298,0.0034214109,0.0096100569,
1782.113,-3.1933140755,1.3282467127,-174.1984100342,0.0612661429,0.0405533351,0.0067053437,-89.7646942139,62.9160461426,9.2568740845,0.0221762657,0.1067062318,0.0288890898,-11.1092252731,83.0428543091,-80.8609695435,0.0209573507,0.0212354362,0.0210239291,23.1552391052,55.8593597412,-107.4107589722,0.0737562180,0.0033512264,0.0033251047,
1782.123,-3.1917679310,1.3294199705,-174.1979064941,0.0578686446,0.0415029377,0.0023093820,-89.4267730713,62.2275886536,10.0268106461,0.0283601284,0.1007365286,0.0182815492,-11.3079891205,83.0518341064,-81.0779724121,0.0253708363,0.0260175169,0.0222371221,23.1665706635,55.8581962585,-107.4002685547,0.0820456147,0.0061721653,0.0116540194,
1782.133,-3.1894145012,1.3294965029,-174.1979370117,0.0593348220,0.0443916209,-0.0006223321,-89.1473236084,61.5300407410,10.7715482712,0.0348289013,0.0831118822,0.0124283433,-11.5168514252,83.0603332520,-81.3053512573,0.0229473710,0.0278923213,0.0219772756,23.1787376404,55.8616447449,-107.3897705078,0.0688958168,0.0051055998,0.0058873296,
1782.143,-3.1886994839,1.3298716545,-174.1992797852,0.0627593398,0.0429143123,0.0110959411,-88.8907165527,60.8230895996,11.4955863953,0.0308334827,0.0675030053,0.0135007203,-11.7352561951,83.0686492920,-81.5397644043,0.0219883323,0.0273444355,0.0275824964,23.1892395020,55.8621635437,-107.3825073242,0.0737836957,0.0040374100,0.0064229965,
1782.153,-3.1884989738,1.3294239044,-174.1980590820,0.0573804304,0.0409577042,0.0067011714,-88.6339721680,60.1014823914,12.1868095398,0.0392729044,0.0349407792,0.0227727294,-11.9575967789,83.0753555298,-81.7793426514,0.0273735523,0.0243679285,0.0253496468,23.2032070160,55.8650894165,-107.3714675903,0.0757654905,0.0073462725,0.0001682043,
1782.163,-3.1882612705,1.3285027742,-174.1980743408,0.0607823282,0.0433949865,0.0023059845,-88.3677291870,59.3676185608,12.8297348022,0.0342823267,0.0278599858,0.0191633403,-12.1264410019,83.0841445923,-81.9635314941,0.0244623423,0.0320133567,0.0255706310,23.2198944092,55.8691329956,-107.3590087891,0.0748285055,0.0062423795,-0.0070379972,
1782.173,-3.1866915226,1.3277143240,-174.1975097656,0.0627216995,0.0458090715,0.0062103271,-88.0925750732,58.6226234436,13.4223537445,0.0305142403,0.0203565955,0.0153685808,-12.3069505692,83.0898208618,-82.1548080444,0.0415641069,0.0250446498,0.0237939954,23.2320938110,55.8726806641,-107.3481063843,0.0787695050,0.0076176673,-0.0015726686,
1782.183,-3.1879363060,1.3276349306,-174.1970214844,0.0622320250,0.0360651277,0.0023053885,-87.8275375366,57.8741149902,13.9576139450,0.0343817472,0.0313606858,-0.0011332035,-12.4753847122,83.0960388184,-82.3312149048,0.0239990354,0.0317199826,0.0322749019,23.2542667389,55.8736495972,-107.3275146484,0.0714547634,0.0167008489,-0.0004978180,
1782.193,-3.1887886524,1.3288549185,-174.1953125000,0.0578587875,0.0394979194,-0.0001350641,-87.5846328735,57.1271476746,14.4618368149,0.0405607224,0.0642179251,0.0000558197,-12.6864986420,83.1060791016,-82.5508193970,0.0186489820,0.0233322084,0.0227729976,23.2717819214,55.8724822998,-107.3089141846,0.0694901943,0.0067709386,0.0029723048,
1782.203,-3.1894216537,1.3290096521,-174.1941375732,0.0598146096,0.0443917513,0.0140260458,-87.3813476563,56.3784828186,14.9487819672,0.0407211781,0.0672274828,-0.0013920665,-12.9000005722,83.1137084961,-82.7717666626,0.0230594873,0.0276520848,0.0273945332,23.2876129150,55.8705635071,-107.2908630371,0.0684948564,0.0046644211,0.0069144964,
1782.213,-3.1883728504,1.3297411203,-174.1942443848,0.0593390912,0.0419320650,0.0037713647,-87.2199783325,55.6262321472,15.4236421585,0.0441220999,0.0648331642,0.0004279315,-13.0993967056,83.1208267212,-82.9784011841,0.0264923573,0.0270604193,0.0251677036,23.2970695496,55.8668327332,-107.2776641846,0.0831067562,0.0006517619,0.0054367781,
1782.223,-3.1904954910,1.3298417330,-174.1931152344,0.0598291270,0.0370862298,0.0091447234,-87.1091232300,54.8756980896,15.8914260864,0.0390971303,0.0721021891,0.0022113025,-13.3237562180,83.1336135864,-83.2144927979,0.0240776539,0.0260089040,0.0147453547,23.3113727570,55.8672065735,-107.2643508911,0.0801807046,0.0049197078,-0.0003623962,
1782.233,-3.1916577816,1.3312574625,-174.1920318604,0.0574124232,0.0361298844,0.0106108785,-87.0501861572,54.1146469116,16.3376331329,0.0440782309,0.0525894761,-0.0087021589,-13.5428209305,83.1416168213,-83.4452209473,0.0231177807,0.0269165933,0.0223094225,23.3209514618,55.8659439087,-107.2558288574,0.0757738352,-0.0010330528,0.0055175424,
1782.243,-3.1920566559,1.3328226805,-174.1921081543,0.0564631708,0.0454141460,0.0047527552,-87.0190887451,53.3475646973,16.7708721161,0.0449472666,0.0501613617,-0.0042099953,-13.7518920898,83.1493377686,-83.6681518555,0.0294815302,0.0238967538,0.0181490481,23.3330955505,55.8637847900,-107.2455520630,0.0781941414,-0.0016428381,0.0055364370,
1782.253,-3.1907823086,1.3335793018,-174.1909179688,0.0574529395,0.0468567647,0.0067049265,-87.0095672607,52.5724983215,17.1863288879,0.0441229939,0.0472598672,0.0014758408,-13.9652767181,83.1579360962,-83.8970870972,0.0265697241,0.0286942720,0.0262086689,23.3495426178,55.8635902405,-107.2326049805,0.0801453590,0.0099267513,0.0021794438,
1782.263,-3.1906437874,1.3329896927,-174.1909332275,0.0598840564,0.0429481193,0.0096341968,-87.0261688232,51.7915878296,17.5784130096,0.0455316901,0.0458073616,-0.0076957345,-14.1589460373,83.1641845703,-84.1064529419,0.0212116241,0.0266227126,0.0269026160,23.3656692505,55.8630676270,-107.2195281982,0.0859995484,0.0136849582,-0.0006947517,
1782.273,-3.1935999393,1.3331221342,-174.1892547607,0.0618394911,0.0342105478,0.0052425861,-87.0707931519,51.0004463196,17.9396266937,0.0442407131,0.0453717709,-0.0136248469,-14.3278799057,83.1700439453,-84.2913589478,0.0270831585,0.0298738778,0.0246408284,23.3759460449,55.8644332886,-107.2130584717,0.0718528032,0.0013933331,0.0027814507,
1782.283,-3.1955034733,1.3332821131,-174.1881256104,0.0594008751,0.0401030853,0.0028031468,-87.1210327148,50.1991882324,18.2799167633,0.0402471423,0.0337250233,-0.0048269331,-14.5267477036,83.1740112305,-84.5069885254,0.0256265402,0.0204966962,0.0306721330,23.3869533539,55.8666648865,-107.2045898438,0.0718746185,0.0042367131,0.0052949190,
1782.293,-3.1938626766,1.3331148624,-174.1881561279,0.0603745207,0.0439807549,0.0047547221,-87.1784591675,49.3931884766,18.6004486084,0.0419088006,0.0391104221,0.0011455417,-14.7283172607,83.1810760498,-84.7249298096,0.0251529217,0.0223418772,0.0269884169,23.3962993622,55.8701591492,-107.1959533691,0.0709322691,0.0027079284,0.0009832382,
1782.303,-3.1943101883,1.3304800987,-174.1875762939,0.0671644807,0.0430120453,0.0091485977,-87.2595214844,48.5766563416,18.9057273865,0.0447635055,0.0367067456,0.0078991055,-14.9459218979,83.1916732788,-84.9591217041,0.0227334499,0.0276204646,0.0219096541,23.4121913910,55.8684883118,-107.1844329834,0.0782401562,0.0098796934,0.0103003979,
1782.313,-3.1930007935,1.3299492598,-174.1864013672,0.0598310046,0.0405478403,0.0071938634,-87.3714981079,47.7620010376,19.1878070831,0.0377222300,0.0380680561,-0.0030131042,-15.1695384979,83.2010192871,-85.2024841309,0.0242176056,0.0294972360,0.0246268511,23.4268074036,55.8722724915,-107.1738586426,0.0738826990,0.0053754598,-0.0013114810,
1782.323,-3.1929059029,1.3314912319,-174.1858978271,0.0569282249,0.0405461490,0.0130539536,-87.4948272705,46.9396476746,19.4501075745,0.0343458056,0.0330489874,-0.0005627871,-15.4222726822,83.2115859985,-85.4749526978,0.0237511396,0.0236131549,0.0215218067,23.4428100586,55.8710021973,-107.1612014771,0.0763116479,0.0096188337,0.0041049719,
1782.333,-3.1967976093,1.3301035166,-174.1847381592,0.0608102605,0.0308483578,0.0106157660,-87.6227645874,46.1069335938,19.6911430359,0.0360646844,0.0285096169,0.0088244975,-15.6872262955,83.2188339233,-85.7597885132,0.0281606317,0.0246026814,0.0339967012,23.4638538361,55.8690223694,-107.1437606812,0.0875227451,0.0099066049,0.0070904493,
1782.343,-3.1961231232,1.3295944929,-174.1830139160,0.0642193481,0.0425553694,0.0086617470,-87.7491149902,45.2647819519,19.9187831879,0.0389802456,0.0249153376,0.0157993436,-15.9486789703,83.2320098877,-86.0427551270,0.0291643143,0.0206730962,0.0167823136,23.4800987244,55.8704490662,-107.1314468384,0.0719116926,0.0083040148,0.0022900105,
1782.353,-3.1940844059,1.3293644190,-174.1812133789,0.0607973598,0.0474026725,0.0003585219,-87.8724670410,44.4121971130,20.1265487671,0.0372177958,0.0286177397,0.0032529235,-16.2178287506,83.2406768799,-86.3340454102,0.0262524486,0.0221482217,0.0278235376,23.4931392670,55.8726272583,-107.1221008301,0.0773041248,0.0018516630,-0.0015366673,
1782.363,-3.1932930946,1.3293967247,-174.1806945801,0.0622627698,0.0429943539,0.0135416389,-87.9857406616,43.5582809448,20.3226985931,0.0274710059,0.0307070613,0.0184616745,-16.4890346527,83.2547073364,-86.6308059692,0.0218867064,0.0275065601,0.0233269930,23.5016212463,55.8754997253,-107.1147003174,0.0768439770,0.0017921031,0.0053708553,
1782.373,-3.1935861111,1.3308855295,-174.1795196533,0.0549645275,0.0434877016,0.0091480613,-88.1008987427,42.7068099976,20.5084381104,0.0259032845,0.0330948830,0.0156750977,-16.7785091400,83.2662887573,-86.9475250244,0.0170276165,0.0221675634,0.0266183019,23.5091609955,55.8753204346,-107.1106872559,0.0822132826,0.0031880140,0.0088150501,
1782.383,-3.1933572292,1.3289881945,-174.1795043945,0.0622556433,0.0454368852,0.0076818466,-88.2260665894,41.8617362976,20.6793937683,0.0193861723,0.0401313901,0.0159967840,-17.1003875732,83.2778930664,-87.2930755615,0.0219341516,0.0242138803,0.0216325819,23.5220355988,55.8778991699,-107.0998535156,0.0793088675,0.0011342317,-0.0008655787,
1782.393,-3.1931209564,1.3276270628,-174.1782073975,0.0563725159,0.0410382636,0.0091461539,-88.3648071289,41.0237388611,20.8460369110,0.0152583718,0.0513223410,0.0224073231,-17.4521083832,83.2908554077,-87.6707153320,0.0253785849,0.0263100266,0.0235220790,23.5426540375,55.8760337830,-107.0829315186,0.0753843188,0.0121687204,0.0030964613,
1782.403,-3.1921184063,1.3282825947,-174.1776428223,0.0578487962,0.0459036008,0.0115869641,-88.5304412842,40.1915588379,21.0095062256,0.0203451514,0.0603407025,0.0311810672,-17.8160190582,83.3040237427,-88.0590591431,0.0175929070,0.0211000443,0.0254298747,23.5614471436,55.8751945496,-107.0664749146,0.0739113092,0.0051592588,0.0080418587,
1782.413,-3.1916186810,1.3276383877,-174.1788330078,0.0573492758,0.0444300696,-0.0006207228,-88.7262878418,39.3501091003,21.1627864838,0.0310301185,0.0429368615,0.0189358890,-18.1599826813,83.3169784546,-88.4259262085,0.0225020647,0.0300089121,0.0258569419,23.5815925598,55.8762397766,-107.0482635498,0.0646442175,0.0035195649,0.0056931973,
1782.423,-3.1918895245,1.3262823820,-174.1775665283,0.0583021790,0.0415051207,0.0032852292,-88.9300994873,38.4959487915,21.3113269806,0.0326155424,0.0342888832,0.0161405802,-18.5177822113,83.3290786743,-88.8064117432,0.0264328718,0.0247848928,0.0189601183,23.6001434326,55.8761672974,-107.0329132080,0.0744091272,0.0062823445,0.0008822680,
1782.433,-3.1896674633,1.3281192780,-174.1764221191,0.0558928251,0.0458609052,0.0091427565,-89.1281967163,37.6354827881,21.4623527527,0.0266513824,0.0245472193,0.0260307640,-18.8446311951,83.3417663574,-89.1571121216,0.0303648114,0.0292590261,0.0237751603,23.6145896912,55.8741226196,-107.0205535889,0.0782953501,0.0046759397,0.0033525229,
1782.443,-3.1904067993,1.3269059658,-174.1764526367,0.0622193068,0.0419675596,0.0135378838,-89.3185195923,36.7650833130,21.6160659790,0.0252933502,0.0239984989,0.0207404792,-19.1635932922,83.3554763794,-89.4998550415,0.0279511213,0.0278492868,0.0193263888,23.6279487610,55.8750114441,-107.0100250244,0.0709798336,0.0030964017,0.0014643669,
1782.453,-3.1917223930,1.3281910419,-174.1759185791,0.0554057956,0.0400373265,0.0042623281,-89.4964141846,35.8966827393,21.7701473236,0.0233372450,0.0242114663,0.0182667524,-19.5211448669,83.3702468872,-89.8800735474,0.0235863924,0.0260162354,0.0173645318,23.6406860352,55.8773269653,-106.9993286133,0.0753970146,0.0000656396,-0.0018743277,
1782.463,-3.1909677982,1.3290656805,-174.1735229492,0.0573741794,0.0449069776,0.0096329451,-89.6619567871,35.0337677002,21.9206161499,0.0183950663,0.0261282325,0.0225099921,-19.8804378510,83.3816452026,-90.2629547119,0.0197030902,0.0325026810,0.0319537818,23.6562538147,55.8766822815,-106.9854278564,0.0753906965,0.0013872236,0.0059919357,
1782.473,-3.1928260326,1.3314840794,-174.1723937988,0.0515570045,0.0381033495,0.0037764311,-89.8358154297,34.1790390015,22.0615615845,0.0222300291,0.0350973010,0.0230180323,-20.2929725647,83.3949050903,-90.6978302002,0.0128937960,0.0263802707,0.0270845890,23.6769084930,55.8745269775,-106.9661254883,0.0807406902,0.0036308020,0.0031148195,
1782.483,-3.1930794716,1.3325546980,-174.1719665527,0.0628061518,0.0415257141,0.0106129646,-90.0256576538,33.3285598755,22.1949520111,0.0220956206,0.0443228483,0.0242985040,-20.7251586914,83.4110794067,-91.1519622803,0.0212270021,0.0300387740,0.0217903554,23.7023429871,55.8709564209,-106.9415893555,0.0743581057,0.0087530464,0.0080505610,
1782.493,-3.1932108402,1.3306559324,-174.1713409424,0.0622847416,0.0420163348,0.0052413344,-90.2283020020,32.4844360352,22.3235378265,0.0170509815,0.0445054173,0.0267985463,-21.1829967499,83.4250183105,-91.6312332153,0.0246728659,0.0298467875,0.0277159512,23.7273807526,55.8663139343,-106.9179992676,0.0708946586,0.0021538287,0.0051581860,
1782.503,-3.1927151680,1.3296394348,-174.1701202393,0.0593373179,0.0420077182,0.0057286620,-90.4423904419,31.6427993774,22.4438838959,0.0187626481,0.0464235544,0.0246405452,-21.6359233856,83.4370193481,-92.1050186157,0.0198140144,0.0306284726,0.0301933289,23.7524280548,55.8607101440,-106.8923873901,0.0776757002,0.0058028102,0.0022531152,
1782.513,-3.1949312687,1.3291779757,-174.1677551270,0.0617706701,0.0410697721,0.0018243790,-90.6600189209,30.8022518158,22.5611152649,0.0154946446,0.0354397893,0.0255218148,-22.0852451324,83.4473648071,-92.5713653564,0.0237408876,0.0284776688,0.0321620405,23.7761707306,55.8581962585,-106.8675155640,0.0776510835,0.0065518767,-0.0035457611,
1782.523,-3.1946520805,1.3266466856,-174.1659545898,0.0646561906,0.0391118415,0.0032880306,-90.8768539429,29.9643325806,22.6722793579,0.0189920366,0.0335133076,0.0249801576,-22.5360336304,83.4586563110,-93.0377273560,0.0305992961,0.0243662894,0.0214536488,23.8009548187,55.8523063660,-106.8405532837,0.0829644799,0.0097132623,-0.0040138960,
1782.533,-3.1948354244,1.3274489641,-174.1641235352,0.0553928465,0.0459509492,0.0106126666,-91.0956039429,29.1301612854,22.7777462006,0.0199984014,0.0352620482,0.0220780224,-22.9838695526,83.4687728882,-93.5018997192,0.0276896954,0.0290398598,0.0263574123,23.8216228485,55.8452415466,-106.8174514771,0.0706882477,0.0050922781,0.0072051287,
1782.543,-3.1926264763,1.3288465738,-174.1636199951,0.0593234822,0.0459124409,0.0052399039,-91.3226242065,28.2880115509,22.8745841980,0.0295680165,0.0271099210,0.0115416646,-23.4385204315,83.4795227051,-93.9725799561,0.0277110338,0.0200458467,0.0166300833,23.8468036652,55.8400611877,-106.7915344238,0.0818679333,0.0067892820,-0.0025292635,
1782.553,-3.1920049191,1.3284238577,-174.1624298096,0.0593161061,0.0424836464,0.0032861233,-91.5497283936,27.4423618317,22.9600791931,0.0253091753,0.0163391232,0.0034993142,-23.8771667480,83.4902114868,-94.4264755249,0.0238259435,0.0188287199,0.0225225091,23.8659496307,55.8326530457,-106.7718124390,0.0832601786,-0.0002614856,0.0028202534,
1782.563,-3.1919958591,1.3293651342,-174.1619110107,0.0588442460,0.0424834676,0.0071928501,-91.7722244263,26.5990390778,23.0327720642,0.0200097561,0.0204797387,0.0032468438,-24.2637748718,83.5004272461,-94.8304061890,0.0199398994,0.0287450552,0.0317867100,23.8816871643,55.8302040100,-106.7551727295,0.0822595954,-0.0043232739,-0.0020332932,
1782.573,-3.1934702396,1.3286869526,-174.1601715088,0.0627386644,0.0371380784,0.0106115341,-91.9803771973,25.7630424500,23.0995998383,0.0166815221,0.0331538916,0.0228300542,-24.6670837402,83.5107345581,-95.2505035400,0.0199602246,0.0323392749,0.0259334147,23.8984756470,55.8240547180,-106.7371673584,0.0787813663,0.0028145611,0.0052773356,
1782.583,-3.1913166046,1.3293642998,-174.1595611572,0.0554262623,0.0478427261,0.0052388906,-92.1960144043,24.9395866394,23.1642589569,0.0232249200,0.0357601643,0.0108295232,-25.0937137604,83.5220718384,-95.6950378418,0.0238888264,0.0261976123,0.0254923701,23.9167633057,55.8213844299,-106.7168197632,0.0758254528,0.0031231046,0.0048255324,
1782.593,-3.1906836033,1.3280192614,-174.1595153809,0.0602856092,0.0468551740,0.0067025423,-92.4075927734,24.1335964203,23.2378387451,0.0094515979,0.0448795557,0.0246751904,-25.5460796356,83.5306701660,-96.1659317017,0.0229291916,0.0220718086,0.0250321031,23.9404926300,55.8181114197,-106.6920394897,0.0762816668,0.0077740848,-0.0024466515,
1782.603,-3.1917741299,1.3259751797,-174.1602478027,0.0690390021,0.0366203114,0.0067029595,-92.6156845093,23.3362140656,23.3233356476,0.0098955035,0.0425167084,0.0321494639,-25.9823532104,83.5421981812,-96.6201934814,0.0214869976,0.0335136652,0.0153344572,23.9628219604,55.8129386902,-106.6697692871,0.0835551620,0.0060787350,0.0019685626,
1782.613,-3.1916546822,1.3246159554,-174.1590118408,0.0607145056,0.0449190401,0.0106084943,-92.8247604370,22.5509376526,23.4195022583,0.0104577839,0.0384157896,0.0284364223,-26.4066009521,83.5482177734,-97.0631179810,0.0190573931,0.0322760046,0.0275164843,23.9850502014,55.8107757568,-106.6488800049,0.0747449398,0.0058667511,-0.0043196678,
1782.623,-3.1904678345,1.3250488043,-174.1572723389,0.0607220605,0.0444100760,0.0032833219,-93.0282287598,21.7749862671,23.5171890259,0.0125640631,0.0326073170,0.0310061574,-26.8535556793,83.5549621582,-97.5263442993,0.0215120316,0.0315563083,0.0304602683,24.0065555573,55.8109474182,-106.6262512207,0.0708402991,0.0017687976,-0.0096018314,
1782.633,-3.1910669804,1.3247277737,-174.1561126709,0.0612047426,0.0424673967,0.0062130690,-93.2209243774,21.0106964111,23.6129760742,0.0108859837,0.0285053849,0.0236567855,-27.2955169678,83.5612335205,-97.9826812744,0.0239657164,0.0278975666,0.0319314003,24.0286140442,55.8048667908,-106.6029510498,0.0688275695,0.0020235926,0.0094482303,
1782.643,-3.1895275116,1.3259973526,-174.1549530029,0.0558557995,0.0434171036,0.0130483508,-93.4039688110,20.2551288605,23.7040634155,0.0029393435,0.0222288966,0.0132391453,-27.7477760315,83.5686721802,-98.4455261230,0.0230036974,0.0305899084,0.0217184126,24.0508670807,55.7970466614,-106.5767745972,0.0770515800,0.0032430589,0.0074816346,
1782.653,-3.1891522408,1.3269411325,-174.1538391113,0.0588019527,0.0395042934,0.0027945638,-93.5699920654,19.5002498627,23.7907428741,0.0130102336,0.0157918334,0.0220915228,-28.1622180939,83.5741653442,-98.8673934937,0.0278972387,0.0278570056,0.0256025791,24.0740604401,55.7903060913,-106.5504837036,0.0745440722,0.0049486011,0.0001606941,
1782.663,-3.1879775524,1.3277804852,-174.1520996094,0.0593048781,0.0443666279,0.0032815933,-93.7332382202,18.7422599792,23.8684883118,0.0102764070,0.0189678669,0.0157776326,-28.5758686066,83.5807876587,-99.2826538086,0.0240039229,0.0265729725,0.0182805359,24.0965251923,55.7832870483,-106.5241546631,0.0700806379,0.0091005415,0.0016239285,
1782.673,-3.1886570454,1.3281673193,-174.1540069580,0.0602881908,0.0424253233,0.0067010522,-93.9007110596,17.9837875366,23.9383258820,0.0084549487,0.0268504024,0.0071047246,-28.9574089050,83.5850601196,-99.6682891846,0.0205942988,0.0228089094,0.0270056427,24.1200885773,55.7768325806,-106.4962692261,0.0773414969,0.0068981200,0.0006560087,
1782.683,-3.1898760796,1.3256622553,-174.1521148682,0.0602444820,0.0424466208,0.0018175840,-94.0861663818,17.2201385498,23.9940052032,0.0201649070,0.0311438441,-0.0032074749,-29.3146724701,83.5902862549,-100.0270004272,0.0245107412,0.0263134837,0.0249885619,24.1391029358,55.7689781189,-106.4736175537,0.0723816156,0.0047283620,0.0064891577,
1782.693,-3.1883945465,1.3278964758,-174.1503143311,0.0524709672,0.0453504510,0.0091421008,-94.2864608765,16.4562435150,24.0311012268,0.0269353688,0.0240088701,-0.0083768815,-29.6657161713,83.5956802368,-100.3814239502,0.0225681067,0.0283395350,0.0234559476,24.1564579010,55.7638282776,-106.4542236328,0.0723310113,0.0011243075,0.0020956397,
1782.703,-3.1886327267,1.3268070221,-174.1496887207,0.0573347732,0.0394952483,0.0057229996,-94.4788055420,15.7001228333,24.0514621735,0.0303681493,0.0117812753,-0.0107397363,-30.0262985229,83.6023559570,-100.7440719604,0.0186748505,0.0284137726,0.0175625086,24.1733436584,55.7556114197,-106.4344558716,0.0751800537,-0.0015167892,0.0059628487,
1782.713,-3.1905474663,1.3252481222,-174.1484832764,0.0612138212,0.0400169306,0.0052366853,-94.6353836060,14.9521045685,24.0642299652,0.0255896449,-0.0040317774,0.0058343410,-30.3735389709,83.6074142456,-101.0951919556,0.0177081227,0.0235944986,0.0267686248,24.1938362122,55.7512016296,-106.4114990234,0.0678125024,0.0060858577,0.0015918612,
1782.723,-3.1914830208,1.3264523745,-174.1491394043,0.0553754568,0.0414980426,0.0018200874,-94.7585296631,14.2154197693,24.0737628937,0.0185174942,-0.0058588386,-0.0006156191,-30.7486495972,83.6134033203,-101.4753265381,0.0255322456,0.0251568258,0.0179578960,24.2107753754,55.7462844849,-106.3924255371,0.0736235976,0.0019987822,0.0055019855,
1782.733,-3.1907012463,1.3252849579,-174.1479644775,0.0621910244,0.0429492928,0.0106075406,-94.8338165283,13.4885225296,24.0897827148,0.0164537132,-0.0131932497,0.0116522089,-31.1294078827,83.6169586182,-101.8648834229,0.0216329098,0.0223533809,0.0213248432,24.2285842896,55.7413330078,-106.3739318848,0.0769929290,0.0071809739,0.0064852238,
1782.743,-3.1905260086,1.3260079622,-174.1467285156,0.0534145758,0.0429462194,0.0110962391,-94.8588714600,12.7751884460,24.1114482880,0.0013996363,-0.0084581971,0.0235458165,-31.4872589111,83.6157302856,-102.2352066040,0.0323727131,0.0234569907,0.0304620862,24.2398414612,55.7369651794,-106.3622131348,0.0798797011,-0.0012466162,0.0011020899,
1782.753,-3.1893646717,1.3262760639,-174.1461334229,0.0568372235,0.0443908274,0.0047475100,-94.8511428833,12.0678339005,24.1505126953,-0.0033327341,0.0034754872,0.0368230268,-31.8888168335,83.6227416992,-102.6475219727,0.0192027092,0.0284635127,0.0158430338,24.2559909821,55.7291717529,-106.3440551758,0.0861507058,0.0058866888,0.0059475899,
1782.763,-3.1905667782,1.3255009651,-174.1462249756,0.0626830757,0.0361110047,0.0096312165,-94.8423614502,11.3699226379,24.2057838440,-0.0137947798,0.0166950226,0.0398120061,-32.2871818542,83.6270751953,-103.0569763184,0.0236056447,0.0339732766,0.0270642340,24.2690792084,55.7240982056,-106.3276672363,0.0729172826,-0.0079325140,0.0064222813,
1782.773,-3.1914150715,1.3260283470,-174.1462707520,0.0558563396,0.0395437442,0.0062142611,-94.8428573608,10.6752405167,24.2718963623,-0.0134884864,0.0268160701,0.0434340313,-32.6974601746,83.6272583008,-103.4744338989,0.0216528773,0.0244013667,0.0284754634,24.2944831848,55.7185134888,-106.3006973267,0.0718858242,0.0025488585,-0.0033139586,
1782.783,-3.1907670498,1.3243222237,-174.1450958252,0.0636390671,0.0405090563,-0.0006229877,-94.8669586182,9.9811992645,24.3431072235,-0.0044093579,0.0352920890,0.0420771986,-33.0975837708,83.6298751831,-103.8794631958,0.0216579437,0.0318744481,0.0308962166,24.3232173920,55.7107124329,-106.2701797485,0.0703442693,0.0066395104,0.0001177788,
1782.793,-3.1897001266,1.3250212669,-174.1440124512,0.0616981462,0.0419552960,0.0003527999,-94.9277954102,9.2868680954,24.4152927399,-0.0041497201,0.0313639641,0.0213205218,-33.5057182312,83.6322174072,-104.2912445068,0.0211741924,0.0315495431,0.0259975195,24.3504085541,55.7011222839,-106.2389373779,0.0653671622,0.0078036338,0.0069378614,
1782.803,-3.1915087700,1.3230007887,-174.1434783936,0.0645925701,0.0341743492,-0.0011110306,-95.0230484009,8.5846443176,24.4831886292,0.0022976846,0.0311647654,0.0094503015,-33.9065780640,83.6352005005,-104.6920852661,0.0153205991,0.0370611548,0.0196418762,24.3774585724,55.6934738159,-106.2077865601,0.0691981912,0.0080040097,-0.0003768206,
1782.813,-3.1923012733,1.3230259418,-174.1417236328,0.0601984821,0.0395592451,0.0086552501,-95.1484527588,7.8755459785,24.5447082520,0.0051858574,0.0200421214,0.0078593642,-34.3040466309,83.6358184814,-105.0891723633,0.0348530412,0.0245210528,0.0200872421,24.3977451324,55.6839218140,-106.1829071045,0.0764284134,0.0009294152,-0.0023729205,
1782.823,-3.1908814907,1.3209913969,-174.1404876709,0.0606512651,0.0409993976,0.0027937889,-95.3020782471,7.1563305855,24.5931339264,0.0117840767,0.0150875449,-0.0074094161,-34.7233352661,83.6378784180,-105.5113525391,0.0236265659,0.0115087032,0.0166792572,24.4202575684,55.6718292236,-106.1585388184,0.0860750675,0.0060267448,0.0058611631,
1782.833,-3.1909608841,1.3194109201,-174.1398773193,0.0630650967,0.0444187857,-0.0011129975,-95.4629516602,6.4333739281,24.6282482147,0.0075555891,-0.0027303100,-0.0162118077,-35.1224822998,83.6409988403,-105.9204330444,0.0260739923,0.0179841518,0.0186331272,24.4397373199,55.6640510559,-106.1388015747,0.0757445693,0.0023877472,0.0038851500,
1782.843,-3.1889262199,1.3175919056,-174.1398925781,0.0640099198,0.0453599431,0.0047436953,-95.5998687744,5.7161355019,24.6544342041,0.0141507536,-0.0055469275,-0.0049290359,-35.5274581909,83.6429672241,-106.3346939087,0.0241246819,0.0215441585,0.0191219747,24.4601554871,55.6588020325,-106.1169662476,0.0722749233,0.0109623373,-0.0000074506,
1782.853,-3.1877787113,1.3176796436,-174.1381072998,0.0601051971,0.0463165082,0.0120668411,-95.7020416260,5.0112552643,24.6768131256,0.0058084726,-0.0075069070,-0.0054900199,-35.9430999756,83.6448516846,-106.7604980469,0.0168040991,0.0265832245,0.0230441093,24.4800453186,55.6542510986,-106.0932922363,0.0712535381,0.0014796406,-0.0014500618,
1782.863,-3.1897988319,1.3162338734,-174.1362609863,0.0586151257,0.0375626795,-0.0001389384,-95.7541580200,4.3248515129,24.7002601624,-0.0066200048,-0.0036977530,0.0335956067,-36.3973388672,83.6461486816,-107.2251968384,0.0216894150,0.0307108760,0.0211448073,24.5041408539,55.6506042480,-106.0677261353,0.0702410936,0.0017301291,-0.0033525229,
1782.873,-3.1885554790,1.3153278828,-174.1350555420,0.0590876006,0.0424238481,0.0096250772,-95.7783660889,3.6525545120,24.7242393494,-0.0080714077,0.0009779334,0.0209138170,-36.8602409363,83.6442642212,-107.6985778809,0.0192443728,0.0290192664,0.0284982622,24.5300388336,55.6438713074,-106.0391616821,0.0696864724,0.0058522820,-0.0018700361,
1782.883,-3.1872386932,1.3171350956,-174.1339416504,0.0581425689,0.0448422730,0.0091363788,-95.7871398926,2.9893338680,24.7499065399,-0.0108382255,0.0070005655,0.0182039291,-37.3317756653,83.6421966553,-108.1787719727,0.0207052231,0.0292934775,0.0221912861,24.5570831299,55.6364555359,-106.0097579956,0.0735197067,-0.0022470057,-0.0003917217,
1782.893,-3.1872372627,1.3170059919,-174.1321868896,0.0605817214,0.0424008444,0.0042535067,-95.7913284302,2.3311052322,24.7710380554,-0.0169429481,0.0075238347,0.0232126862,-37.7864112854,83.6374206543,-108.6425170898,0.0177662969,0.0276109576,0.0256022215,24.5811805725,55.6272926331,-105.9830169678,0.0773356557,0.0013883114,0.0010516644,
1782.903,-3.1881294250,1.3167452812,-174.1322631836,0.0605771765,0.0394867025,0.0013242364,-95.8112487793,1.6858792305,24.7935619354,-0.0306386948,-0.0106734037,0.0079734698,-38.1405067444,83.6336975098,-109.0060958862,0.0319192410,0.0340600312,0.0210969448,24.5948238373,55.6146621704,-105.9677047729,0.0938127041,-0.0041807443,0.0107079148,
1782.913,-3.1861302853,1.3154298067,-174.1310272217,0.0625073463,0.0472644046,0.0052285790,-95.8011779785,1.0263317823,24.8082981110,-0.0040607452,0.0154941082,0.0180802718,-38.5024452209,83.6336975098,-109.3679733276,0.0245950222,0.0365718901,0.0322825313,24.6239814758,55.6090469360,-105.9364929199,0.0556714535,0.0038249493,-0.0043826699,
1782.923,-3.1849584579,1.3132818937,-174.1303405762,0.0610050261,0.0487088822,0.0047377944,-95.8127670288,0.3733091950,24.8145618439,-0.0125275403,0.0214715600,0.0104829818,-38.8959808350,83.6335754395,-109.7657089233,0.0221533775,0.0191141665,0.0117659271,24.6430377960,55.5975570679,-105.9120254517,0.0814370513,0.0065148324,-0.0034781694,
1782.933,-3.1852569580,1.3142558336,-174.1291809082,0.0566274859,0.0413898453,0.0047387481,-95.8508987427,-0.2771778107,24.8163242340,-0.0063024908,0.0204369426,0.0057751983,-39.2236404419,83.6294708252,-110.0907211304,0.0226337314,0.0338186622,0.0360461473,24.6620502472,55.5882034302,-105.8869476318,0.0720674396,-0.0000593960,0.0067318678,
1782.943,-3.1866204739,1.3127213717,-174.1280822754,0.0653897747,0.0355542563,0.0047394037,-95.9074859619,-0.9308470488,24.8120098114,-0.0001323521,0.0207048059,0.0096750408,-39.5994834900,83.6268920898,-110.4636764526,0.0250701308,0.0227020085,0.0242731869,24.6832256317,55.5753784180,-105.8603057861,0.0841479897,0.0050446987,-0.0026261806,
1782.953,-3.1863512993,1.3132284880,-174.1257171631,0.0585626848,0.0389675237,0.0066925883,-95.9797363281,-1.5857342482,24.7999114990,0.0030889660,0.0130007267,-0.0056981146,-39.9634552002,83.6253814697,-110.8241195679,0.0157898664,0.0247359574,0.0247113109,24.7032127380,55.5642738342,-105.8344726563,0.0781790614,0.0023573339,-0.0017119646,
1782.963,-3.1858835220,1.3175565004,-174.1235046387,0.0561968014,0.0438420922,0.0159707665,-96.0574951172,-2.2396280766,24.7799968719,0.0034015328,-0.0041215420,-0.0068301782,-40.3242683411,83.6219406128,-111.1859054565,0.0162714720,0.0292245150,0.0304962695,24.7197818756,55.5543632507,-105.8113555908,0.0785695314,-0.0027337074,0.0035979152,
1782.973,-3.1857533455,1.3189975023,-174.1223907471,0.0571985021,0.0428632274,0.0066941977,-96.1172332764,-2.8805880547,24.7516899109,-0.0233990997,-0.0140060782,-0.0048703104,-40.7364196777,83.6166534424,-111.6002960205,0.0094252825,0.0137888491,0.0133777559,24.7407588959,55.5456581116,-105.7844772339,0.0755538940,0.0038616657,0.0001527071,
1782.983,-3.1862425804,1.3177471161,-174.1217498779,0.0601063743,0.0428717844,0.0076706409,-96.1480102539,-3.5089919567,24.7090415955,-0.0377676934,-0.0390847325,0.0244061947,-40.9963417053,83.6096496582,-111.8744277954,0.0040405989,0.0264622569,0.0150888264,24.7158756256,55.5542564392,-105.8038330078,0.0766153336,-0.0149063170,0.0148106813,
1782.993,-3.1877233982,1.3146535158,-174.1199340820,0.0668883324,0.0414328016,0.0096241832,-96.1446990967,-4.1434884071,24.6616115570,-0.0048716813,-0.0266293287,-0.0001445636,-41.2407608032,83.6062774658,-112.1230239868,0.0313777924,0.0473727286,0.0344054103,24.7328891754,55.5473480225,-105.7901077271,0.0604338050,-0.0019169450,0.0191851854,
1783.003,-3.1893658638,1.3131567240,-174.1182556152,0.0673504919,0.0346255116,0.0008357167,-96.1376800537,-4.7851319313,24.6138439178,0.0137487054,0.0433177948,0.0177074671,-41.6805458069,83.6011276245,-112.5580520630,0.0216021538,0.0309942365,0.0314966142,24.7818508148,55.5407180786,-105.7411499023,0.0442550778,0.0161585957,-0.0080423355,
1783.013,-3.1903386116,1.3152961731,-174.1171569824,0.0546925142,0.0390369408,0.0047442913,-96.1483917236,-5.4167037010,24.5720062256,-0.0099259019,0.0193745494,0.0114400089,-42.0849723816,83.5999679565,-112.9578933716,0.0357600451,0.0408818424,0.0320154428,24.8213405609,55.5221405029,-105.6969146729,0.0865520239,0.0083680302,-0.0051919222,
1783.023,-3.1882686615,1.3143717051,-174.1159057617,0.0590709150,0.0453485623,0.0071828365,-96.1704406738,-6.0402412415,24.5362243652,-0.0129417777,0.0260664821,0.0136571452,-42.6448478699,83.5936279297,-113.5088348389,0.0206109881,0.0090596676,0.0121749043,24.8545246124,55.5095748901,-105.6487350464,0.0610372424,0.0045764744,-0.0091240406,
1783.033,-3.1887199879,1.3134157658,-174.1146392822,0.0551479831,0.0385205038,0.0154839754,-96.1750640869,-6.6580533981,24.5033473969,-0.0007092357,0.0121771097,0.0087263882,-43.2757606506,83.5859146118,-114.1333389282,0.0147365928,0.0149489343,0.0222073495,24.8873672485,55.4893074036,-105.6025085449,0.0583955050,-0.0002351999,0.0053968430,
1783.043,-3.1894652843,1.3137409687,-174.1128234863,0.0546653792,0.0419514552,0.0023008585,-96.1657943726,-7.2720012665,24.4719219208,0.0120919794,-0.0042338371,0.0123332068,-43.9618263245,83.5736083984,-114.8169250488,0.0166656971,0.0185227692,0.0210409462,24.9257678986,55.4668731689,-105.5514907837,0.0723337531,0.0017257333,0.0042876005,
1783.053,-3.1887483597,1.3135906458,-174.1110076904,0.0585690066,0.0448686555,0.0057187080,-96.1389923096,-7.8837652206,24.4357528687,0.0156681538,-0.0173026919,0.0068384036,-44.7141304016,83.5651931763,-115.5763320923,0.0068836212,0.0221366286,0.0205172300,24.9622764587,55.4464988708,-105.5042495728,0.0740852356,-0.0026316941,0.0114989281,
1783.063,-3.1886324883,1.3141264915,-174.1103820801,0.0536955446,0.0429134965,0.0023003221,-96.1164474487,-8.4891138077,24.4007225037,-0.0016254038,-0.0050847530,-0.0034751147,-45.5441513062,83.5548400879,-116.4245605469,0.0283477306,0.0361263454,0.0200966597,25.0011920929,55.4261131287,-105.4555587769,0.0821841359,0.0003131628,0.0094429255,
1783.073,-3.1889541149,1.3140810728,-174.1104888916,0.0619955324,0.0414542630,0.0023007393,-96.0777511597,-9.0841360092,24.3601055145,0.0008067489,-0.0148921013,0.0181538239,-46.4948768616,83.5364303589,-117.3991317749,0.0224522352,0.0230219960,0.0197798908,25.0395336151,55.4081993103,-105.4084701538,0.0688230991,-0.0030696243,0.0083941221,
1783.083,-3.1880815029,1.3115073442,-174.1105041504,0.0668334365,0.0433922373,0.0091349483,-96.0358505249,-9.6779117584,24.3189716339,0.0106015801,0.0049892068,0.0079802647,-47.4884185791,83.5129623413,-118.4244613647,0.0253357291,0.0271158516,0.0297483504,25.0870628357,55.3928413391,-105.3522644043,0.0730654597,-0.0021250993,0.0044873953,
1783.093,-3.1868798733,1.3106817007,-174.1098937988,0.0585182533,0.0423947610,0.0047388673,-95.9941635132,-10.2567806244,24.2768211365,-0.0110678375,0.0023487806,0.0241744146,-48.6201591492,83.4868698120,-119.5924530029,0.0208896399,0.0240862668,0.0140517354,25.1416854858,55.3735351563,-105.2910995483,0.0723857284,-0.0022449940,0.0044665337,
1783.103,-3.1868085861,1.3093727827,-174.1111907959,0.0663079098,0.0428818315,0.0057147741,-95.9617080688,-10.8279485703,24.2353706360,-0.0067081153,0.0103589296,0.0302658603,-49.8628578186,83.4533538818,-120.8761978149,0.0213114023,0.0217646062,0.0136242807,25.1973686218,55.3521080017,-105.2264099121,0.0736380219,0.0059131086,0.0053997040,
1783.113,-3.1859540939,1.3098617792,-174.1101074219,0.0624101907,0.0433552116,-0.0001451373,-95.9458236694,-11.3856086731,24.1973228455,-0.0103994012,0.0036398768,0.0283360705,-51.1982192993,83.4118499756,-122.2630538940,0.0139043331,0.0215950906,0.0196601748,25.2549972534,55.3313598633,-105.1575851440,0.0724555254,0.0013623983,0.0068391562,
1783.123,-3.1861407757,1.3103754520,-174.1095581055,0.0560714975,0.0374990739,0.0076677799,-95.9340972900,-11.9341411591,24.1599006653,-0.0095216334,0.0027130246,0.0279367641,-52.6045379639,83.3588104248,-123.7313995361,0.0181922317,0.0231067538,0.0267336369,25.3191108704,55.3117446899,-105.0832901001,0.0732372999,-0.0017750263,0.0063689351,
1783.133,-3.1854429245,1.3082135916,-174.1089324951,0.0653111190,0.0492057204,0.0042483211,-95.9088134766,-12.4693946838,24.1249103546,-0.0093751103,-0.0094598532,0.0214445442,-54.0867691040,83.3014984131,-125.2819900513,0.0224705935,0.0252299905,0.0129725933,25.3953266144,55.2922630310,-105.0007247925,0.0749968290,0.0047448277,0.0064402819,
1783.143,-3.1848900318,1.3073980808,-174.1077270508,0.0609023571,0.0443132930,0.0091301799,-95.8639907837,-12.9924545288,24.0896072388,-0.0173031986,-0.0104058981,0.0219438076,-55.5675468445,83.2335739136,-126.8345260620,0.0140308142,0.0294186473,0.0343515277,25.4733562469,55.2708473206,-104.9160003662,0.0767371058,0.0019591600,-0.0003395081,
1783.153,-3.1825106144,1.3056728840,-174.1070404053,0.0594074130,0.0486664064,0.0013146400,-95.7992172241,-13.5097827911,24.0537834167,-0.0055840611,-0.0250480175,0.0250330418,-57.1049537659,83.1625823975,-128.4501495361,0.0153489113,0.0341731906,0.0217166543,25.5518550873,55.2483291626,-104.8312454224,0.0735834241,0.0025800616,0.0031234026,
1783.163,-3.1813433170,1.3064553738,-174.1070556641,0.0574679412,0.0486460552,0.0169389844,-95.7309036255,-14.0218486786,24.0223579407,-0.0201239288,-0.0158169866,0.0212257504,-58.6914863586,83.0813903809,-130.1201782227,0.0200620294,0.0244440734,0.0218788683,25.6272678375,55.2232971191,-104.7479019165,0.0747991800,-0.0036231428,0.0075184107,
1783.173,-3.1779530048,1.3075994253,-174.1064910889,0.0579761863,0.0500518046,0.0022876263,-95.6594924927,-14.5305757523,23.9938182831,-0.0135919452,-0.0222700238,0.0159000829,-60.2968711853,82.9911727905,-131.8101654053,0.0184062719,0.0250836909,0.0191843808,25.7070522308,55.1963806152,-104.6608581543,0.0735545754,0.0003762841,0.0138630271,
1783.183,-3.1742885113,1.3104037046,-174.1053924561,0.0565602742,0.0509644635,0.0017965436,-95.5888366699,-15.0385513306,23.9673461914,-0.0128869116,-0.0131737590,0.0105848834,-61.8851852417,82.8879852295,-133.4934234619,0.0372278690,0.0234184861,0.0262408257,25.7936439514,55.1731796265,-104.5686340332,0.0694171190,0.0009191930,-0.0026632547,
1783.193,-3.1723566055,1.3110392094,-174.1035766602,0.0604776144,0.0533721969,0.0159553289,-95.5209274292,-15.5329151154,23.9420890808,-0.0314638317,-0.0163035989,0.0072737634,-63.5548171997,82.7733230591,-135.2629699707,0.0360015631,0.0224573314,0.0144619346,25.8809909821,55.1420593262,-104.4745101929,0.0764310360,0.0043353587,0.0144053698,
1783.203,-3.1739301682,1.3138762712,-174.1036529541,0.0497849286,0.0392393954,0.0008214712,-95.4495239258,-16.0158405304,23.9158649445,-0.0249265432,-0.0204224586,0.0180676058,-65.1107406616,82.6522216797,-136.9148712158,-0.0360438824,0.0346260071,0.0250144899,25.9829292297,55.1123046875,-104.3654098511,0.0771107078,0.0081167817,0.0081196427,
1783.213,-3.1770427227,1.3152433634,-174.1031494141,0.0551798716,0.0358756147,0.0061960220,-95.3689575195,-16.4858016968,23.8906612396,-0.0318246186,-0.0084200501,0.0213899463,-66.6759338379,82.5195236206,-138.5791778564,0.0227392912,0.0220447183,0.0293017030,26.0917301178,55.0817756653,-104.2509307861,0.0675284266,0.0064601004,0.0038099289,
1783.223,-3.1750640869,1.3154740334,-174.1025848389,0.0590901524,0.0451184846,0.0042407513,-95.2769317627,-16.9395580292,23.8701534271,-0.0330619514,-0.0076150298,0.0206232369,-68.0841445923,82.3886642456,-140.0771942139,-0.0053926706,0.0463639796,0.0290188491,26.2074909210,55.0506362915,-104.1277313232,0.0681937933,-0.0016110539,0.0058732033,
1783.233,-3.1717367172,1.3160263300,-174.1013641357,0.0581232235,0.0518964455,0.0052146316,-95.1760406494,-17.3776016235,23.8517246246,-0.0384138823,0.0112884045,0.0289955959,-69.5613098145,82.2238464355,-141.6560058594,0.0635581613,0.0092404187,0.0307712555,26.3276653290,55.0163650513,-104.0011062622,0.0629681945,0.0029531121,0.0015712976,
1783.243,-3.1715428829,1.3167161942,-174.1007995605,0.0576469824,0.0431039855,0.0091210604,-95.0777206421,-17.8001613617,23.8377704620,-0.0361667871,-0.0000622869,0.0169129074,-70.9505004883,82.0734710693,-143.1379699707,0.0090004206,0.0381837189,0.0286642909,26.4560089111,54.9830513000,-103.8643646240,0.0743534565,0.0011018813,-0.0085380077,
1783.253,-3.1701929569,1.3186235428,-174.0996093750,0.0557271354,0.0513812117,0.0115619302,-94.9782867432,-18.2139320374,23.8261432648,-0.0401050150,0.0071359277,0.0302097350,-72.3179855347,81.9164047241,-144.5960235596,0.0154545903,0.0325161219,0.0251501799,26.5755138397,54.9418182373,-103.7346496582,0.0778465271,-0.0075572133,-0.0031594038,
1783.263,-3.1706242561,1.3182517290,-174.0984039307,0.0591386184,0.0430879518,0.0032613873,-94.8838806152,-18.6168518066,23.8198909760,-0.0399411619,0.0074990988,0.0226007029,-73.6183395386,81.7594985962,-145.9841461182,0.0126243830,0.0423844159,0.0265038610,26.7035999298,54.9024772644,-103.5957260132,0.0706160069,0.0032491684,-0.0030852556,
1783.273,-3.1690220833,1.3174648285,-174.0984344482,0.0625428557,0.0459897444,0.0047244430,-94.7955245972,-19.0127487183,23.8174171448,-0.0386691988,0.0044252276,0.0224230960,-74.8368911743,81.6006622314,-147.2872161865,0.0112466812,0.0385188162,0.0248542726,26.8244266510,54.8588485718,-103.4618606567,0.0726193190,-0.0025093257,-0.0070007443,
1783.283,-3.1687667370,1.3174198866,-174.0972595215,0.0601006672,0.0454970151,0.0022823215,-94.7090988159,-19.4050712585,23.8183650970,-0.0387876034,0.0022982955,0.0105626956,-75.9928817749,81.4388580322,-148.5263824463,0.0113185048,0.0390266478,0.0226719379,26.9425258636,54.8155479431,-103.3292541504,0.0785317421,0.0024998784,0.0007976890,
1783.293,-3.1673302650,1.3165104389,-174.0954132080,0.0610613599,0.0474251285,0.0013046265,-94.6213226318,-19.7951259613,23.8223514557,-0.0383649170,-0.0008368492,0.0167509764,-77.0863647461,81.2739028931,-149.7019042969,0.0216280222,0.0282816887,0.0253232121,27.0623378754,54.7743988037,-103.1943740845,0.0751880407,-0.0027472377,-0.0006424189,
1783.303,-3.1663200855,1.3167465925,-174.0948028564,0.0571592301,0.0459426790,0.0110689402,-94.5338821411,-20.1821517944,23.8311901093,-0.0305527151,0.0003942847,0.0219723359,-78.1167068481,81.1136932373,-150.8154602051,0.0050866604,0.0379025042,0.0274502635,27.1777877808,54.7319793701,-103.0637969971,0.0830615759,-0.0021049082,0.0022798777,
1783.313,-3.1674790382,1.3155102730,-174.0955352783,0.0659267157,0.0386386849,-0.0001606941,-94.4549102783,-20.5684795380,23.8487071991,-0.0344321132,-0.0018442869,0.0268472433,-79.1355819702,80.9479522705,-151.9192199707,0.0085419416,0.0353739262,0.0267054737,27.2975616455,54.6899414063,-102.9288253784,0.0782431364,0.0033828318,0.0037650466,
1783.323,-3.1670823097,1.3152437210,-174.0949554443,0.0610392541,0.0459559970,0.0100926757,-94.3827285767,-20.9451808929,23.8760452271,-0.0308143795,-0.0026115179,0.0196336731,-80.1013488770,80.7772445679,-152.9745635986,0.0119750500,0.0284758210,0.0229780376,27.4126377106,54.6486511230,-102.8007659912,0.0792912841,-0.0052433610,0.0042655468,
1783.333,-3.1677682400,1.3126586676,-174.0937652588,0.0649003983,0.0357140973,0.0076509118,-94.3153076172,-21.3163585663,23.9113845825,-0.0373453498,-0.0165752172,0.0354514644,-81.0337142944,80.6016616821,-153.9941864014,0.0144089460,0.0318717062,0.0216883719,27.5361022949,54.6059722900,-102.6645660400,0.0744655132,-0.0037009418,0.0003963113,
1783.343,-3.1653716564,1.3139202595,-174.0938110352,0.0580864772,0.0508090332,0.0213209391,-94.2529983521,-21.6802425385,23.9552116394,-0.0369068086,0.0016873479,0.0205969736,-81.9073257446,80.4285507202,-154.9492645264,0.0256298184,0.0385894179,0.0310807824,27.6628589630,54.5616569519,-102.5250930786,0.0740173459,0.0041479468,0.0072679520,
1783.353,-3.1610579491,1.3144319057,-174.0925598145,0.0585836843,0.0531752817,0.0144811273,-94.1956024170,-22.0296478271,24.0049266815,-0.0557503998,0.0048636794,0.0341503471,-82.7034301758,80.2583541870,-155.8206176758,-0.0075833201,0.0432492197,0.0291146636,27.7924289703,54.5174217224,-102.3802947998,0.0672217607,0.0051351786,-0.0029315948,
1783.363,-3.1572747231,1.3144960403,-174.0907135010,0.0576082431,0.0492031164,-0.0006595850,-94.1548919678,-22.3756294250,24.0653648376,-0.0535286367,0.0016596913,0.0225855038,-83.4747085571,80.0854339600,-156.6623687744,0.0197335482,0.0274165869,0.0310588181,27.9184265137,54.4701042175,-102.2366409302,0.0711366534,0.0075977743,0.0034185648,
1783.373,-3.1578836441,1.3152325153,-174.0889434814,0.0576210916,0.0423777662,0.0061779022,-94.1187820435,-22.7197990417,24.1291618347,-0.0361271501,0.0047758222,0.0276983231,-84.2262573242,79.9152297974,-157.4824676514,0.0070106983,0.0261565149,0.0266823471,28.0436897278,54.4213371277,-102.0932998657,0.0730831027,0.0066382289,-0.0009904504,
1783.383,-3.1581530571,1.3152312040,-174.0877380371,0.0581093505,0.0414059013,0.0110604763,-94.0861511230,-23.0574321747,24.1973705292,-0.0308137834,0.0069221258,0.0182221383,-84.9326171875,79.7468261719,-158.2516021729,0.0221167803,0.0316659510,0.0256645083,28.1615619659,54.3736114502,-101.9554595947,0.0784575939,0.0013562441,-0.0059061646,
1783.393,-3.1580626965,1.3150063753,-174.0884094238,0.0605468340,0.0428691767,0.0071542263,-94.0521087646,-23.3811836243,24.2671813965,-0.0433308780,0.0071808100,0.0248433501,-85.6009750366,79.5839538574,-158.9799041748,0.0181888342,0.0311901569,0.0221654773,28.2816677094,54.3266181946,-101.8168563843,0.0696787834,-0.0000357032,-0.0068917274,
1783.403,-3.1587677002,1.3156461716,-174.0878448486,0.0556751862,0.0399517566,0.0091081858,-94.0197372437,-23.6991119385,24.3393230438,-0.0362109542,0.0098896027,0.0168467984,-86.2278213501,79.4263458252,-159.6641845703,0.0264768600,0.0354780257,0.0264178514,28.3917465210,54.2776107788,-101.6866683960,0.0740624666,0.0001124740,0.0086544156,
1783.413,-3.1562292576,1.3159540892,-174.0853271484,0.0551922731,0.0511379875,0.0135005713,-93.9872131348,-24.0109481812,24.4137840271,-0.0328877866,0.0028482080,0.0151979849,-86.7976608276,79.2741851807,-160.2869567871,0.0093845129,0.0362268686,0.0237128437,28.5036125183,54.2303695679,-101.5545272827,0.0852995515,0.0066031218,-0.0035974979,
1783.423,-3.1573002338,1.3166487217,-174.0823669434,0.0581340827,0.0384613238,0.0100838542,-93.9531173706,-24.3228015900,24.4929485321,-0.0359004736,0.0070107579,0.0252446458,-87.3582687378,79.1274032593,-160.9007568359,0.0059748292,0.0407730043,0.0264050364,28.6094799042,54.1841011047,-101.4290084839,0.0794561505,0.0033874512,0.0036683679,
1783.433,-3.1574084759,1.3166278601,-174.0818176270,0.0600868426,0.0399280600,0.0076422095,-93.9257888794,-24.6282901764,24.5764484406,-0.0348937511,0.0043492317,0.0241711102,-87.8813476563,78.9767456055,-161.4797210693,0.0127996802,0.0287609696,0.0246246159,28.7134819031,54.1392059326,-101.3056945801,0.0780208111,-0.0007797480,-0.0037032366,
1783.443,-3.1560645103,1.3162086010,-174.0806579590,0.0615443774,0.0428343341,0.0061762333,-93.9048538208,-24.9240646362,24.6667289734,-0.0400690734,0.0046554208,0.0192978159,-88.3836822510,78.8311004639,-162.0350036621,0.0103573203,0.0386188328,0.0174523890,28.8142986298,54.0927085876,-101.1857604980,0.0848693848,-0.0020003915,0.0054945946,
1783.453,-3.1562209129,1.3150520325,-174.0788421631,0.0620124713,0.0418605208,0.0037344694,-93.8855361938,-25.2113666534,24.7611694336,-0.0363103747,0.0040218830,0.0237317272,-88.8482131958,78.6881561279,-162.5524444580,0.0128006935,0.0366961360,0.0360732377,28.9239139557,54.0491409302,-101.0592727661,0.0756341219,-0.0003513098,0.0030561686,
1783.463,-3.1571552753,1.3132941723,-174.0776519775,0.0619818009,0.0369940288,0.0071527362,-93.8604736328,-25.4812221527,24.8583240509,-0.0459379554,0.0039906502,0.0305252634,-89.2815093994,78.5486068726,-163.0309600830,-0.0023283958,0.0449542105,0.0272819698,29.0394725800,54.0083580017,-100.9268112183,0.0761925578,0.0041923523,0.0050797462,
1783.473,-3.1560256481,1.3110219240,-174.0758056641,0.0663366839,0.0462517366,0.0139866471,-93.8357849121,-25.7383136749,24.9568672180,-0.0485193729,0.0059883595,0.0192649774,-89.6730728149,78.4131546021,-163.4602661133,0.0074534416,0.0418998003,0.0369346440,29.1284599304,53.9600219727,-100.8194961548,0.0454230905,-0.0023086071,-0.0067907572,
1783.483,-3.1562609673,1.3130706549,-174.0740966797,0.0551419631,0.0394198596,0.0051986575,-93.8072204590,-25.9898395538,25.0515136719,-0.0446570814,0.0045961738,0.0196661875,-90.0564575195,78.2830886841,-163.8743438721,0.0118777752,0.0441147685,0.0324295461,29.2290782928,53.9149131775,-100.6967315674,0.0786510706,0.0042908192,0.0009704232,
1783.493,-3.1551837921,1.3137389421,-174.0735015869,0.0575950295,0.0462370105,0.0051978230,-93.7835311890,-26.2428684235,25.1479492188,-0.0388567448,-0.0007364154,0.0123311616,-90.4391860962,78.1591644287,-164.2806091309,0.0177838802,0.0384035408,0.0255091488,29.3132381439,53.8677940369,-100.5876235962,0.0684007406,0.0036990047,-0.0021152496,
1783.503,-3.1561865807,1.3125988245,-174.0728607178,0.0575751364,0.0389302969,0.0076397657,-93.7573165894,-26.4990577698,25.2469844818,-0.0282143652,-0.0022023916,0.0186271295,-90.8092727661,78.0373535156,-164.6752471924,0.0134391785,0.0277636349,0.0219887495,29.3883552551,53.8234291077,-100.4863662720,0.0752681494,-0.0055825412,0.0045552254,
1783.513,-3.1541316509,1.3123390675,-174.0710449219,0.0590354502,0.0452421494,0.0081260204,-93.7327957153,-26.7531795502,25.3488883972,-0.0204605162,-0.0046487451,0.0161624812,-91.1791610718,77.9164581299,-165.0767059326,0.0032340288,0.0268634558,0.0223999619,29.4661235809,53.7822189331,-100.3866653442,0.0753316879,-0.0026596487,-0.0004388094,
1783.523,-3.1546700001,1.3127013445,-174.0704803467,0.0566003621,0.0384155884,0.0076383352,-93.7103347778,-27.0002117157,25.4589614868,-0.0311422348,-0.0011994839,0.0288706534,-91.5207290649,77.7955322266,-165.4520416260,-0.0016044974,0.0357232392,0.0256619155,29.5414886475,53.7398643494,-100.2894515991,0.0719649792,-0.0041184425,0.0008904934,
1783.533,-3.1533360481,1.3131729364,-174.0686187744,0.0546554700,0.0447399914,0.0188673139,-93.6961288452,-27.2368812561,25.5795078278,-0.0397016406,0.0023074150,0.0290170684,-91.8286895752,77.6761550903,-165.7960510254,0.0033240318,0.0367385745,0.0312631428,29.6154422760,53.6942024231,-100.1937713623,0.0739347935,-0.0060765147,0.0129159689,
1783.543,-3.1561765671,1.3147547245,-174.0663452148,0.0590776019,0.0345355459,0.0066639185,-93.6956176758,-27.4691009521,25.7107200623,-0.0350006819,0.0053330064,0.0254710205,-92.1500396729,77.5525360107,-166.1500396729,0.0136034489,0.0280500650,0.0183845460,29.6983566284,53.6539573669,-100.0934448242,0.0666827559,-0.0071015358,-0.0003343821,
1783.553,-3.1565492153,1.3164316416,-174.0658264160,0.0561771691,0.0433310568,0.0042236447,-93.7061996460,-27.6984844208,25.8495311737,-0.0336663127,-0.0067808032,0.0260031335,-92.4541854858,77.4373550415,-166.4827575684,0.0053556561,0.0372803509,0.0181527436,29.7738418579,53.6116905212,-99.9961776733,0.0735695362,-0.0017269850,0.0029553771,
1783.563,-3.1557698250,1.3172273636,-174.0640563965,0.0596090257,0.0472237058,0.0076411963,-93.7285690308,-27.9302806854,25.9962615967,-0.0323616862,-0.0062447786,0.0228074417,-92.7594528198,77.3239822388,-166.8177795410,-0.0087485313,0.0406118035,0.0145263672,29.8523063660,53.5673637390,-99.8993148804,0.0784814358,-0.0003004670,0.0018434525,
1783.573,-3.1575365067,1.3169312477,-174.0628356934,0.0566741712,0.0384654328,0.0012951493,-93.7561798096,-28.1615257263,26.1486301422,-0.0266463757,-0.0145132542,0.0240849592,-93.0422744751,77.2058029175,-167.1351623535,0.0030038357,0.0352332592,0.0274385214,29.9287014008,53.5302467346,-99.8029098511,0.0678426623,-0.0066182315,-0.0040727258,
1783.583,-3.1577470303,1.3156930208,-174.0598297119,0.0625119358,0.0394456871,0.0032480359,-93.7847518921,-28.3950119019,26.3062267303,-0.0253523588,-0.0067021847,0.0253730491,-93.3284759521,77.0889129639,-167.4544372559,-0.0008679628,0.0298244655,0.0198744237,30.0064163208,53.4875907898,-99.7064132690,0.0747241378,-0.0051746964,-0.0022349954,
1783.593,-3.1556246281,1.3149235249,-174.0586090088,0.0605453886,0.0477095135,0.0037338734,-93.8149108887,-28.6176280975,26.4706707001,-0.0277900994,-0.0159066319,0.0242469497,-93.6018600464,76.9731063843,-167.7611236572,0.0020964146,0.0351348221,0.0259499550,30.0848503113,53.4440193176,-99.6075286865,0.0767128468,-0.0037447512,0.0064333677,
1783.603,-3.1559195518,1.3154801130,-174.0575103760,0.0625082254,0.0413669795,0.0086168051,-93.8417739868,-28.8369197845,26.6408882141,-0.0370058119,-0.0060501099,0.0338118300,-93.8697280884,76.8609848022,-168.0558624268,0.0094659328,0.0394010246,0.0237168968,30.1620693207,53.4004592896,-99.5106048584,0.0743066072,0.0006251037,0.0024024844,
1783.613,-3.1545546055,1.3152282238,-174.0568542480,0.0566444546,0.0472025797,0.0086156726,-93.8690795898,-29.0537071228,26.8148574829,-0.0359222293,-0.0020452738,0.0248280428,-94.1072692871,76.7519683838,-168.3142395020,0.0178207159,0.0445933640,0.0370006561,30.2404384613,53.3532028198,-99.4115447998,0.0816271305,0.0049579740,0.0022414923,
1783.623,-3.1527042389,1.3137837648,-174.0562896729,0.0629669055,0.0403344333,0.0086132884,-93.9040832520,-29.2706851959,26.9925556183,-0.0333698094,-0.0083159804,0.0135161616,-94.3473358154,76.6436691284,-168.5688476563,0.0100616217,0.0336537361,0.0244297981,30.3157310486,53.3068313599,-99.3122177124,0.0762609243,0.0112770796,0.0020766258,
1783.633,-3.1515300274,1.3160964251,-174.0533447266,0.0566596016,0.0442201830,0.0071482658,-93.9310379028,-29.4949207306,27.1650257111,-0.0123659670,-0.0097708106,0.0108646005,-94.6098632813,76.5343246460,-168.8460235596,-0.0074708462,0.0290656686,0.0241737664,30.3839817047,53.2665596008,-99.2199554443,0.0719345212,-0.0072003603,-0.0087915659,
1783.643,-3.1515166759,1.3159090281,-174.0521545410,0.0586094558,0.0403137058,0.0066599846,-93.9576492310,-29.7229022980,27.3399181366,-0.0089894235,-0.0185950994,0.0091792271,-94.8586654663,76.4239578247,-169.1157836914,-0.0079212189,0.0303526223,0.0199728906,30.4531955719,53.2255134583,-99.1254043579,0.0749238133,-0.0066495836,0.0013335943,
1783.653,-3.1512198448,1.3150525093,-174.0521240234,0.0585945100,0.0456796400,0.0071474910,-93.9912261963,-29.9561500549,27.5211772919,-0.0164269209,-0.0216268301,0.0158938877,-95.1139297485,76.3108596802,-169.3997039795,0.0091916323,0.0223994851,0.0255843699,30.5212554932,53.1826553345,-99.0367050171,0.0676398873,-0.0046369433,0.0124093294,
1783.663,-3.1538193226,1.3160239458,-174.0498504639,0.0610528700,0.0354710035,0.0022675991,-94.0253524780,-30.1951007843,27.7073993683,-0.0122234225,-0.0208172202,0.0216331966,-95.3584213257,76.1951293945,-169.6784515381,-0.0064250827,0.0281589925,0.0189644992,30.5928211212,53.1388320923,-98.9451828003,0.0730406046,-0.0036399961,0.0132400990,
1783.673,-3.1558785439,1.3148046732,-174.0485992432,0.0581019074,0.0394131504,0.0115465522,-94.0663452148,-30.4308166504,27.9039039612,-0.0211460590,-0.0185367465,0.0225914381,-95.5941238403,76.0773849487,-169.9508209229,-0.0025229454,0.0334613919,0.0201395750,30.6670246124,53.0950584412,-98.8504714966,0.0657461286,-0.0041320324,-0.0020262003,
1783.683,-3.1558091640,1.3150460720,-174.0473785400,0.0571295545,0.0447830409,0.0071519017,-94.1103668213,-30.6654682159,28.1054286957,-0.0236964822,-0.0187062025,0.0260328762,-95.8413085938,75.9621124268,-170.2346649170,-0.0010558367,0.0426167250,0.0228396058,30.7504119873,53.0450592041,-98.7488632202,0.0735226274,0.0006192327,0.0056334138,
1783.693,-3.1550779343,1.3162715435,-174.0468292236,0.0576392189,0.0472116731,0.0008041859,-94.1528854370,-30.8947639465,28.3073825836,-0.0227402449,-0.0139580369,0.0162677728,-96.0603408813,75.8392028809,-170.4860992432,-0.0025550127,0.0377460718,0.0249612033,30.8323669434,52.9935417175,-98.6476593018,0.0666341186,0.0009771585,0.0108284354,
1783.703,-3.1549248695,1.3147395849,-174.0455932617,0.0610304624,0.0408613831,0.0027565956,-94.1955032349,-31.1221275330,28.5110797882,-0.0271179080,-0.0184838176,0.0221261121,-96.2785797119,75.7149810791,-170.7338256836,0.0013068318,0.0348445773,0.0178195834,30.9142055511,52.9405937195,-98.5451278687,0.0690071583,-0.0016047359,-0.0010818243,
1783.713,-3.1546871662,1.3134465218,-174.0438232422,0.0644258633,0.0432986841,-0.0011504889,-94.2327041626,-31.3530387878,28.7146949768,-0.0222630501,-0.0230495930,0.0318038389,-96.4943923950,75.5903778076,-170.9763793945,0.0119984150,0.0324318409,0.0297267735,30.9901809692,52.8844604492,-98.4448013306,0.0801351666,-0.0012276173,0.0098901987,
1783.723,-3.1562957764,1.3116121292,-174.0432434082,0.0643938631,0.0389322117,0.0100809336,-94.2705764771,-31.5905456543,28.9205493927,-0.0257984996,-0.0252485275,0.0141390339,-96.7077178955,75.4702835083,-171.2164459229,0.0080567002,0.0372633934,0.0303988755,31.0642147064,52.8273544312,-98.3457946777,0.0785567760,0.0016004443,0.0105882883,
1783.733,-3.1560790539,1.3117539883,-174.0420989990,0.0595135204,0.0389284343,0.0042213798,-94.3095397949,-31.8390369415,29.1285285950,-0.0119097233,-0.0265880823,0.0223586634,-96.9380111694,75.3451538086,-171.4736633301,0.0079947710,0.0314215124,0.0228694975,31.1357460022,52.7733459473,-98.2487792969,0.0726157427,-0.0067579746,0.0054528713,
1783.743,-3.1572093964,1.3115171194,-174.0421142578,0.0565797016,0.0384598523,0.0120348334,-94.3525924683,-32.0951232910,29.3415966034,-0.0059358478,-0.0280180573,0.0174443349,-97.1671981812,75.2192611694,-171.7340087891,0.0006006360,0.0265624225,0.0182825625,31.2065696716,52.7211418152,-98.1514205933,0.0681579709,-0.0053321123,-0.0016157627,
1783.753,-3.1577143669,1.3132141829,-174.0415954590,0.0561210290,0.0428631417,0.0047117472,-94.3979873657,-32.3527603149,29.5576324463,-0.0151109695,-0.0294824839,0.0071881711,-97.3942184448,75.0923995972,-171.9926757813,-0.0019197464,0.0280613899,0.0244464278,31.2805614471,52.6661758423,-98.0532760620,0.0626937151,-0.0078620017,0.0054625273,
1783.763,-3.1549057961,1.3145886660,-174.0404357910,0.0576098599,0.0457438752,0.0120338202,-94.4344787598,-32.6147918701,29.7694320679,-0.0087148547,-0.0280654430,0.0207183957,-97.6230621338,74.9574737549,-172.2558898926,-0.0010634065,0.0301747024,0.0238166153,31.3555736542,52.6037254333,-97.9512863159,0.0674033165,-0.0026435256,0.0158777237,
1783.773,-3.1542851925,1.3140993118,-174.0379943848,0.0595544428,0.0467096344,-0.0031037331,-94.4654617310,-32.8745002747,29.9788360596,-0.0139921904,-0.0232199430,0.0214702114,-97.8465423584,74.8174896240,-172.5123291016,0.0070886612,0.0304137170,0.0217266083,31.4407043457,52.5408248901,-97.8408050537,0.0706423521,0.0000377893,0.0029096007,
1783.783,-3.1559460163,1.3139106035,-174.0374908447,0.0629691184,0.0408791900,0.0115463734,-94.4958419800,-33.1339187622,30.1898174286,-0.0192540884,-0.0115522146,0.0290451869,-98.0628280640,74.6773376465,-172.7583618164,0.0049803257,0.0335828662,0.0230391026,31.5259113312,52.4760360718,-97.7283782959,0.0640947819,-0.0012026429,0.0031059980,
1783.793,-3.1562151909,1.3116774559,-174.0362701416,0.0634184331,0.0394190885,0.0012917519,-94.5295104980,-33.3936462402,30.4012565613,-0.0079077482,-0.0189514756,0.0220156685,-98.2686462402,74.5348892212,-172.9961547852,-0.0039803982,0.0348349512,0.0213963687,31.6077804565,52.4080123901,-97.6169433594,0.0643476248,-0.0009726882,0.0100845098,
1783.803,-3.1577064991,1.3119856119,-174.0344696045,0.0570761561,0.0413981900,0.0091054440,-94.5692214966,-33.6573867798,30.6167507172,-0.0107685328,-0.0142064095,0.0072534829,-98.4869766235,74.3912734985,-173.2448730469,0.0090200305,0.0365796089,0.0178776681,31.6977348328,52.3365325928,-97.4988861084,0.0743281245,0.0015991330,0.0029112101,
1783.813,-3.1579077244,1.3135216236,-174.0333404541,0.0571029559,0.0394485332,0.0139892697,-94.5998077393,-33.9209709167,30.8246994019,-0.0058028102,-0.0177677870,0.0157923847,-98.7027740479,74.2454757690,-173.4942169189,-0.0028982162,0.0320063531,0.0163230002,31.7914619446,52.2672729492,-97.3773269653,0.0774952173,-0.0017079115,0.0050662756,
1783.823,-3.1582765579,1.3145794868,-174.0316467285,0.0585862622,0.0389666557,0.0047128201,-94.6219100952,-34.1856575012,31.0252037048,-0.0081654191,-0.0140231848,0.0246921703,-98.9126205444,74.1010742188,-173.7396392822,-0.0006558895,0.0361950696,0.0191486478,31.8804321289,52.2006416321,-97.2597122192,0.0660407543,-0.0030008852,0.0003924966,
1783.833,-3.1552371979,1.3148024082,-174.0316009521,0.0546839014,0.0467262119,0.0027567744,-94.6436996460,-34.4476013184,31.2248573303,-0.0158476233,-0.0122217536,0.0169843808,-99.0963821411,73.9563522339,-173.9566192627,0.0035319328,0.0374715924,0.0321208537,31.9663181305,52.1322784424,-97.1450500488,0.0701917410,-0.0072092414,-0.0062680244,
1783.843,-3.1556863785,1.3178023100,-174.0323181152,0.0537596792,0.0408745892,0.0144771934,-94.6642227173,-34.7124290466,31.4188175201,-0.0108641386,-0.0192540288,0.0165777355,-99.2841186523,73.8096466064,-174.1774291992,0.0047742724,0.0348646641,0.0260891318,32.0508956909,52.0593948364,-97.0316162109,0.0723399520,-0.0002095103,0.0016624928,
1783.853,-3.1548476219,1.3168957233,-174.0317687988,0.0630212054,0.0433013923,0.0032455325,-94.6910552979,-34.9824256897,31.6160869598,-0.0083837509,-0.0122022629,0.0172296017,-99.4830627441,73.6673660278,-174.4061737061,0.0011491776,0.0433983505,0.0259744823,32.1298637390,51.9831390381,-96.9236602783,0.0690795183,-0.0053916872,-0.0007287264,
1783.863,-3.1554756165,1.3169108629,-174.0299835205,0.0600917824,0.0423357785,0.0047111511,-94.7186508179,-35.2516784668,31.8124713898,-0.0166222453,-0.0124863982,0.0149593949,-99.6697311401,73.5203552246,-174.6298065186,-0.0186184645,0.0398062468,0.0175274014,32.2089996338,51.9075241089,-96.8148651123,0.0741254091,-0.0120365620,0.0042175055,
1783.873,-3.1561336517,1.3156297207,-174.0281219482,0.0605577081,0.0443003960,0.0105702877,-94.7504730225,-35.5262222290,32.0074806213,0.0038853884,-0.0138231516,0.0151817426,-99.8620681763,73.3683776855,-174.8593444824,0.0011335015,0.0299346447,0.0276924968,32.2836341858,51.8312835693,-96.7117462158,0.0654913187,-0.0083924532,0.0042496920,
1783.883,-3.1563661098,1.3152580261,-174.0281372070,0.0571332537,0.0394216403,0.0144767761,-94.7850112915,-35.8000297546,32.1975173950,0.0004910827,-0.0151745677,0.0178801715,-100.0491638184,73.2131042480,-175.0884246826,0.0086551309,0.0367167890,0.0334618688,32.3592834473,51.7491874695,-96.6091766357,0.0694878697,-0.0028486252,0.0095945597,
1783.893,-3.1557557583,1.3164749146,-174.0263977051,0.0581310540,0.0423406698,0.0076407194,-94.8132171631,-36.0764236450,32.3814163208,0.0102572441,-0.0229105949,0.0004623383,-100.2412490845,73.0579299927,-175.3212280273,-0.0058024526,0.0356711149,0.0212059021,32.4404945374,51.6632194519,-96.5008621216,0.0739291310,-0.0037327409,0.0085839033,
1783.903,-3.1575217247,1.3158528805,-174.0251464844,0.0556787923,0.0384651981,0.0012946129,-94.8360595703,-36.3525390625,32.5560836792,0.0063691139,-0.0189379454,0.0088446811,-100.4162063599,72.8971252441,-175.5416564941,0.0026532412,0.0303312838,0.0225679874,32.5207672119,51.5794715881,-96.3945388794,0.0691154003,-0.0104528666,0.0032020807,
1783.913,-3.1572639942,1.3148666620,-174.0239868164,0.0634740815,0.0433435440,0.0047119260,-94.8535156250,-36.6202774048,32.7264404297,-0.0081300735,-0.0139139295,0.0083661675,-100.5961074829,72.7327804565,-175.7716522217,0.0062003136,0.0265020132,0.0264225304,32.6045227051,51.4938240051,-96.2845535278,0.0769746304,-0.0113609433,0.0007519126,
1783.923,-3.1581523418,1.3154540062,-174.0241088867,0.0600663647,0.0350582227,0.0100841522,-94.8667755127,-36.8827209473,32.8963203430,-0.0132650137,-0.0093351007,0.0151548088,-100.7479934692,72.5750427246,-175.9716796875,-0.0395423174,0.0465096533,0.0286632180,32.7008590698,51.4062423706,-96.1639785767,0.0784634352,0.0032252669,-0.0016410351,
1783.933,-3.1559851170,1.3166623116,-174.0235443115,0.0556929111,0.0457626320,0.0047115088,-94.8770599365,-37.1391296387,33.0629653931,-0.0075612068,-0.0105654001,0.0223928913,-100.8948287964,72.4183197021,-176.1601409912,-0.0154626966,0.0396426618,0.0260049999,32.7963447571,51.3200607300,-96.0445404053,0.0604344606,0.0065972507,-0.0035313368,
1783.943,-3.1578950882,1.3185722828,-174.0231170654,0.0596324913,0.0379833616,0.0042257905,-94.8875732422,-37.3886260986,33.2255630493,-0.0163978338,0.0058391094,0.0301267505,-101.0222167969,72.2615280151,-176.3274230957,-0.0006678700,0.0420681536,0.0374172926,32.8828659058,51.2290802002,-95.9295043945,0.0740895271,-0.0031689107,0.0037538409,
1783.953,-3.1580481529,1.3173149824,-174.0225677490,0.0640050843,0.0399391763,-0.0026106238,-94.9057312012,-37.6351699829,33.3851547241,-0.0178579688,0.0071144104,0.0208763331,-101.1572494507,72.1148834229,-176.4971313477,-0.0043804646,0.0648225546,0.0278521478,32.9705734253,51.1439552307,-95.8149414063,0.0848770142,-0.0016737580,-0.0098788738,
1783.963,-3.1565403938,1.3181360960,-174.0225830078,0.0571834743,0.0477253981,0.0125249624,-94.9208145142,-37.8804969788,33.5349617004,-0.0105009675,-0.0028387308,0.0071874410,-101.2844619751,71.9699020386,-176.6539611816,0.0094878078,0.0333536565,0.0324105024,33.0408439636,51.0581665039,-95.7156143188,0.0873547792,-0.0010010898,-0.0089712739,
1783.973,-3.1545991898,1.3178158998,-174.0207366943,0.0591310114,0.0491564274,0.0047105551,-94.9304122925,-38.1270751953,33.6714477539,-0.0046147704,0.0018351078,0.0031853318,-101.4206771851,71.8278274536,-176.8166961670,0.0077408552,0.0364901423,0.0277400017,33.0998344421,50.9763069153,-95.6236572266,0.0820614696,-0.0128920078,0.0011938810,
1783.983,-3.1534514427,1.3172178268,-174.0189056396,0.0600971393,0.0442536287,0.0047091842,-94.9247970581,-38.3702087402,33.7960777283,-0.0020878911,-0.0012629032,0.0072776973,-101.5609664917,71.6877288818,-176.9811859131,0.0064871311,0.0268891454,0.0182124376,33.1574897766,50.8975067139,-95.5347061157,0.0743588209,-0.0047292113,-0.0081424713,
1783.993,-3.1524021626,1.3178406954,-174.0170898438,0.0581548810,0.0481415875,0.0100795627,-94.9059371948,-38.6065826416,33.9075622559,0.0064017177,-0.0067276359,0.0038712248,-101.6910705566,71.5486068726,-177.1377716064,-0.0045325160,0.0329022706,0.0203558207,33.2104606628,50.8124656677,-95.4520416260,0.0724452734,-0.0029178262,0.0034214258,
1784.003,-3.1537382603,1.3195757866,-174.0171356201,0.0518375039,0.0398640446,0.0134996176,-94.8795013428,-38.8430175781,34.0075187683,0.0002526641,0.0102630854,0.0111049637,-101.8114700317,71.4134521484,-177.2845153809,-0.0013754964,0.0329981744,0.0234186053,33.2614440918,50.7329559326,-95.3720321655,0.0735208392,-0.0166728199,0.0042959452,
1784.013,-3.1565880775,1.3167449236,-174.0152740479,0.0615537316,0.0345426612,0.0066648722,-94.8557662964,-39.0705451965,34.1007575989,0.0015591383,0.0009678006,0.0027593002,-101.9135513306,71.2714080811,-177.4183044434,-0.0021685958,0.0239437521,0.0332486033,33.3125572205,50.6496772766,-95.2935256958,0.0696703792,-0.0089733005,0.0148968697,
1784.023,-3.1571531296,1.3174549341,-174.0141143799,0.0576598719,0.0404118672,0.0081309080,-94.8321609497,-39.2990264893,34.1866416931,0.0092103481,-0.0059095621,0.0178534985,-102.0272598267,71.1326370239,-177.5670166016,-0.0078318119,0.0314202309,0.0206783414,33.3706321716,50.5644340515,-95.2089004517,0.0804449320,-0.0111190975,0.0011066794,
1784.033,-3.1544072628,1.3175373077,-174.0123443604,0.0620558336,0.0476882420,0.0061748028,-94.8150558472,-39.5227775574,34.2685356140,0.0022869706,-0.0049415231,0.0003250912,-102.1329193115,70.9931030273,-177.7068634033,0.0011434555,0.0301242173,0.0153983831,33.4354667664,50.4829788208,-95.1194915771,0.0746582150,-0.0059760809,0.0025401115,
1784.043,-3.1545124054,1.3167192936,-174.0105743408,0.0630181283,0.0398776010,0.0051986575,-94.7895660400,-39.7400550842,34.3373794556,-0.0011219382,-0.0004866719,0.0129649565,-102.2300109863,70.8519439697,-177.8398437500,0.0008264780,0.0342318714,0.0178961754,33.4975776672,50.3978309631,-95.0335693359,0.0746883750,-0.0076717734,-0.0009633303,
1784.053,-3.1534686089,1.3160067797,-174.0094146729,0.0625174120,0.0418125503,0.0047085285,-94.7607879639,-39.9532394409,34.3984565735,-0.0054435134,-0.0038055778,0.0143347457,-102.3116531372,70.7139587402,-177.9571380615,-0.0028958917,0.0343963206,0.0300683379,33.5597686768,50.3092689514,-94.9502563477,0.0810263157,-0.0054883659,-0.0005958080,
1784.063,-3.1538541317,1.3153516054,-174.0094299316,0.0600645766,0.0432841256,0.0081267953,-94.7321243286,-40.1678199768,34.4576416016,0.0019440055,-0.0056874156,0.0088715702,-102.4000320435,70.5758285522,-178.0803070068,0.0075355768,0.0325977206,0.0286132693,33.6254158020,50.2257575989,-94.8625411987,0.0693525076,-0.0013474822,-0.0069832206,
1784.073,-3.1540327072,1.3147282600,-174.0088348389,0.0600536987,0.0418224037,0.0076383948,-94.7012939453,-40.3755950928,34.5124549866,-0.0086353421,-0.0050589442,0.0151050240,-102.4922180176,70.4386444092,-178.2093048096,-0.0000993013,0.0356578827,0.0203469396,33.6802330017,50.1411514282,-94.7834472656,0.0659655333,-0.0083451569,0.0095025301,
1784.083,-3.1523516178,1.3135219812,-174.0088195801,0.0575912446,0.0398400128,0.0047066212,-94.6733169556,-40.5838546753,34.5650024414,-0.0109118223,-0.0005437732,0.0213781595,-102.5705718994,70.3015594482,-178.3242187500,0.0049563050,0.0323821306,0.0247023106,33.7432441711,50.0608634949,-94.6963653564,0.0792268515,-0.0144113600,-0.0027185678,
1784.093,-3.1533815861,1.3135001659,-174.0076599121,0.0600322708,0.0388813987,0.0027544498,-94.6500167847,-40.7905693054,34.6203079224,0.0063719749,-0.0053034425,0.0116022862,-102.6368408203,70.1650543213,-178.4272613525,0.0036622882,0.0247144103,0.0245968103,33.8082504272,49.9849395752,-94.6081314087,0.0637270212,-0.0063043833,-0.0012038946,
1784.103,-3.1561164856,1.3150831461,-174.0052947998,0.0527356714,0.0369758904,0.0095937848,-94.6207504272,-40.9924049377,34.6681175232,-0.0031269789,-0.0031752586,0.0144488849,-102.7086181641,70.0307006836,-178.5366058350,0.0087233782,0.0360448360,0.0308676362,33.8674163818,49.9012451172,-94.5274658203,0.0720642805,-0.0089436173,-0.0002967119,
1784.113,-3.1567292213,1.3136389256,-174.0040435791,0.0610112548,0.0423576944,0.0105702877,-94.5970230103,-41.1929550171,34.7146072388,0.0000944138,-0.0142315626,0.0159057975,-102.7718734741,69.8893966675,-178.6421051025,0.0152025223,0.0221037269,0.0268644691,33.9352912903,49.8207931519,-94.4391784668,0.0755536556,-0.0082230270,0.0021681190,
1784.123,-3.1567378044,1.3148015738,-174.0035095215,0.0556604490,0.0404046886,-0.0011478662,-94.5668106079,-41.3973503113,34.7569770813,0.0042501092,-0.0097097158,0.0172757916,-102.8508071899,69.7512512207,-178.7638702393,-0.0022307634,0.0325014889,0.0180641413,33.9963340759,49.7380180359,-94.3572311401,0.0672965646,-0.0103862584,-0.0008028746,
1784.133,-3.1572258472,1.3167436123,-174.0011749268,0.0556943342,0.0384600200,0.0071538091,-94.5452651978,-41.6010360718,34.8024330139,0.0020758510,-0.0100814700,0.0212023705,-102.9071884155,69.6105804443,-178.8638305664,0.0218189955,0.0327122211,0.0316056013,34.0617942810,49.6518096924,-94.2741012573,0.0765771866,-0.0033400059,0.0050077438,
1784.143,-3.1588599682,1.3175321817,-173.9994506836,0.0596143380,0.0409298837,0.0071560740,-94.5219345093,-41.8040504456,34.8484840393,-0.0030109882,-0.0207071900,0.0255958289,-102.9722442627,69.4716110229,-178.9729156494,0.0004634261,0.0323923826,0.0237119198,34.1243286133,49.5670013428,-94.1921691895,0.0707352161,-0.0035809875,0.0000762939,
1784.153,-3.1594827175,1.3193488121,-173.9989929199,0.0601343215,0.0424055383,0.0091101527,-94.5009765625,-42.0081062317,34.8966712952,-0.0095677972,-0.0201265216,0.0246490985,-103.0434188843,69.3308181763,-179.0891571045,-0.0033308268,0.0340418816,0.0227026939,34.1804008484,49.4724044800,-94.1176528931,0.0696634054,-0.0067647696,0.0018353462,
1784.163,-3.1582612991,1.3238137960,-173.9972381592,0.0489817597,0.0487318151,0.0105758905,-94.4769210815,-42.2103614807,34.9482727051,-0.0151162744,-0.0190429688,0.0334306397,-103.0989151001,69.1919403076,-179.1894226074,-0.0154196024,0.0347037613,0.0357561707,34.2493400574,49.3827323914,-94.0272064209,0.0813407898,-0.0085684061,-0.0084722042,
1784.173,-3.1555190086,1.3248356581,-173.9966888428,0.0587652139,0.0477074571,0.0130150318,-94.4579391479,-42.4151382446,35.0079765320,-0.0075052977,-0.0184917450,0.0188386105,-103.1500320435,69.0509185791,-179.2806854248,-0.0040897131,0.0397969186,0.0380522013,34.3171806335,49.2934913635,-93.9371109009,0.0725133419,-0.0079181790,-0.0007124543,
1784.183,-3.1553146839,1.3244206905,-173.9960479736,0.0572931319,0.0452624932,0.0110614896,-94.4347610474,-42.6200447083,35.0618057251,-0.0086764693,-0.0247834921,0.0290960930,-103.2105789185,68.9057083130,-179.3760070801,-0.0040223002,0.0356616080,0.0282184482,34.3727912903,49.1927909851,-93.8575668335,0.0703894496,0.0025264621,0.0024521947,
1784.193,-3.1547236443,1.3233907223,-173.9947662354,0.0572751611,0.0423225351,0.0066661239,-94.4161071777,-42.8315124512,35.1202278137,-0.0030869842,-0.0243308544,0.0203633048,-103.2702484131,68.7600173950,-179.4706268311,-0.0127530098,0.0310441256,0.0291272998,34.4269332886,49.0925369263,-93.7756805420,0.0731509924,-0.0075201690,-0.0007313490,
1784.203,-3.1535680294,1.3239579201,-173.9935760498,0.0582616180,0.0442555137,0.0110596418,-94.3931274414,-43.0421295166,35.1798706055,-0.0091961026,-0.0248509645,0.0223199017,-103.3283767700,68.6083068848,-179.5657196045,-0.0102975368,0.0314019918,0.0290769935,34.4870109558,48.9898681641,-93.6903839111,0.0680701137,-0.0064108670,0.0029369593,
1784.213,-3.1540431976,1.3232753277,-173.9935455322,0.0558083020,0.0408458337,0.0061770082,-94.3657073975,-43.2511672974,35.2422904968,-0.0108814240,-0.0273107886,0.0242222138,-103.3774185181,68.4507522583,-179.6525421143,-0.0137454271,0.0274670422,0.0289958119,34.5455665588,48.8842048645,-93.6073303223,0.0609993339,-0.0082400441,0.0031489730,
1784.223,-3.1546063423,1.3240631819,-173.9923553467,0.0553337671,0.0403673500,0.0110607147,-94.3339462280,-43.4667739868,35.3092727661,-0.0077580810,-0.0239961743,0.0377848968,-103.4391708374,68.2933731079,-179.7508392334,-0.0103633404,0.0376672745,0.0285092592,34.6097946167,48.7748680115,-93.5168609619,0.0631610751,-0.0062446296,-0.0010319948,
1784.233,-3.1559832096,1.3218677044,-173.9923553467,0.0631079599,0.0399031043,0.0027604699,-94.3218536377,-43.6865501404,35.3927536011,-0.0085837841,-0.0256435871,0.0164369419,-103.5102691650,68.1333618164,-179.8549041748,-0.0060287714,0.0391002297,0.0241903663,34.6779022217,48.6641044617,-93.4210510254,0.0653036237,-0.0091803968,-0.0047109723,
1784.243,-3.1574573517,1.3226746321,-173.9930419922,0.0567743853,0.0374873653,0.0022739172,-94.3091888428,-43.9096603394,35.4735221863,-0.0104178786,-0.0327123404,0.0287702233,-103.5905075073,67.9709243774,-179.9646759033,0.0026772618,0.0425064862,0.0223854780,34.7597541809,48.5514602661,-93.3069992065,0.0835349560,-0.0103083551,-0.0029428005,
1784.253,-3.1581246853,1.3217873573,-173.9919128418,0.0631065592,0.0379872918,0.0042273402,-94.2993545532,-44.1374969482,35.5629119873,-0.0118123293,-0.0266682506,0.0308810025,-103.6709899902,67.8047103882,179.9296722412,-0.0052506924,0.0347350836,0.0269507170,34.8423919678,48.4459495544,-93.1895904541,0.0662013888,-0.0074855983,-0.0059705377,
1784.263,-3.1600337029,1.3220716715,-173.9901580811,0.0572521463,0.0355791450,0.0120418072,-94.2932662964,-44.3710708618,35.6603012085,-0.0113142729,-0.0207094550,0.0296159610,-103.7503814697,67.6346893311,179.8242797852,-0.0039343834,0.0333677530,0.0222524405,34.9041862488,48.3264389038,-93.0942687988,0.0560271740,-0.0031051338,-0.0063511729,
1784.273,-3.1616446972,1.3227632046,-173.9895782471,0.0553110838,0.0390251577,0.0032544732,-94.2971572876,-44.6083641052,35.7709465027,-0.0176867247,-0.0104223490,0.0401892811,-103.8181991577,67.4619750977,179.7284088135,-0.0045973063,0.0344966948,0.0243315101,34.9579582214,48.1999244690,-93.0055007935,0.0770180821,-0.0113964975,0.0077928901,
1784.283,-3.1622893810,1.3245575428,-173.9884033203,0.0538775511,0.0444074497,0.0086269975,-94.3231277466,-44.8506698608,35.9000358582,-0.0099489689,-0.0163422227,0.0334506631,-103.8845520020,67.2877502441,179.6346893311,-0.0057671070,0.0307633877,0.0288535953,35.0192642212,48.0764541626,-92.9085388184,0.0789980292,-0.0080187023,-0.0009242892,
1784.293,-3.1597623825,1.3246859312,-173.9871978760,0.0621805713,0.0511993580,0.0169253945,-94.3640365601,-45.0960426331,36.0456733704,-0.0095605850,-0.0276975036,0.0249361694,-103.9472961426,67.1097564697,179.5417480469,-0.0050178766,0.0270882547,0.0250715017,35.0805778503,47.9496803284,-92.8123092651,0.0667756200,-0.0075958669,-0.0008825064,
1784.303,-3.1582996845,1.3242869377,-173.9854125977,0.0616853312,0.0453145057,0.0086230040,-94.4026947021,-45.3439979553,36.1975479126,-0.0067495704,-0.0156584382,0.0368945189,-104.0025863647,66.9317626953,179.4548034668,-0.0111135244,0.0297689140,0.0314982533,35.1406364441,47.8206596375,-92.7165679932,0.0677069426,-0.0110845268,-0.0047737956,
1784.313,-3.1602468491,1.3243331909,-173.9854736328,0.0597330108,0.0399773382,0.0076479912,-94.4449005127,-45.5890769958,36.3567123413,-0.0136557221,-0.0177599788,0.0352215022,-104.0516967773,66.7534561157,179.3795318604,-0.0113607645,0.0363651216,0.0349597335,35.1982421875,47.6882934570,-92.6216049194,0.0676186085,-0.0033444464,0.0054485202,
1784.323,-3.1612460613,1.3229247332,-173.9861297607,0.0626381189,0.0390182100,0.0096021295,-94.4908142090,-45.8316650391,36.5214576721,-0.0073348880,-0.0134992599,0.0150359273,-104.1044921875,66.5766448975,179.3028717041,-0.0081886053,0.0370673537,0.0286784172,35.2624473572,47.5530052185,-92.5193710327,0.0738394856,-0.0025260746,0.0000654459,
1784.333,-3.1607728004,1.3213911057,-173.9848937988,0.0611465201,0.0419396870,0.0056939125,-94.5303726196,-46.0721817017,36.6816978455,-0.0078120232,-0.0121487975,0.0147895887,-104.1482543945,66.4009780884,179.2389526367,-0.0084351301,0.0323907137,0.0355190635,35.3242683411,47.4179153442,-92.4196777344,0.0829883814,-0.0085194111,-0.0106964707,
1784.343,-3.1589183807,1.3202164173,-173.9837036133,0.0640557110,0.0467902124,0.0027626157,-94.5613021851,-46.3109054565,36.8366851807,-0.0072783232,-0.0137094259,0.0168773048,-104.1956787109,66.2203216553,179.1736297607,-0.0004246235,0.0297338963,0.0238525271,35.4346466064,47.2951698303,-92.2622680664,0.1367129087,-0.0178200305,0.0102595687,
1784.353,-3.1595075130,1.3184931278,-173.9818572998,0.0620725155,0.0424059816,0.0095983148,-94.5854263306,-46.5534858704,36.9888839722,-0.0121495128,-0.0148355961,0.0247345455,-104.2440032959,66.0427246094,179.1107788086,-0.0007022619,0.0265344977,0.0268321633,35.5753135681,47.2120361328,-92.0711364746,0.0639507174,0.0143840313,-0.0003821850,
1784.363,-3.1581790447,1.3182972670,-173.9799957275,0.0566980094,0.0448242538,0.0091087818,-94.6174240112,-46.8010559082,37.1451873779,-0.0068132877,-0.0096969604,0.0243764073,-104.2906646729,65.8623733521,179.0456085205,0.0111986399,0.0228863657,0.0254206061,35.6532897949,47.0941276550,-91.9452209473,0.0718286037,0.0049407184,0.0003957152,
1784.373,-3.1566271782,1.3172991276,-173.9775695801,0.0620516837,0.0433324017,0.0164310336,-94.6630706787,-47.0527648926,37.3128318787,-0.0024892688,-0.0144026875,0.0212415904,-104.3497924805,65.6835098267,178.9634246826,-0.0066839457,0.0299310386,0.0167688131,35.7023582458,46.9628906250,-91.8533630371,0.0731970072,-0.0067644715,-0.0001361370,
1784.383,-3.1577601433,1.3164602518,-173.9764404297,0.0630136058,0.0384693407,0.0061779022,-94.7216415405,-47.3099975586,37.4947700500,-0.0035876036,-0.0065090060,0.0245945752,-104.4047088623,65.5010147095,178.8817901611,-0.0084884167,0.0209197700,0.0242200494,35.7629699707,46.8419494629,-91.7483596802,0.0668719411,-0.0185050368,0.0175899267,
1784.393,-3.1590440273,1.3158574104,-173.9764556885,0.0595851205,0.0423979685,-0.0001687407,-94.7944488525,-47.5691413879,37.6875686646,-0.0002990961,-0.0089215636,0.0237104893,-104.4676208496,65.3211898804,178.7940063477,-0.0097943544,0.0308895111,0.0156083107,35.8230781555,46.7134094238,-91.6497955322,0.0545934439,-0.0102778971,-0.0126116872,
1784.403,-3.1594274044,1.3153593540,-173.9752807617,0.0595764294,0.0389866903,0.0032494068,-94.8754501343,-47.8245658875,37.8855743408,0.0015832186,-0.0147265196,0.0102214627,-104.5134353638,65.1362915039,178.7214202881,-0.0082167983,0.0258266926,0.0259425640,35.8814964294,46.5774993896,-91.5504760742,0.0749375820,-0.0103904307,0.0044669509,
1784.413,-3.1607160568,1.3153523207,-173.9741058350,0.0581114627,0.0399857052,0.0105747581,-94.9433288574,-48.0754585266,38.0751495361,0.0020682812,-0.0238915682,0.0165936910,-104.5552902222,64.9542999268,178.6559600830,-0.0193225145,0.0387866795,0.0328227282,35.9459342957,46.4420814514,-91.4427566528,0.0689164400,-0.0086047351,-0.0037908554,
1784.423,-3.1598949432,1.3142452240,-173.9740600586,0.0595569909,0.0453425199,0.0095970631,-95.0056762695,-48.3243179321,38.2609481812,-0.0003383756,-0.0174124837,0.0116651803,-104.5987396240,64.7685165405,178.5932006836,-0.0148406625,0.0351954103,0.0280134082,36.0165138245,46.3031539917,-91.3295669556,0.0755442381,-0.0132531524,0.0006596446,
1784.433,-3.1614403725,1.3122783899,-173.9734802246,0.0644054860,0.0414632373,-0.0011444688,-95.0527725220,-48.5738639832,38.4394149780,0.0011671782,-0.0114278793,0.0182706900,-104.6478195190,64.5791854858,178.5257720947,-0.0001408458,0.0331066549,0.0198439956,36.0902900696,46.1662483215,-91.2115936279,0.0743797421,-0.0105940700,-0.0050933361,
1784.443,-3.1623246670,1.3092266321,-173.9734497070,0.0638639554,0.0395255834,0.0003199577,-95.1033859253,-48.8233489990,38.6154823303,0.0012229681,-0.0122942924,0.0122144893,-104.6830902100,64.3900451660,178.4710083008,-0.0054690838,0.0290821791,0.0174360871,36.1586189270,46.0300445557,-91.0965805054,0.0615008473,-0.0171542764,0.0013357401,
1784.453,-3.1637949944,1.3089377880,-173.9711608887,0.0658120364,0.0371098034,0.0110633969,-95.1438369751,-49.0733909607,38.7802734375,0.0100756884,-0.0117056370,0.0040826090,-104.7097778320,64.1953353882,178.4188995361,-0.0005955696,0.0217347443,0.0252436996,36.2219963074,45.8910598755,-90.9884185791,0.0715333223,-0.0183159709,-0.0020581484,
1784.463,-3.1645188332,1.3102436066,-173.9687957764,0.0555809177,0.0420051962,0.0008108020,-95.1688537598,-49.3225364685,38.9345283508,0.0101639032,-0.0159839392,0.0104184970,-104.7354507446,64.0050125122,178.3681945801,-0.0147417784,0.0289657712,0.0247269273,36.2840652466,45.7467384338,-90.8826522827,0.0722192526,-0.0121801794,0.0066980124,
1784.473,-3.1630043983,1.3098052740,-173.9694213867,0.0594795160,0.0434436649,0.0164341331,-95.1849212646,-49.5713310242,39.0762786865,-0.0063311458,-0.0095186234,0.0034667477,-104.7564697266,63.8116416931,178.3170623779,-0.0069488287,0.0308758020,0.0256537199,36.3522491455,45.6028938293,-90.7720870972,0.0694884658,-0.0100073218,-0.0035333037,
1784.483,-3.1631789207,1.3115669489,-173.9682769775,0.0560922846,0.0439349525,0.0071576834,-95.1730957031,-49.8151702881,39.1973342896,0.0021464229,-0.0142018199,0.0079237893,-104.7810974121,63.6212348938,178.2637481689,-0.0025610328,0.0332170129,0.0222020745,36.4166831970,45.4587898254,-90.6670684814,0.0730977058,-0.0136591494,-0.0020690560,
1784.493,-3.1634671688,1.3091338873,-173.9664154053,0.0619092099,0.0414986201,-0.0035852194,-95.1560211182,-50.0618705750,39.3119010925,-0.0016013384,0.0001132488,0.0157371275,-104.8007202148,63.4324836731,178.2148742676,-0.0054943562,0.0272361636,0.0231019258,36.4820861816,45.3168869019,-90.5614471436,0.0742880702,-0.0182808042,-0.0142404437,
1784.503,-3.1633358002,1.3102188110,-173.9647064209,0.0585101694,0.0385666154,0.0052042007,-95.1297454834,-50.3068428040,39.4192581177,-0.0023860335,-0.0036177039,0.0205211937,-104.8323898315,63.2469863892,178.1531829834,-0.0059704781,0.0353378057,0.0250574946,36.5424156189,45.1684951782,-90.4622497559,0.0783238411,-0.0072753429,-0.0016049147,
1784.513,-3.1629862785,1.3091511726,-173.9646911621,0.0614212304,0.0458847657,0.0056918263,-95.1154708862,-50.5519905090,39.5329933167,-0.0090178847,0.0067853928,0.0176273286,-104.8507461548,63.0637397766,178.1036682129,-0.0025319457,0.0331730247,0.0283691287,36.5941619873,45.0201530457,-90.3720703125,0.0750312209,-0.0113209486,-0.0056271553,
1784.523,-3.1614270210,1.3065633774,-173.9628601074,0.0647940487,0.0414631292,0.0017825961,-95.1170425415,-50.7943534851,39.6511077881,-0.0092571378,-0.0101449490,0.0168646201,-104.8836822510,62.8842926025,178.0389862061,-0.0107910037,0.0387291610,0.0259189010,36.6450157166,44.8731880188,-90.2826004028,0.0820049047,-0.0148587823,0.0006183386,
1784.533,-3.1627571583,1.3069559336,-173.9623260498,0.0584532358,0.0400214493,0.0022729635,-95.1186676025,-51.0373916626,39.7726898193,-0.0094900727,-0.0060999990,0.0200070888,-104.9128799438,62.7102088928,177.9770355225,-0.0243870020,0.0398130119,0.0263501406,36.6997642517,44.7267761230,-90.1898651123,0.0655432940,0.0006121993,-0.0062796474,
1784.543,-3.1592509747,1.3068660498,-173.9610595703,0.0560102612,0.0482611470,0.0027573109,-95.1257705688,-51.2794532776,39.8979797363,-0.0096983314,-0.0040115118,0.0246741176,-104.9474945068,62.5317726135,177.9094085693,-0.0092176199,0.0311799943,0.0248891711,36.7448654175,44.5783920288,-90.1028518677,0.0783493519,-0.0253387094,-0.0088678598,
1784.553,-3.1598877907,1.3032238483,-173.9604034424,0.0662006140,0.0424129553,0.0042215586,-95.1374969482,-51.5217475891,40.0264472961,0.0003587604,-0.0078006387,0.0147400275,-104.9789657593,62.3555335999,177.8490753174,-0.0091757774,0.0410697460,0.0243737698,36.7891464233,44.4258193970,-90.0229339600,0.0705907345,0.0019114614,-0.0100324750,
1784.563,-3.1603512764,1.3020066023,-173.9574432373,0.0647145361,0.0385148041,0.0066630244,-95.1436004639,-51.7613372803,40.1506652832,-0.0046777129,-0.0032578707,0.0193952322,-105.0096130371,62.1800994873,177.7919616699,-0.0135303140,0.0314134359,0.0199437737,36.8250579834,44.2687530518,-89.9487457275,0.0920678377,-0.0196146071,0.0072570443,
1784.573,-3.1618261337,1.3019345999,-173.9569244385,0.0603187457,0.0351225249,0.0091053843,-95.1415557861,-51.9962615967,40.2733154297,0.0010918975,-0.0045133829,0.0259202421,-105.0373382568,62.0042953491,177.7362518311,-0.0154547095,0.0334824920,0.0233062506,36.8677062988,44.1153221130,-89.8670501709,0.0754993558,-0.0070005655,-0.0022167563,
1784.583,-3.1618971825,1.3006192446,-173.9556121826,0.0563895442,0.0463542603,0.0144767165,-95.1256408691,-52.2155418396,40.3862648010,-0.0120009780,-0.0060390830,0.0210850686,-105.0625152588,61.8308219910,177.6889038086,-0.0076025724,0.0374703705,0.0285936594,36.9086380005,43.9656524658,-89.7875366211,0.0770395398,-0.0124071836,0.0000580549,
1784.593,-3.1621568203,1.2999348640,-173.9556121826,0.0578424484,0.0395228676,0.0027570724,-95.1151504517,-52.4400405884,40.5001182556,-0.0095127225,0.0094381571,0.0109319724,-105.0813217163,61.6605873108,177.6519165039,-0.0016849041,0.0336063206,0.0289356709,36.9475288391,43.8144493103,-89.7081680298,0.0873447061,-0.0143853128,0.0018195510,
1784.603,-3.1608047485,1.2986865044,-173.9537506104,0.0578206629,0.0429173000,-0.0031033158,-95.1080322266,-52.6635208130,40.6075439453,0.0003226399,0.0009919405,0.0125334598,-105.1037673950,61.4882888794,177.6101531982,-0.0065343380,0.0258554518,0.0219908357,36.9786720276,43.6656570435,-89.6373748779,0.0805857182,-0.0196845233,-0.0023075938,
1784.613,-3.1627516747,1.2970592976,-173.9531402588,0.0612102412,0.0400215685,0.0017803311,-95.1001281738,-52.8881645203,40.7131767273,0.0018571019,0.0071683526,0.0107087679,-105.1265335083,61.3244819641,177.5633239746,-0.0093674660,0.0282263160,0.0252702832,37.0103149414,43.5196456909,-89.5691375732,0.0728806257,-0.0054360032,-0.0010285974,
1784.623,-3.1623163223,1.2974472046,-173.9519653320,0.0587756038,0.0439202264,0.0076397061,-95.0926818848,-53.1102409363,40.8163108826,-0.0009638071,0.0104422569,0.0230508521,-105.1442794800,61.1596260071,177.5169677734,-0.0034275055,0.0272018611,0.0226540565,37.0372695923,43.3731384277,-89.5063781738,0.0803015232,-0.0121383071,-0.0041796565,
1784.633,-3.1608941555,1.2974668741,-173.9501647949,0.0602407902,0.0473134220,0.0091031194,-95.0812377930,-53.3231239319,40.9140701294,-0.0046535134,0.0172562599,0.0265743509,-105.1605682373,61.0023612976,177.4731597900,-0.0115907788,0.0314356089,0.0263440609,37.0604171753,43.2291259766,-89.4492950439,0.0770074129,-0.0178056955,0.0004814863,
1784.643,-3.1624596119,1.2974814177,-173.9496459961,0.0597527660,0.0370867886,0.0017803311,-95.0779953003,-53.5299263000,41.0152282715,-0.0028979182,0.0168154836,0.0140770376,-105.1671371460,60.8448982239,177.4371337891,0.0012338161,0.0239714086,0.0319082737,37.0910148621,43.0903244019,-89.3870849609,0.0815880299,-0.0156971216,-0.0089055896,
1784.653,-3.1650216579,1.2967690229,-173.9503326416,0.0621817410,0.0400611237,0.0052005053,-95.0735168457,-53.7284355164,41.1105346680,-0.0078821778,0.0125777721,0.0089015327,-105.1730041504,60.6973342896,177.4048614502,-0.0083245635,0.0329616368,0.0330321789,37.1280632019,42.9593391418,-89.3195953369,0.0872408748,-0.0209212005,-0.0059574842,
1784.663,-3.1644406319,1.2972784042,-173.9492340088,0.0607257858,0.0400509872,0.0139891505,-95.0589523315,-53.9245643616,41.1914710999,0.0008396506,0.0161883831,0.0158320889,-105.1879806519,60.5527381897,177.3671264648,-0.0056562424,0.0340718329,0.0234775543,37.1625137329,42.8344955444,-89.2559127808,0.0822266936,-0.0133785307,-0.0146856308,
1784.673,-3.1633796692,1.2960351706,-173.9480590820,0.0646103397,0.0439387858,0.0105698109,-95.0418472290,-54.1142539978,41.2643775940,-0.0054999590,0.0125600696,0.0110273138,-105.2062149048,60.4112434387,177.3272552490,-0.0068729520,0.0273132920,0.0197973251,37.1879997253,42.7120285034,-89.2012786865,0.0767514706,-0.0091443658,-0.0117379427,
1784.683,-3.1649503708,1.2944170237,-173.9456634521,0.0636055470,0.0390833728,0.0003166795,-95.0176391602,-54.2990341187,41.3264045715,-0.0054330826,0.0099776983,0.0159227550,-105.2209625244,60.2757530212,177.2902679443,-0.0041368008,0.0356082618,0.0287600756,37.2021369934,42.5903816223,-89.1562805176,0.0761664510,-0.0140644908,0.0033391714,
1784.693,-3.1668045521,1.2940683365,-173.9439849854,0.0635994598,0.0337445885,0.0071542263,-94.9917831421,-54.4790039063,41.3821411133,0.0025035739,0.0059936643,0.0139733627,-105.2386703491,60.1417503357,177.2493438721,-0.0077401996,0.0223876834,0.0196754932,37.2178802490,42.4684066772,-89.1111679077,0.0833867192,-0.0116776228,0.0032932162,
1784.703,-3.1656928062,1.2904931307,-173.9433135986,0.0640253574,0.0420260802,0.0091048479,-94.9629135132,-54.6573410034,41.4338188171,0.0002108216,0.0049589276,0.0237160549,-105.2561340332,60.0110549927,177.2066650391,-0.0108312368,0.0247414112,0.0237597823,37.2416915894,42.3603477478,-89.0608444214,0.0775997639,-0.0097617507,-0.0097413659,
1784.713,-3.1664242744,1.2921278477,-173.9415283203,0.0542882569,0.0420387946,-0.0001710653,-94.9396896362,-54.8365135193,41.4847106934,0.0047535300,0.0102490187,0.0310754143,-105.2645416260,59.8829612732,177.1653137207,-0.0021852255,0.0241456926,0.0272691846,37.2577934265,42.2527961731,-89.0179824829,0.0757232308,-0.0224103332,-0.0032959580,
1784.723,-3.1666674614,1.2908221483,-173.9403533936,0.0625662506,0.0415547714,0.0076411963,-94.9248275757,-55.0085983276,41.5440368652,-0.0018553138,0.0073266625,0.0189966820,-105.2734527588,59.7597656250,177.1224822998,-0.0154731274,0.0293346643,0.0297870040,37.2783241272,42.1506690979,-88.9716873169,0.0763559937,-0.0135807395,-0.0026233792,
1784.733,-3.1675808430,1.2912834883,-173.9399108887,0.0625743046,0.0371761471,0.0047125816,-94.9131622314,-55.1727180481,41.6060829163,-0.0078890920,0.0172049999,0.0255152509,-105.2794952393,59.6403007507,177.0826873779,-0.0209196210,0.0271494389,0.0264057517,37.3072929382,42.0525856018,-88.9184875488,0.0702030063,-0.0101798475,-0.0042849183,
1784.743,-3.1663084030,1.2910356522,-173.9381408691,0.0611051358,0.0425250754,0.0071526170,-94.9063186646,-55.3280639648,41.6699028015,-0.0152938962,0.0193869472,0.0316048041,-105.2792358398,59.5285873413,177.0566253662,-0.0082348585,0.0414656401,0.0331941247,37.3322753906,41.9606781006,-88.8692932129,0.0685228109,-0.0179239810,-0.0098245144,
1784.753,-3.1668522358,1.2920655012,-173.9370574951,0.0606348254,0.0405814052,0.0027591586,-94.9115753174,-55.4802513123,41.7362594604,-0.0099660754,0.0206243992,0.0275629088,-105.2816467285,59.4220695496,177.0316619873,-0.0062494278,0.0351912379,0.0360776186,37.3555908203,41.8656845093,-88.8228302002,0.0814491510,-0.0134653151,-0.0100330114,
1784.763,-3.1644940376,1.2920229435,-173.9358825684,0.0601458028,0.0463996977,0.0037333369,-94.9161834717,-55.6230888367,41.7989616394,-0.0123528242,0.0034366846,0.0235264562,-105.2854995728,59.3187484741,177.0066070557,0.0050388575,0.0342363715,0.0428668261,37.3716735840,41.7757415771,-88.7810211182,0.0768613219,-0.0113368630,0.0000048876,
1784.773,-3.1660275459,1.2934697866,-173.9359741211,0.0547999516,0.0371490344,0.0066649914,-94.9183349609,-55.7691459656,41.8567695618,-0.0025590062,0.0037802458,0.0184840560,-105.3019409180,59.2203102112,176.9707183838,-0.0056047440,0.0336673856,0.0326558352,37.3845252991,41.6866264343,-88.7435531616,0.0717943907,-0.0106333494,-0.0012045503,
1784.783,-3.1653926373,1.2946838140,-173.9342041016,0.0557976961,0.0425090417,0.0012938976,-94.9139785767,-55.9113960266,41.9107398987,-0.0059062243,-0.0002147555,0.0241249986,-105.3139419556,59.1250648499,176.9395751953,-0.0123159885,0.0301314592,0.0297181606,37.3909988403,41.5975112915,-88.7136917114,0.0711203218,-0.0113276839,-0.0019738078,
1784.793,-3.1646080017,1.2953966856,-173.9329681396,0.0533687323,0.0429836363,0.0081289411,-94.9271926880,-56.0517234802,41.9765586853,-0.0038584471,0.0104489326,0.0191965960,-105.3327407837,59.0331382751,176.9036102295,-0.0111873150,0.0338550210,0.0209668279,37.3937835693,41.5078010559,-88.6891326904,0.0723900199,-0.0168698728,0.0050358772,
1784.803,-3.1662111282,1.2948950529,-173.9318542480,0.0621490404,0.0366639234,0.0144785643,-94.9427337646,-56.1833724976,42.0438690186,-0.0022097230,-0.0007405281,0.0235781036,-105.3448562622,58.9442291260,176.8720550537,-0.0154047012,0.0312013328,0.0272827148,37.3995819092,41.4197692871,-88.6623382568,0.0775862932,-0.0131532252,-0.0059798360,
1784.813,-3.1658110619,1.2910792828,-173.9305877686,0.0674535558,0.0415398479,0.0164293051,-94.9754714966,-56.3144531250,42.1212081909,-0.0025042295,0.0041744113,0.0188476741,-105.3557205200,58.8569450378,176.8417358398,-0.0117970705,0.0314556956,0.0243043303,37.4056434631,41.3354797363,-88.6370925903,0.0667167902,-0.0182012022,-0.0042625070,
1784.823,-3.1680474281,1.2915080786,-173.9288635254,0.0567188486,0.0323014595,0.0110606551,-95.0059127808,-56.4394340515,42.1942291260,-0.0017589331,-0.0020537376,0.0224011391,-105.3694915771,58.7718963623,176.8106689453,-0.0101243258,0.0292282701,0.0203660727,37.4144248962,41.2533645630,-88.6071624756,0.0724759102,-0.0178905129,-0.0015254617,
1784.833,-3.1684181690,1.2904871702,-173.9264526367,0.0615838468,0.0410970002,0.0017834306,-95.0322036743,-56.5619468689,42.2641296387,-0.0034273863,-0.0092218518,0.0244510993,-105.3782043457,58.6868667603,176.7856597900,-0.0172423124,0.0270115137,0.0315203667,37.4226303101,41.1746711731,-88.5807266235,0.0572825670,-0.0155960619,-0.0021784306,
1784.843,-3.1674902439,1.2928880453,-173.9253234863,0.0538132414,0.0435221866,0.0056896210,-95.0579910278,-56.6863594055,42.3314285278,0.0027022958,-0.0188608170,0.0137964562,-105.3909988403,58.6046524048,176.7551879883,-0.0175006390,0.0286492109,0.0231683850,37.4266433716,41.0919799805,-88.5600051880,0.0684025884,-0.0225623250,-0.0087593198,
1784.853,-3.1663858891,1.2898509502,-173.9252929688,0.0659672767,0.0464327037,0.0008045435,-95.0685653687,-56.8133354187,42.3930778503,0.0078347921,-0.0177846551,0.0151986443,-105.4055252075,58.5200195313,176.7192993164,-0.0172945261,0.0249453187,0.0167943239,37.4283523560,41.0098762512,-88.5394668579,0.0692750812,-0.0285229981,-0.0055864453,
1784.863,-3.1660821438,1.2897762060,-173.9240875244,0.0581534728,0.0434977189,0.0047104955,-95.0794448853,-56.9408950806,42.4606628418,0.0012471676,-0.0201376081,0.0180668384,-105.4159240723,58.4348678589,176.6862335205,-0.0141652822,0.0329762697,0.0221050978,37.4346237183,40.9219245911,-88.5172576904,0.0676276684,-0.0072274506,-0.0024289489,
1784.873,-3.1680407524,1.2897906303,-173.9235687256,0.0601068512,0.0376724713,0.0115482807,-95.0948028564,-57.0727195740,42.5359687805,-0.0000056624,-0.0230475664,0.0155998282,-105.4197158813,58.3468208313,176.6573944092,-0.0139941573,0.0391105413,0.0273689628,37.4470710754,40.8332595825,-88.4858093262,0.0815943480,-0.0123677850,-0.0104566216,
1784.883,-3.1692087650,1.2896291018,-173.9242248535,0.0581509061,0.0406225100,0.0061783791,-95.1084823608,-57.2058677673,42.6199531555,-0.0051728487,-0.0225603580,0.0228799358,-105.4192123413,58.2584114075,176.6345214844,-0.0104103684,0.0413522720,0.0345495343,37.4592895508,40.7487869263,-88.4532318115,0.0633882880,-0.0111283958,-0.0062401295,
1784.893,-3.1692345142,1.2898004055,-173.9224700928,0.0596187375,0.0401346721,0.0066667795,-95.1249923706,-57.3404884338,42.7094612122,-0.0108376145,-0.0269826055,0.0350659266,-105.4316635132,58.1702995300,176.6066589355,-0.0161032081,0.0445342064,0.0262181163,37.4636573792,40.6556549072,-88.4275436401,0.0645973682,-0.0064477026,-0.0158355236,
1784.903,-3.1696040630,1.2903425694,-173.9207763672,0.0606047660,0.0367231369,0.0105731487,-95.1447982788,-57.4771575928,42.8053359985,-0.0116342306,-0.0114214420,0.0423963629,-105.4427032471,58.0792732239,176.5853424072,-0.0091296434,0.0384824276,0.0374172330,37.4633140564,40.5580635071,-88.4031219482,0.0735582113,-0.0061415434,-0.0098819733,
1784.913,-3.1714115143,1.2907984257,-173.9189758301,0.0542650595,0.0382194631,0.0042280555,-95.1891250610,-57.6150665283,42.9254417419,-0.0070664883,-0.0198274255,0.0284673385,-105.4569168091,57.9889869690,176.5653991699,-0.0099639297,0.0353403687,0.0359466076,37.4572334290,40.4625701904,-88.3838806152,0.0713144541,-0.0116183758,-0.0137189627,
1784.923,-3.1715857983,1.2933670282,-173.9197235107,0.0552864373,0.0396872833,0.0144822598,-95.2368545532,-57.7577857971,43.0532989502,0.0013676286,-0.0190327168,0.0345795676,-105.4745864868,57.8985900879,176.5421905518,-0.0122661591,0.0356075168,0.0310900211,37.4494895935,40.3622360229,-88.3656234741,0.0690045357,-0.0132034421,-0.0083354712,
