Time(sec),Gyr1_X(deg/sec),Gyr1_Y(deg/sec),Gyr1_Z(deg/sec),Acc1_X(m/s^2),Acc1_Y(m/s^2),Acc1_Z(m/s^2),Gyr2_X(deg/sec),Gyr2_Y(deg/sec),Gyr2_Z(deg/sec),Acc2_X(m/s^2),Acc2_Y(m/s^2),Acc2_Z(m/s^2),Gyr_X(deg/sec),Gyr_Y(deg/sec),Gyr_Z(deg/sec),Acc_X(m/s^2),Acc_Y(m/s^2),Acc_Z(m/s^2),Gyr_X(deg/sec),Gyr_Y(deg/sec),Gyr_Z(deg/sec),Acc_X(m/s^2),Acc_Y(m/s^2),Acc_Z(m/s^2),
1616.393,-3.2036709785,1.3120630980,168.5508880615,0.0614720397,0.0382927209,0.0164744258,-113.7726287842,73.3283309937,-71.0616912842,0.0263238549,0.0612611175,0.0159313977,-4.3452711105,82.7444686890,151.3928833008,0.0276373029,0.0204375386,0.0208438635,22.4513206482,55.7737197876,-158.5639343262,0.0797523856,0.0107031465,0.0039054751,
1616.403,-3.2045340538,1.3142470121,168.5507812500,0.0522328019,0.0373311490,0.0071989298,-113.7850952148,73.3241043091,-71.0704803467,0.0219081640,0.0603239536,0.0057632923,-4.3456096649,82.7435226440,151.4001007080,0.0237289667,0.0262989849,0.0301036835,22.4546222687,55.7743835449,-158.5575256348,0.0714581013,0.0057939887,-0.0019328594,
1616.413,-3.2065947056,1.3148375750,168.5519714355,0.0537079498,0.0373670384,0.0052476525,-113.7979431152,73.3175582886,-71.0797119141,0.0311527252,0.0574677587,0.0053780079,-4.3542108536,82.7400360107,151.3983306885,0.0271392465,0.0238810629,0.0349316597,22.4501991272,55.7732162476,-158.5605316162,0.0797474384,0.0014331937,0.0048712492,
1616.423,-3.2064480782,1.3150498867,168.5513153076,0.0590827465,0.0451769754,0.0091544986,-113.8049087524,73.3122711182,-71.0815811157,0.0267316699,0.0594876409,0.0069105327,-4.3752031326,82.7388000488,151.3856658936,0.0276247859,0.0195350349,0.0256350040,22.4499626160,55.7718162537,-158.5584869385,0.0782688260,0.0004510134,0.0024101734,
1616.433,-3.2063653469,1.3142043352,168.5530700684,0.0629742444,0.0427341461,0.0013407469,-113.7966308594,73.3075180054,-71.0689544678,0.0325672626,0.0566473603,0.0152051300,-4.3878426552,82.7410659790,151.3825988770,0.0193290114,0.0205368251,0.0193278193,22.4484939575,55.7707557678,-158.5553283691,0.0743522048,0.0033882856,0.0053203702,
1616.443,-3.2056932449,1.3140850067,168.5536499023,0.0580893531,0.0427224450,0.0018290281,-113.7976150513,73.3077926636,-71.0650024414,0.0320803523,0.0673832297,0.0078836530,-4.3748345375,82.7399063110,151.4031219482,0.0286037922,0.0278335661,0.0280948877,22.4498806000,55.7728462219,-158.5510101318,0.0792555213,0.0019222945,-0.0083186030,
1616.453,-3.2062551975,1.3145498037,168.5548248291,0.0566326156,0.0402908213,0.0159894824,-113.7961044312,73.3051452637,-71.0587158203,0.0320670605,0.0552196503,0.0059413761,-4.3882374763,82.7434921265,151.3992004395,0.0291000009,0.0224875957,0.0110694170,22.4520301819,55.7729187012,-158.5465698242,0.0758382678,0.0062977672,0.0014560223,
1616.463,-3.2047152519,1.3143259287,168.5548400879,0.0561404303,0.0436819606,-0.0001250505,-113.7827606201,73.3053512573,-71.0387954712,0.0335329175,0.0611028373,0.0161325037,-4.3673515320,82.7428741455,151.4276123047,0.0295869112,0.0292778015,0.0242391229,22.4517383575,55.7737388611,-158.5446929932,0.0807291269,0.0009337962,0.0024423599,
1616.473,-3.2068760395,1.3169674873,168.5540771484,0.0547216758,0.0393250100,0.0047605038,-113.7764511108,73.3039245605,-71.0284423828,0.0310843587,0.0591847599,0.0112301707,-4.3685917854,82.7427139282,151.4357299805,0.0271451473,0.0268394202,0.0247239470,22.4543094635,55.7743873596,-158.5400238037,0.0758526921,0.0057969093,-0.0033984184,
1616.483,-3.2048110962,1.3187654018,168.5546264648,0.0537764840,0.0431952439,0.0096426606,-113.7642593384,73.3040618896,-71.0090255737,0.0301085114,0.0562769473,0.0131262243,-4.3564562798,82.7432861328,151.4571228027,0.0281229615,0.0307179242,0.0203368664,22.4571170807,55.7729988098,-158.5338439941,0.0709562302,0.0062519610,0.0039170384,
1616.493,-3.2048096657,1.3175995350,168.5558013916,0.0620569251,0.0402655639,0.0072001815,-113.7538604736,73.3070220947,-70.9899826050,0.0310999155,0.0611356199,0.0125701427,-4.3590002060,82.7442245483,151.4628753662,0.0251953602,0.0219332874,0.0252363682,22.4562454224,55.7735137939,-158.5318756104,0.0777972341,-0.0000848770,0.0005032420,
1616.503,-3.2053301334,1.3182984591,168.5575561523,0.0576745905,0.0427160263,0.0037836432,-113.7519607544,73.3102569580,-70.9802093506,0.0291630030,0.0630438924,0.0105865076,-4.3672919273,82.7446670532,151.4627227783,0.0344736576,0.0253691375,0.0252454281,22.4536724091,55.7726936340,-158.5315093994,0.0787657499,0.0009105504,0.0087836385,
1616.513,-3.2049431801,1.3170748949,168.5588226318,0.0581415221,0.0436858684,0.0120828152,-113.7388000488,73.3143692017,-70.9595947266,0.0306484699,0.0620305538,0.0134280622,-4.3700060844,82.7440338135,151.4699859619,0.0271480680,0.0263525993,0.0262112021,22.4583683014,55.7719116211,-158.5238800049,0.0768049359,0.0116057694,0.0063491464,
1616.523,-3.2052137852,1.3161267042,168.5587921143,0.0610546619,0.0436906070,0.0072005391,-113.7308959961,73.3183212280,-70.9452590942,0.0311565399,0.0619860888,0.0075057894,-4.3689479828,82.7435760498,151.4803161621,0.0251939297,0.0278156102,0.0257161856,22.4572334290,55.7699203491,-158.5206756592,0.0802033544,0.0033043027,0.0097364783,
1616.533,-3.2055425644,1.3166352510,168.5599822998,0.0561807230,0.0412549153,0.0067123175,-113.7177352905,73.3230590820,-70.9246978760,0.0282505751,0.0570576787,0.0118080750,-4.3708996773,82.7446670532,151.4877624512,0.0271494389,0.0268420577,0.0247570276,22.4515571594,55.7679748535,-158.5208892822,0.0718834996,-0.0015376508,0.0057829618,
1616.543,-3.2035214901,1.3158555031,168.5599060059,0.0625147745,0.0431728475,0.0047571659,-113.7039794922,73.3278427124,-70.9052581787,0.0316925049,0.0604309440,0.0112243295,-4.3655672073,82.7481765747,151.5039215088,0.0242275000,0.0229193270,0.0106563568,22.4541912079,55.7707824707,-158.5162811279,0.0743524432,0.0028484166,-0.0029587150,
1616.553,-3.2056059837,1.3191572428,168.5597229004,0.0547598861,0.0373497084,0.0076901913,-113.6960678101,73.3325576782,-70.8919143677,0.0375754833,0.0662336946,0.0062735677,-4.3535113335,82.7459335327,151.5263519287,0.0247108340,0.0326610655,0.0262407064,22.4519329071,55.7733535767,-158.5133209229,0.0704714656,0.0009299368,-0.0004915595,
1616.563,-3.2041976452,1.3194513321,168.5620880127,0.0591595471,0.0451376736,0.0023177266,-113.6824645996,73.3366622925,-70.8726882935,0.0317366719,0.0564328432,0.0100897104,-4.3435635567,82.7447204590,151.5456542969,0.0281261206,0.0272693783,0.0198709965,22.4477424622,55.7726287842,-158.5137939453,0.0773002505,-0.0005008876,0.0102251172,
1616.573,-3.2024493217,1.3190479279,168.5626831055,0.0615939163,0.0485251881,0.0120816827,-113.6827926636,73.3416824341,-70.8689346313,0.0298086405,0.0607502460,0.0076162368,-4.3551764488,82.7451782227,151.5435943604,0.0266622901,0.0204586983,0.0242752433,22.4484329224,55.7718505859,-158.5102233887,0.0724098086,0.0043714345,0.0077762604,
1616.583,-3.2027359009,1.3195725679,168.5626220703,0.0557436943,0.0372997075,0.0023161173,-113.6811676025,73.3455886841,-70.8627014160,0.0317813158,0.0567875504,0.0085592419,-4.3549218178,82.7457427979,151.5514678955,0.0237338543,0.0248519331,0.0184254050,22.4459705353,55.7714385986,-158.5099792480,0.0753354430,0.0034148097,0.0023897290,
1616.593,-3.2018887997,1.3200906515,168.5643463135,0.0606355444,0.0431443118,0.0091521144,-113.6842193604,73.3471450806,-70.8608093262,0.0376484394,0.0587107837,0.0105159432,-4.3459982872,82.7440338135,151.5680389404,0.0276363492,0.0238577425,0.0237654448,22.4408969879,55.7697219849,-158.5108032227,0.0792248249,0.0044281185,0.0028371811,
1616.603,-3.2012929916,1.3212342262,168.5630035400,0.0596789420,0.0426456258,0.0003620386,-113.6906814575,73.3468933105,-70.8616256714,0.0288581252,0.0562608242,0.0066410303,-4.3505854607,82.7440719604,151.5729064941,0.0281246901,0.0233796239,0.0257200599,22.4446086884,55.7730407715,-158.5056152344,0.0738863349,0.0083188415,-0.0073599219,
1616.613,-3.2015733719,1.3209220171,168.5653839111,0.0591852106,0.0392325409,0.0037809610,-113.6964111328,73.3477859497,-70.8610382080,0.0244680643,0.0586757064,0.0154505670,-4.3387646675,82.7429275513,151.5948181152,0.0232393742,0.0243313313,0.0247221589,22.4426155090,55.7763481140,-158.5037994385,0.0714774132,0.0020075887,0.0019550323,
1616.623,-3.2025494576,1.3208819628,168.5646820068,0.0596727952,0.0392495543,0.0008516312,-113.7033309937,73.3475189209,-70.8591003418,0.0244667530,0.0625727177,0.0086480826,-4.3491506577,82.7457733154,151.5933074951,0.0261753201,0.0233742148,0.0184246898,22.4449253082,55.7782096863,-158.4995422363,0.0763784647,0.0054147542,-0.0053364038,
1616.633,-3.2010328770,1.3208104372,168.5652923584,0.0582066998,0.0455707870,0.0101277232,-113.7088165283,73.3441619873,-70.8565750122,0.0254265070,0.0591956079,0.0028364211,-4.3433032036,82.7443923950,151.6071624756,0.0217777491,0.0292222649,0.0315853953,22.4512195587,55.7766685486,-158.4912414551,0.0846641064,0.0092554986,0.0029685497,
1616.643,-3.1988987923,1.3197380304,168.5664672852,0.0640473664,0.0455336384,0.0115900040,-113.7065505981,73.3412780762,-70.8459396362,0.0268769264,0.0602194965,0.0111462027,-4.3647813797,82.7457962036,151.5937194824,0.0242222548,0.0282917917,0.0213575363,22.4550819397,55.7733230591,-158.4842224121,0.0792601705,0.0087135434,0.0048902035,
1616.653,-3.1975135803,1.3181571960,168.5683288574,0.0615783744,0.0450212583,0.0096349120,-113.7045822144,73.3364257813,-70.8375701904,0.0327120423,0.0598112345,0.0111694559,-4.3870096207,82.7415466309,151.5812072754,0.0261660218,0.0273701102,0.0310572386,22.4559631348,55.7702751160,-158.4795837402,0.0802068114,0.0028295517,0.0048541427,
1616.663,-3.1978056431,1.3181861639,168.5694427490,0.0620671585,0.0435615033,0.0047523975,-113.7080917358,73.3305206299,-70.8324356079,0.0297527909,0.0598931313,0.0043894202,-4.3921494484,82.7441177368,151.5850372314,0.0266599655,0.0234722495,0.0203548074,22.4574356079,55.7701072693,-158.4747161865,0.0738575459,0.0033034384,0.0009499192,
1616.673,-3.1978302002,1.3195017576,168.5699310303,0.0576955825,0.0401439257,0.0120772719,-113.7038269043,73.3225326538,-70.8195571899,0.0321542025,0.0590468943,0.0088177845,-4.4054245949,82.7458267212,151.5817565918,0.0261754394,0.0244759470,0.0174595118,22.4583683014,55.7704048157,-158.4704284668,0.0719072819,0.0042732805,0.0033996701,
1616.683,-3.1992695332,1.3200653791,168.5710906982,0.0581936985,0.0416338369,0.0086606741,-113.6907119751,73.3168869019,-70.8016281128,0.0335907340,0.0625771284,0.0146548152,-4.4271106720,82.7460937500,151.5687408447,0.0320354104,0.0259888023,0.0218610168,22.4610824585,55.7649917603,-158.4655456543,0.0865026116,0.0076366812,0.0018722415,
1616.693,-3.1983866692,1.3192068338,168.5716552734,0.0630615354,0.0455247238,0.0086596608,-113.6672363281,73.3127670288,-70.7707977295,0.0277107358,0.0607349277,0.0194569975,-4.4397230148,82.7487411499,151.5636444092,0.0242287517,0.0260133892,0.0214199424,22.4619255066,55.7639656067,-158.4608459473,0.0806331635,-0.0001890659,-0.0005793571,
1616.703,-3.1983852386,1.3205653429,168.5721282959,0.0591789857,0.0425949842,-0.0025702715,-113.6493148804,73.3081588745,-70.7427139282,0.0262227654,0.0623059273,0.0140340552,-4.4590620995,82.7520217896,151.5507659912,0.0222828388,0.0206809491,0.0170850158,22.4579067230,55.7623786926,-158.4602813721,0.0742698908,-0.0011378825,0.0096384287,
1616.713,-3.1969342232,1.3187392950,168.5721282959,0.0620768107,0.0411049016,0.0096346140,-113.6351165771,73.3025207520,-70.7182006836,0.0330304503,0.0619324148,0.0101001263,-4.5042676926,82.7560043335,151.5154876709,0.0188736320,0.0237058699,0.0166721344,22.4655876160,55.7615699768,-158.4503173828,0.0767033696,0.0114832371,-0.0005974174,
1616.723,-3.1983034611,1.3187525272,168.5751190186,0.0581707880,0.0396639109,0.0037765503,-113.6143493652,73.2979965210,-70.6885604858,0.0247069597,0.0615551174,0.0154056400,-4.5167231560,82.7576522827,151.5135650635,0.0262014866,0.0271492898,0.0245151520,22.4676151276,55.7580566406,-158.4443359375,0.0766689181,0.0050978065,0.0105933547,
1616.733,-3.1997432709,1.3162345886,168.5775909424,0.0625213906,0.0416421779,0.0013352633,-113.6094436646,73.2918243408,-70.6730957031,0.0324885249,0.0616591871,0.0095648915,-4.5290293694,82.7589263916,151.5129699707,0.0247394443,0.0276631564,0.0196569562,22.4711322784,55.7550964355,-158.4358978271,0.0722452998,0.0030965507,0.0042204261,
1616.743,-3.2002661228,1.3151398897,168.5787048340,0.0639671311,0.0362802185,0.0076835752,-113.6043319702,73.2807464600,-70.6601333618,0.0324329138,0.0598855019,0.0110799372,-4.5536012650,82.7622604370,151.4990386963,0.0330475569,0.0242953449,0.0197168589,22.4712753296,55.7553215027,-158.4316711426,0.0712709427,-0.0003215671,0.0042231679,
1616.753,-3.2033820152,1.3136017323,168.5792083740,0.0654051378,0.0358462520,0.0076855421,-113.6053848267,73.2692413330,-70.6564712524,0.0372579098,0.0590827465,0.0067672059,-4.5688409805,82.7636184692,151.4956512451,0.0188903809,0.0223741382,0.0221855044,22.4692554474,55.7528915405,-158.4293975830,0.0795478225,0.0045662224,0.0051600337,
1616.763,-3.2048578262,1.3141636848,168.5815124512,0.0605321266,0.0392899141,0.0071991682,-113.6093521118,73.2587432861,-70.6584320068,0.0381817222,0.0563054681,0.0136914551,-4.5656037331,82.7635803223,151.5041961670,0.0286559463,0.0248086303,0.0182741880,22.4602947235,55.7499160767,-158.4333038330,0.0804951787,-0.0002516061,0.0119229555,
1616.773,-3.2054154873,1.3141554594,168.5832672119,0.0624851063,0.0446707308,0.0091528296,-113.6209869385,73.2482986450,-70.6699676514,0.0395940542,0.0564414263,0.0094205141,-4.5632491112,82.7652130127,151.5133666992,0.0311009288,0.0277307481,0.0134209394,22.4566707611,55.7520370483,-158.4359130859,0.0775862932,0.0027226508,0.0011951923,
1616.783,-3.2044405937,1.3147336245,168.5850372314,0.0561475456,0.0392826386,0.0096404552,-113.6236648560,73.2416152954,-70.6747055054,0.0361424685,0.0584906042,0.0182666034,-4.5397644043,82.7639694214,151.5414581299,0.0306099057,0.0247505158,0.0197446346,22.4553241730,55.7551727295,-158.4351654053,0.0756639838,0.0061700642,-0.0016978383,
1616.793,-3.2065620422,1.3146753311,168.5868225098,0.0580996498,0.0393196009,0.0013415813,-113.6435241699,73.2383804321,-70.6945266724,0.0248957276,0.0663129091,0.0100791603,-4.5233006477,82.7623367310,151.5631256104,0.0183992982,0.0261810571,0.0231307745,22.4536685944,55.7554817200,-158.4354858398,0.0829912424,0.0037454516,0.0022064447,
1616.803,-3.2080714703,1.3162791729,168.5872650146,0.0586159155,0.0393458568,0.0057383776,-113.6663436890,73.2368698120,-70.7159805298,0.0278177857,0.0667779446,0.0155659765,-4.5065374374,82.7565155029,151.5860900879,0.0325466394,0.0276164860,0.0327944756,22.4533882141,55.7592239380,-158.4346923828,0.0742389560,0.0032803118,-0.0055570602,
1616.813,-3.2076618671,1.3162808418,168.5884552002,0.0600807890,0.0481277816,0.0062261820,-113.6776885986,73.2346420288,-70.7240295410,0.0248768926,0.0584883690,0.0180748180,-4.5006246567,82.7553710938,151.6001434326,0.0257081985,0.0271165520,0.0239855051,22.4555015564,55.7630119324,-158.4300079346,0.0698816180,0.0076765120,-0.0011042356,
1616.823,-3.2059552670,1.3164868355,168.5890045166,0.0591078177,0.0441917926,0.0023184419,-113.6938934326,73.2332305908,-70.7335662842,0.0258463621,0.0599412024,0.0137646943,-4.5154371262,82.7557525635,151.5942382813,0.0310801268,0.0208013356,0.0195997953,22.4561100006,55.7674942017,-158.4267578125,0.0728552938,0.0052542388,-0.0020188689,
1616.833,-3.2064106464,1.3185739517,168.5912933350,0.0571911111,0.0407817177,0.0028079152,-113.6964035034,73.2321624756,-70.7286224365,0.0273058414,0.0594649017,0.0191545486,-4.5005145073,82.7581100464,151.6178894043,0.0276673436,0.0300423354,0.0123131871,22.4578247070,55.7674751282,-158.4208831787,0.0767613649,0.0042620301,0.0023819208,
1616.843,-3.2074840069,1.3187872171,168.5924682617,0.0571948364,0.0408004150,0.0062270164,-113.6982727051,73.2328567505,-70.7249145508,0.0302389860,0.0579850972,0.0186703652,-4.5075221062,82.7545089722,151.6208953857,0.0296125412,0.0237151086,0.0356901884,22.4604587555,55.7659683228,-158.4152984619,0.0757700205,0.0061829537,-0.0010461807,
1616.853,-3.2078287601,1.3164494038,168.5924377441,0.0659431070,0.0412947461,0.0076912642,-113.6973495483,73.2357406616,-70.7163085938,0.0283004045,0.0623375177,0.0196232945,-4.5014271736,82.7546234131,151.6358947754,0.0227768421,0.0237013698,0.0244610310,22.4599971771,55.7657203674,-158.4116210938,0.0757675767,0.0052092373,0.0009017587,
1616.863,-3.2108616829,1.3164242506,168.5923767090,0.0576418862,0.0384178981,0.0018348098,-113.7037277222,73.2384719849,-70.7129974365,0.0273375511,0.0574005246,0.0123103410,-4.5047760010,82.7524490356,151.6424407959,0.0281431675,0.0256648362,0.0268665552,22.4632358551,55.7654113770,-158.4064788818,0.0801590681,0.0095725954,0.0018857718,
1616.873,-3.2112915516,1.3146032095,168.5929412842,0.0644460469,0.0408668369,0.0125767589,-113.6938400269,73.2411041260,-70.6958847046,0.0327219367,0.0549391508,0.0190827399,-4.5095586777,82.7498855591,151.6470794678,0.0261843801,0.0247023851,0.0243818164,22.4623832703,55.7627716064,-158.4035491943,0.0747620463,0.0051712394,0.0062423944,
1616.883,-3.2144513130,1.3148388863,168.5947265625,0.0551728159,0.0355507806,0.0086737275,-113.6833877563,73.2469406128,-70.6780700684,0.0322629809,0.0646364987,0.0219251886,-4.5003643036,82.7469329834,151.6656188965,0.0208067894,0.0266389996,0.0311659575,22.4639110565,55.7642517090,-158.3983001709,0.0728235245,0.0041890740,-0.0025211573,
1616.893,-3.2139344215,1.3159304857,168.5957946777,0.0605629571,0.0399362855,0.0067205429,-113.6782989502,73.2491226196,-70.6657409668,0.0317857265,0.0572898388,0.0096799880,-4.4977560043,82.7481994629,151.6769561768,0.0276455283,0.0285846144,0.0155621767,22.4658565521,55.7634353638,-158.3951873779,0.0733037591,0.0031903088,0.0077294111,
1616.903,-3.2150008678,1.3148343563,168.5975799561,0.0620086752,0.0428845808,0.0091620684,-113.6721115112,73.2505264282,-70.6525192261,0.0273982286,0.0538616776,0.0111069158,-4.5103421211,82.7494430542,151.6739501953,0.0203240514,0.0203101635,0.0204683542,22.4679985046,55.7649993896,-158.3910064697,0.0752722621,0.0036678165,0.0014106631,
1616.913,-3.2148241997,1.3151490688,168.5980682373,0.0610376075,0.0409283638,0.0072092414,-113.6618652344,73.2521972656,-70.6364212036,0.0327777267,0.0543461144,0.0125131458,-4.5133304596,82.7493591309,151.6803131104,0.0232535601,0.0261763036,0.0248620510,22.4663848877,55.7623062134,-158.3883361816,0.0806168914,0.0031792521,0.0101571083,
1616.923,-3.2177467346,1.3151613474,168.5991516113,0.0620143823,0.0365847498,0.0018410683,-113.6633300781,73.2574081421,-70.6324386597,0.0293859839,0.0654939413,0.0080905482,-4.5362725258,82.7474441528,151.6661987305,0.0286204219,0.0208588690,0.0316689610,22.4657611847,55.7613525391,-158.3857879639,0.0767012835,0.0036680102,0.0037949681,
1616.933,-3.2177209854,1.3169848919,168.6008453369,0.0581399500,0.0424436331,0.0072128773,-113.6493301392,73.2579193115,-70.6137847900,0.0323182344,0.0581900179,0.0153466016,-4.5383210182,82.7466583252,151.6723327637,0.0242241621,0.0237941295,0.0248208642,22.4646625519,55.7616424561,-158.3835296631,0.0732861757,0.0022147596,0.0042828321,
1616.943,-3.2192249298,1.3164986372,168.6007995605,0.0591080263,0.0395401567,-0.0020631552,-113.6542282104,73.2567443848,-70.6127395630,0.0303592086,0.0616160631,-0.0012244955,-4.5328426361,82.7464447021,151.6871643066,0.0266650915,0.0276884437,0.0228635073,22.4694881439,55.7603225708,-158.3758544922,0.0766911507,0.0099760890,0.0008653402,
1616.953,-3.2185487747,1.3176594973,168.6001281738,0.0557103120,0.0448994450,0.0077021718,-113.6442337036,73.2522201538,-70.5994644165,0.0278950334,0.0519397259,0.0114548504,-4.5343947411,82.7464447021,151.6937561035,0.0271533728,0.0262270868,0.0282344818,22.4703712463,55.7617721558,-158.3717498779,0.0767053962,0.0055815428,-0.0039948821,
1616.963,-3.2200224400,1.3188538551,168.5993957520,0.0576842800,0.0395539999,0.0062392950,-113.6441345215,73.2493286133,-70.5949020386,0.0303218961,0.0568671823,0.0017081648,-4.5502524376,82.7463378906,151.6867218018,0.0256882906,0.0223562419,0.0218882561,22.4680919647,55.7631492615,-158.3698883057,0.0762306452,0.0012153238,-0.0039849877,
1616.973,-3.2197744846,1.3171989918,168.6005554199,0.0659561902,0.0454090908,0.0081914663,-113.6449584961,73.2452316284,-70.5923080444,0.0293247104,0.0579045415,0.0066222250,-4.5436334610,82.7440185547,151.6997222900,0.0232417583,0.0242978036,0.0306361914,22.4660606384,55.7623901367,-158.3697967529,0.0801293850,0.0022061467,0.0003917813,
1616.983,-3.2198886871,1.3170119524,168.6011352539,0.0586287007,0.0419931188,0.0106329322,-113.6535034180,73.2430496216,-70.5962142944,0.0327317119,0.0588968992,0.0037465394,-4.5532903671,82.7461471558,151.6982421875,0.0281292796,0.0252930373,0.0165131092,22.4660758972,55.7595024109,-158.3656616211,0.0781479478,0.0070728958,0.0037714243,
1616.993,-3.2195167542,1.3172280788,168.6022338867,0.0635152906,0.0458928831,0.0037968159,-113.6567459106,73.2417297363,-70.5963211060,0.0249125957,0.0603753030,0.0096296966,-4.5456337929,82.7460632324,151.7114868164,0.0251994133,0.0291822404,0.0223715305,22.4707431793,55.7608566284,-158.3595733643,0.0776728988,0.0094793439,-0.0084003210,
1617.003,-3.2202339172,1.3158435822,168.6040802002,0.0586083159,0.0419991575,0.0057500601,-113.6622772217,73.2422790527,-70.5971221924,0.0283333063,0.0671919882,0.0076985583,-4.5457363129,82.7450408936,151.7190093994,0.0232440233,0.0243011415,0.0262588263,22.4682960510,55.7630386353,-158.3596038818,0.0772060752,0.0007245839,0.0013855696,
1617.013,-3.2211213112,1.3161296844,168.6039733887,0.0610547140,0.0415263362,0.0081923604,-113.6515350342,73.2424621582,-70.5832366943,0.0312639475,0.0608631372,0.0252257362,-4.5565395355,82.7482299805,151.7157592773,0.0300869942,0.0248091221,0.0165498853,22.4679718018,55.7622299194,-158.3584289551,0.0713387728,0.0046292394,0.0033259392,
1617.023,-3.2212419510,1.3175034523,168.6051177979,0.0552193075,0.0420166813,0.0042868257,-113.6612777710,73.2409667969,-70.5866470337,0.0283266902,0.0618430972,0.0067261457,-4.5456695557,82.7481460571,151.7361450195,0.0305750966,0.0238084942,0.0263119340,22.4704399109,55.7641296387,-158.3542480469,0.0747753978,0.0055940300,0.0004319549,
1617.033,-3.2203850746,1.3171529770,168.6063232422,0.0591194443,0.0454197302,0.0047741532,-113.6651916504,73.2399444580,-70.5850296021,0.0336926579,0.0603860021,0.0189581439,-4.5368695259,82.7513732910,151.7532958984,0.0261876583,0.0232963115,0.0200170279,22.4709072113,55.7611541748,-158.3507690430,0.0810938478,0.0099677742,0.0052761436,
1617.043,-3.2201182842,1.3181802034,168.6080169678,0.0586490855,0.0390674062,0.0033094883,-113.6716232300,73.2399902344,-70.5853195190,0.0273452401,0.0633011460,0.0116634145,-4.5230712891,82.7509918213,151.7747344971,0.0286282301,0.0242426395,0.0253800154,22.4690017700,55.7599716187,-158.3503112793,0.0786408186,0.0041192174,0.0076947808,
1617.053,-3.2180418968,1.3158544302,168.6092681885,0.0639795959,0.0453789383,0.0072124004,-113.6756896973,73.2405090332,-70.5827713013,0.0293009877,0.0637738705,0.0150965899,-4.5085911751,82.7497482300,151.7974243164,0.0252075195,0.0266535133,0.0185202360,22.4654636383,55.7599143982,-158.3513031006,0.0737574100,0.0056158900,0.0081692338,
1617.063,-3.2188370228,1.3159437180,168.6092224121,0.0571452230,0.0419748239,-0.0010873079,-113.6792449951,73.2409057617,-70.5798187256,0.0273498297,0.0608308911,0.0151105076,-4.5017352104,82.7507247925,151.8131561279,0.0266745090,0.0241955817,0.0253710747,22.4630603790,55.7581367493,-158.3505706787,0.0752048492,0.0041631162,0.0096012950,
1617.073,-3.2170960903,1.3168705702,168.6104278564,0.0547199845,0.0463389941,0.0067238808,-113.6861114502,73.2391815186,-70.5801010132,0.0268528461,0.0574256480,0.0112475753,-4.5208511353,82.7503967285,151.8004455566,0.0261855125,0.0198439062,0.0263471603,22.4619541168,55.7572135925,-158.3505096436,0.0795903206,0.0051445216,0.0115373731,
1617.083,-3.2179279327,1.3180279732,168.6115112305,0.0581581518,0.0395175293,0.0057486296,-113.6797180176,73.2373580933,-70.5684051514,0.0327031016,0.0579543412,0.0185542405,-4.5197467804,82.7514801025,151.8110198975,0.0213050842,0.0261877477,0.0195277929,22.4648532867,55.7587814331,-158.3440856934,0.0737463236,0.0061035454,-0.0045430660,
1617.093,-3.2157993317,1.3180327415,168.6126098633,0.0645058900,0.0433866940,0.0101410747,-113.6934890747,73.2326660156,-70.5767669678,0.0238903761,0.0550680161,-0.0028348044,-4.5235867500,82.7486953735,151.8159027100,0.0305762887,0.0247351527,0.0263177156,22.4652557373,55.7603492737,-158.3412322998,0.0708320141,0.0070849359,0.0008491874,
1617.103,-3.2153115273,1.3174017668,168.6132812500,0.0557058156,0.0463078991,0.0047693253,-113.6989974976,73.2319030762,-70.5775527954,0.0258396864,0.0540923476,0.0098909214,-4.5145440102,82.7461242676,151.8342437744,0.0261760950,0.0286247432,0.0248074532,22.4641246796,55.7617340088,-158.3380126953,0.0723104477,0.0002670288,0.0023294091,
1617.113,-3.2169299126,1.3189123869,168.6137542725,0.0567087345,0.0390118435,0.0028183460,-113.6972885132,73.2351837158,-70.5700149536,0.0326921344,0.0628349781,0.0196266919,-4.5122728348,82.7480697632,151.8460693359,0.0242272615,0.0227576941,0.0180042982,22.4616317749,55.7588729858,-158.3372955322,0.0742354989,0.0085745901,0.0120468140,
1617.123,-3.2161886692,1.3181031942,168.6142578125,0.0649954006,0.0429051965,0.0076997876,-113.6849822998,73.2350997925,-70.5516281128,0.0370862484,0.0555360913,0.0190820843,-4.5328865051,82.7450103760,151.8332214355,0.0242205262,0.0169482976,0.0277217031,22.4558887482,55.7600975037,-158.3394927979,0.0766889453,0.0003328025,0.0047178864,
1617.133,-3.2166080475,1.3178449869,168.6141510010,0.0649908930,0.0453539118,0.0052587986,-113.6941146851,73.2332916260,-70.5556793213,0.0307294726,0.0594522953,0.0059528276,-4.5281744003,82.7467956543,151.8486328125,0.0281307101,0.0242596418,0.0223799348,22.4556179047,55.7616424561,-158.3367919922,0.0781689882,-0.0001446307,0.0008304119,
1617.143,-3.2154431343,1.3151106834,168.6148376465,0.0610369369,0.0443571173,0.0081863403,-113.6785964966,73.2335968018,-70.5348510742,0.0278013349,0.0599666536,0.0166211352,-4.5280747414,82.7463378906,151.8574523926,0.0212937593,0.0271897614,0.0287192464,22.4598674774,55.7638969421,-158.3289947510,0.0747731328,0.0076418221,-0.0040053129,
1617.153,-3.2152028084,1.3145074844,168.6166076660,0.0600498468,0.0389818549,0.0028148293,-113.6701507568,73.2353515625,-70.5214233398,0.0268335938,0.0628867149,0.0180352852,-4.5293903351,82.7476348877,151.8631134033,0.0217849016,0.0262144506,0.0248340964,22.4601020813,55.7636756897,-158.3258209229,0.0757474899,0.0017789751,0.0038041472,
1617.163,-3.2137739658,1.3149405718,168.6178588867,0.0522449054,0.0409100763,0.0096495152,-113.6676864624,73.2349929810,-70.5123977661,0.0336677432,0.0594798028,0.0097253174,-4.5303678513,82.7477722168,151.8697052002,0.0222734809,0.0242632329,0.0219083428,22.4611778259,55.7649993896,-158.3212280273,0.0786902308,0.0037297606,-0.0054504275,
1617.173,-3.2123384476,1.3137674332,168.6202697754,0.0619900599,0.0452796258,-0.0015827417,-113.6706924438,73.2343597412,-70.5097503662,0.0282934308,0.0580182672,0.0092553496,-4.5472888947,82.7458496094,151.8628234863,0.0325231552,0.0218620896,0.0228551030,22.4654541016,55.7658157349,-158.3152770996,0.0767450333,0.0080897808,0.0018994808,
1617.183,-3.2105178833,1.3140945435,168.6206970215,0.0673668608,0.0467127413,0.0057398081,-113.6597976685,73.2334823608,-70.4940719604,0.0302421451,0.0565889776,0.0189763904,-4.5583271980,82.7459640503,151.8594512939,0.0266640186,0.0218864977,0.0169996619,22.4706420898,55.7673645020,-158.3085632324,0.0713891983,0.0100044608,0.0019400716,
1617.193,-3.2087175846,1.3134320974,168.6230468750,0.0668670237,0.0486345217,0.0047610998,-113.6547546387,73.2337875366,-70.4834747314,0.0307319760,0.0605000854,0.0160213038,-4.5460309982,82.7462844849,151.8798828125,0.0261764526,0.0282062888,0.0233515501,22.4750881195,55.7660331726,-158.3020172119,0.0787003040,0.0094684958,0.0004744530,
1617.203,-3.2090680599,1.3124489784,168.6229400635,0.0653850213,0.0413164310,0.0052493811,-113.6491394043,73.2322845459,-70.4751892090,0.0331658125,0.0580939651,0.0116107613,-4.5385322571,82.7456893921,151.8935852051,0.0286165476,0.0291670114,0.0282222033,22.4773616791,55.7668800354,-158.2978973389,0.0723609924,0.0079876631,0.0087950230,
1617.213,-3.2090508938,1.3117156029,168.6240997314,0.0604894124,0.0403395891,0.0057373047,-113.6550292969,73.2352447510,-70.4787750244,0.0326924324,0.0643839538,0.0047824979,-4.5023846626,82.7466888428,151.9371337891,0.0203179717,0.0344562680,0.0228621364,22.4838237762,55.7694320679,-158.2899322510,0.0699446201,0.0089196861,-0.0043303967,
1617.223,-3.2085647583,1.3122156858,168.6264953613,0.0565918908,0.0417959504,0.0111082196,-113.6627883911,73.2371520996,-70.4812469482,0.0312371850,0.0643395782,0.0062703341,-4.4771022797,82.7475814819,151.9712829590,0.0242261887,0.0280512720,0.0248240829,22.4854450226,55.7716598511,-158.2842102051,0.0709430575,0.0094054639,-0.0042948127,
1617.233,-3.2096059322,1.3116282225,168.6289215088,0.0580464825,0.0408375338,0.0047614574,-113.6769790649,73.2384872437,-70.4854431152,0.0278259516,0.0647781491,0.0077918917,-4.4667272568,82.7466278076,151.9898223877,0.0203178525,0.0250995904,0.0282267332,22.4791316986,55.7688140869,-158.2846221924,0.0728682280,0.0016345978,0.0112685561,
1617.243,-3.2106816769,1.3116991520,168.6295623779,0.0556063130,0.0472039357,0.0115984678,-113.6790466309,73.2373886108,-70.4771575928,0.0268438458,0.0560016632,0.0136682242,-4.4761586189,82.7477951050,151.9894256592,0.0237383842,0.0192597508,0.0184810758,22.4728717804,55.7674446106,-158.2880859375,0.0713899732,0.0007073283,0.0068325400,
1617.253,-3.2099678516,1.3130866289,168.6301116943,0.0551422425,0.0427969322,0.0072037578,-113.6863250732,73.2356262207,-70.4771728516,0.0312294960,0.0560144186,0.0098074600,-4.4895381927,82.7472839355,151.9837036133,0.0237372518,0.0207550526,0.0257990360,22.4714469910,55.7666244507,-158.2867126465,0.0796827078,0.0051102638,0.0048630834,
1617.263,-3.2117068768,1.3134149313,168.6318359375,0.0590542182,0.0384326950,0.0062289834,-113.6869659424,73.2345962524,-70.4750900269,0.0351305604,0.0565165877,0.0068876371,-4.4916591644,82.7491531372,151.9886779785,0.0320421457,0.0217338502,0.0189951062,22.4728584290,55.7628822327,-158.2835845947,0.0791577101,0.0109362304,0.0072597861,
1617.273,-3.2119419575,1.3144127131,168.6323547363,0.0566302240,0.0394133329,0.0111125112,-113.6719436646,73.2327728271,-70.4578018188,0.0277971625,0.0565752387,0.0209903270,-4.4908533096,82.7476654053,151.9945068359,0.0276443362,0.0275934190,0.0267821550,22.4770011902,55.7621421814,-158.2775421143,0.0791504383,0.0074765235,0.0033591986,
1617.283,-3.2127704620,1.3123747110,168.6335144043,0.0648954436,0.0374746844,0.0018347502,-113.6724472046,73.2346801758,-70.4565429688,0.0346426964,0.0594748259,0.0121909603,-4.4996175766,82.7454147339,151.9920654297,0.0330104828,0.0237096995,0.0282099843,22.4705009460,55.7620544434,-158.2806701660,0.0757315755,-0.0017422885,0.0087047219,
1617.293,-3.2119436264,1.3115479946,168.6353912354,0.0565802380,0.0452728011,0.0032987595,-113.6716842651,73.2325668335,-70.4507980347,0.0341438055,0.0556018949,0.0107367933,-4.4894037247,82.7451248169,152.0117340088,0.0232442021,0.0256404877,0.0218554139,22.4722919464,55.7622604370,-158.2766418457,0.0728039145,0.0060551167,0.0009018779,
1617.303,-3.2132287025,1.3125215769,168.6365203857,0.0565972254,0.0379709378,0.0037886500,-113.6590347290,73.2340927124,-70.4335784912,0.0268272758,0.0585339069,0.0233633369,-4.4806699753,82.7435226440,152.0286102295,0.0305649042,0.0261113346,0.0267113447,22.4714717865,55.7607307434,-158.2763671875,0.0806013942,0.0060541332,0.0028315783,
1617.313,-3.2140443325,1.3108484745,168.6377716064,0.0594977215,0.0438445657,0.0057418942,-113.6637420654,73.2339096069,-70.4313278198,0.0258497596,0.0609692335,0.0092261359,-4.4657697678,82.7419052124,152.0535278320,0.0256785154,0.0275452435,0.0242384076,22.4734706879,55.7604255676,-158.2722930908,0.0742507577,0.0114054382,0.0018585324,
1617.323,-3.2162423134,1.3093904257,168.6389617920,0.0609371215,0.0390000716,0.0072084069,-113.6653671265,73.2303161621,-70.4286346436,0.0307145119,0.0556491017,0.0097459480,-4.4705171585,82.7453613281,152.0582733154,0.0295923948,0.0241332352,0.0076966286,22.4779949188,55.7588348389,-158.2658843994,0.0761882663,0.0079376101,0.0033190846,
1617.333,-3.2160351276,1.3086230755,168.6401672363,0.0604354516,0.0453441367,0.0008599162,-113.6720123291,73.2281723022,-70.4290695190,0.0263091922,0.0581104159,0.0083261132,-4.4748744965,82.7473144531,152.0620574951,0.0266669989,0.0275583565,0.0174954534,22.4800529480,55.7561492920,-158.2597198486,0.0839743614,0.0069274604,0.0071971416,
1617.343,-3.2148628235,1.3082607985,168.6413269043,0.0614056922,0.0443471670,0.0076951981,-113.6702423096,73.2254257202,-70.4200668335,0.0277601480,0.0571790338,0.0078482181,-4.4617552757,82.7495269775,152.0857696533,0.0271601677,0.0280144364,0.0189967155,22.4768714905,55.7548332214,-158.2577972412,0.0732192993,0.0040194690,0.0081443191,
1617.353,-3.2153377533,1.3100266457,168.6424407959,0.0560654141,0.0428905562,0.0067192912,-113.6644821167,73.2238006592,-70.4075546265,0.0311699510,0.0557506680,0.0151566416,-4.4583888054,82.7536697388,152.0992431641,0.0213099122,0.0240952075,0.0195547938,22.4770545959,55.7542953491,-158.2522583008,0.0693077445,0.0040148497,0.0022784472,
1617.363,-3.2155299187,1.3091028929,168.6435852051,0.0633735135,0.0438704826,0.0076959729,-113.6673431396,73.2227478027,-70.4021987915,0.0306763649,0.0582023859,0.0093175694,-4.4373941422,82.7544021606,152.1301574707,0.0213115215,0.0308834612,0.0210290551,22.4774322510,55.7536468506,-158.2471466064,0.0717427731,0.0049844235,-0.0035880804,
1617.373,-3.2148323059,1.3101559877,168.6434326172,0.0624153242,0.0428817496,0.0018362999,-113.6670532227,73.2250366211,-70.3966369629,0.0297113061,0.0620743036,0.0097891688,-4.4466609955,82.7566528320,152.1274566650,0.0276641250,0.0226005465,0.0166702867,22.4756431580,55.7546577454,-158.2465057373,0.0712644458,0.0006117523,-0.0006514788,
1617.383,-3.2176482677,1.3092156649,168.6452484131,0.0594692305,0.0409776978,0.0135570168,-113.6481933594,73.2273178101,-70.3748703003,0.0282579660,0.0552416146,0.0223818347,-4.4587249756,82.7559738159,152.1222534180,0.0237563848,0.0231163353,0.0215473771,22.4810829163,55.7555732727,-158.2413177490,0.0727382302,0.0098446161,-0.0025727153,
1617.393,-3.2190389633,1.3094317913,168.6451568604,0.0589847192,0.0419784822,0.0033048391,-113.6369628906,73.2288970947,-70.3641357422,0.0311956406,0.0518222749,0.0115771517,-4.4617891312,82.7566528320,152.1238403320,0.0222930312,0.0221456587,0.0200947523,22.4790821075,55.7552261353,-158.2415008545,0.0712699890,0.0059546828,0.0052280426,
1617.403,-3.2200193405,1.3111182451,168.6468811035,0.0565727428,0.0410189629,0.0101423264,-113.6322784424,73.2332305908,-70.3591766357,0.0297526121,0.0644612312,0.0120146871,-4.4595232010,82.7541275024,152.1323089600,0.0271703005,0.0284916312,0.0283522010,22.4771137238,55.7578163147,-158.2396850586,0.0786196589,0.0059868693,0.0023255944,
1617.413,-3.2192409039,1.3112164736,168.6474761963,0.0551096089,0.0410053991,-0.0010888577,-113.6216735840,73.2385635376,-70.3480529785,0.0302677155,0.0673309863,0.0212073326,-4.4639377594,82.7529678345,152.1336669922,0.0266794562,0.0236201882,0.0214969516,22.4785537720,55.7589149475,-158.2353668213,0.0757007599,0.0069563687,0.0028337240,
1617.423,-3.2202818394,1.3121610880,168.6486206055,0.0546378121,0.0366289839,0.0062367916,-113.6147994995,73.2407150269,-70.3382415771,0.0283254385,0.0682872534,0.0133487135,-4.4625945091,82.7539901733,152.1425170898,0.0232637525,0.0275220275,0.0146793127,22.4792175293,55.7590408325,-158.2327728271,0.0800965428,0.0059745610,-0.0000914931,
1617.433,-3.2211813927,1.3118475676,168.6480102539,0.0565854684,0.0415274687,0.0077025294,-113.6182022095,73.2401123047,-70.3376922607,0.0288106799,0.0648739338,0.0094620734,-4.4635000229,82.7526168823,152.1498565674,0.0242372751,0.0241080225,0.0273493528,22.4825172424,55.7594375610,-158.2270507813,0.0727761984,0.0118061006,0.0038323402,
1617.443,-3.2218444347,1.3112525940,168.6497039795,0.0643875897,0.0400741957,0.0052615404,-113.6218948364,73.2394485474,-70.3340530396,0.0278307796,0.0638987422,0.0143664181,-4.4784655571,82.7540512085,152.1436767578,0.0237521529,0.0231627971,0.0190764666,22.4852008820,55.7598838806,-158.2212371826,0.0727805495,0.0069012940,-0.0064062476,
1617.453,-3.2198977470,1.3088314533,168.6526947021,0.0692281500,0.0468762666,0.0130711198,-113.6317214966,73.2370834351,-70.3349761963,0.0361196399,0.0619620979,0.0066153109,-4.4834861755,82.7538299561,152.1493682861,0.0271696448,0.0236625671,0.0268853307,22.4837188721,55.7578887939,-158.2182006836,0.0795969367,0.0078804493,0.0052813888,
1617.463,-3.2210874557,1.3087807894,168.6539154053,0.0560436733,0.0425024629,0.0081894398,-113.6497879028,73.2340850830,-70.3436660767,0.0273154974,0.0570879579,0.0018361509,-4.4884233475,82.7567901611,152.1545410156,0.0266878605,0.0222046822,0.0201017857,22.4849128723,55.7570152283,-158.2137298584,0.0742172599,0.0059115589,0.0062497854,
1617.473,-3.2203233242,1.3077448606,168.6550445557,0.0657912269,0.0429774597,0.0047699809,-113.6537780762,73.2313079834,-70.3385009766,0.0307195187,0.0590759218,0.0131035447,-4.4995379448,82.7588195801,152.1536560059,0.0247392058,0.0192969739,0.0172086954,22.4869041443,55.7561759949,-158.2088775635,0.0746973157,0.0088186562,0.0052704811,
1617.483,-3.2219398022,1.3082817793,168.6555175781,0.0599412173,0.0390993580,-0.0015756488,-113.6700134277,73.2336807251,-70.3480148315,0.0321962833,0.0585179329,0.0048622042,-4.4870123863,82.7623367310,152.1764068604,0.0276766419,0.0236590207,0.0148242712,22.4861125946,55.7553024292,-158.2068634033,0.0785949826,0.0019850433,0.0052551627,
1617.493,-3.2221248150,1.3080482483,168.6560363770,0.0628668293,0.0439854003,0.0047720671,-113.6762924194,73.2341461182,-70.3467254639,0.0234095454,0.0565455854,0.0068411455,-4.4998598099,82.7635803223,152.1730346680,0.0257262588,0.0222210139,0.0216840506,22.4865016937,55.7579803467,-158.2027740479,0.0742267370,-0.0004451275,-0.0020314455,
1617.503,-3.2222604752,1.3101487160,168.6577606201,0.0550909787,0.0439877212,0.0091677308,-113.6760101318,73.2345809937,-70.3394851685,0.0341539383,0.0545859635,0.0092784762,-4.4919667244,82.7625885010,152.1872558594,0.0262123346,0.0251344889,0.0255724192,22.4859237671,55.7600021362,-158.2011260986,0.0703403354,0.0015243888,0.0053175688,
1617.513,-3.2207939625,1.3098772764,168.6589202881,0.0609456189,0.0454270169,0.0037950277,-113.6731872559,73.2346496582,-70.3322372437,0.0287832022,0.0541030765,0.0102414042,-4.5057520866,82.7638549805,152.1818389893,0.0252385736,0.0212572664,0.0177820325,22.4852924347,55.7599182129,-158.2003021240,0.0791286230,0.0005531013,0.0028725863,
1617.523,-3.2205419540,1.3084315062,168.6595458984,0.0609203950,0.0454226658,0.0111184120,-113.6723403931,73.2361373901,-70.3271102905,0.0263493061,0.0570110083,0.0121806115,-4.5010437965,82.7628250122,152.1938934326,0.0242597461,0.0305254459,0.0236244798,22.4843120575,55.7600975037,-158.2001190186,0.0815717578,0.0030044019,0.0058010221,
1617.533,-3.2203156948,1.3095958233,168.6593780518,0.0599641427,0.0390710384,0.0037944317,-113.6765060425,73.2376022339,-70.3267288208,0.0312394500,0.0618631840,0.0082839280,-4.5096793175,82.7642364502,152.1921386719,0.0262159705,0.0271247774,0.0212084055,22.4824161530,55.7601165771,-158.1996459961,0.0776656866,0.0025334209,0.0038409829,
1617.543,-3.2210528851,1.3098831177,168.6599121094,0.0589925945,0.0420135632,0.0072133541,-113.6787414551,73.2417984009,-70.3254089355,0.0278425813,0.0671659708,0.0082663149,-4.5009593964,82.7610321045,152.2090301514,0.0301151872,0.0256448388,0.0240823627,22.4773273468,55.7594261169,-158.2010498047,0.0713112354,0.0064820051,0.0101602674,
1617.553,-3.2211599350,1.3096870184,168.6617431641,0.0565477684,0.0420154259,0.0042833090,-113.6863555908,73.2429885864,-70.3268356323,0.0263837576,0.0607843995,0.0014574975,-4.4963936806,82.7594909668,152.2211456299,0.0276703835,0.0261250883,0.0294255018,22.4804592133,55.7612991333,-158.1949768066,0.0703530908,0.0059756935,-0.0029866099,
1617.563,-3.2199473381,1.3093887568,168.6617279053,0.0565425605,0.0424825884,0.0042822361,-113.6784744263,73.2420654297,-70.3150405884,0.0297970772,0.0578850508,0.0131459385,-4.5187749863,82.7600631714,152.2076110840,0.0237653852,0.0217795521,0.0177200437,22.4820175171,55.7626304626,-158.1918792725,0.0757372379,0.0015743077,0.0004550219,
1617.573,-3.2191123962,1.3115301132,168.6628723145,0.0551150814,0.0473508053,0.0184424520,-113.6696014404,73.2404403687,-70.3022918701,0.0302771926,0.0554863214,0.0131157935,-4.5260653496,82.7599868774,152.2073211670,0.0227886438,0.0232606530,0.0245566368,22.4804096222,55.7631034851,-158.1924896240,0.0723239183,0.0035446882,0.0068029165,
1617.583,-3.2195670605,1.3145974874,168.6651916504,0.0517506376,0.0385695994,0.0067254901,-113.6643371582,73.2400970459,-70.2924499512,0.0278340578,0.0642912686,0.0140703768,-4.5188403130,82.7584152222,152.2209014893,0.0262031555,0.0247115195,0.0274589062,22.4822006226,55.7637939453,-158.1897888184,0.0811197758,0.0074384809,-0.0029467940,
1617.593,-3.2207903862,1.3149319887,168.6639099121,0.0561510064,0.0405440293,0.0018439293,-113.6558914185,73.2402648926,-70.2803573608,0.0332059860,0.0599110723,0.0174479932,-4.5253772736,82.7591705322,152.2221527100,0.0276696682,0.0198423117,0.0172176361,22.4825954437,55.7622108459,-158.1869049072,0.0713385940,0.0069378614,0.0097290277,
1617.603,-3.2227802277,1.3147231340,168.6650695801,0.0585887656,0.0376490094,0.0037989020,-113.6490173340,73.2386016846,-70.2702941895,0.0317327380,0.0609269738,0.0149860159,-4.5229830742,82.7555923462,152.2333068848,0.0271735191,0.0252128839,0.0298518538,22.4835929871,55.7635536194,-158.1837310791,0.0762345791,0.0040065050,-0.0024566054,
1617.613,-3.2240550518,1.3119803667,168.6656646729,0.0653768480,0.0401126891,0.0086818337,-113.6606903076,73.2350158691,-70.2771530151,0.0263436437,0.0604701638,0.0004153848,-4.5185866356,82.7559738159,152.2459716797,0.0242446661,0.0227610767,0.0230233669,22.4853992462,55.7660369873,-158.1794281006,0.0713761449,0.0035155565,-0.0019283891,
1617.623,-3.2226154804,1.3112859726,168.6668701172,0.0604819171,0.0474118441,0.0091683865,-113.6566925049,73.2330398560,-70.2693328857,0.0282868147,0.0580666661,0.0121290758,-4.5322327614,82.7568893433,152.2418365479,0.0222935677,0.0218136758,0.0235287547,22.4854297638,55.7641372681,-158.1755676270,0.0767285824,0.0030165017,0.0087886453,
1617.633,-3.2237637043,1.3101884127,168.6668548584,0.0594862029,0.0405959338,0.0086809397,-113.6570968628,73.2329025269,-70.2628173828,0.0292626619,0.0644159317,0.0135965943,-4.5255880356,82.7562179565,152.2585754395,0.0242452025,0.0242412239,0.0249807835,22.4866619110,55.7626647949,-158.1701812744,0.0752493143,0.0083683133,0.0043790936,
1617.643,-3.2244577408,1.3112666607,168.6678924561,0.0629229844,0.0420728400,0.0111234784,-113.6541213989,73.2310333252,-70.2531356812,0.0287649632,0.0556609631,0.0140838027,-4.5325856209,82.7590332031,152.2609252930,0.0262045264,0.0271826535,0.0123348832,22.4836044312,55.7621994019,-158.1701507568,0.0703619123,0.0044872165,0.0111973286,
1617.653,-3.2227077484,1.3114748001,168.6708831787,0.0599969327,0.0439954810,0.0140514374,-113.6609573364,73.2258300781,-70.2545166016,0.0331333280,0.0547501147,0.0082907081,-4.5282363892,82.7578353882,152.2740631104,0.0257136226,0.0266863555,0.0264732838,22.4789295197,55.7627639771,-158.1700134277,0.0723205805,0.0001382232,0.0082576275,
1617.663,-3.2215285301,1.3119454384,168.6726226807,0.0585402995,0.0400686748,0.0057497025,-113.6585998535,73.2290573120,-70.2443695068,0.0248487592,0.0620300174,0.0190003887,-4.5249600410,82.7592239380,152.2849731445,0.0291346312,0.0242358148,0.0191718936,22.4780158997,55.7622222900,-158.1672210693,0.0732918382,-0.0003447235,0.0018993616,
1617.673,-3.2208087444,1.3110749722,168.6725769043,0.0604782403,0.0429858416,-0.0010871887,-113.6732711792,73.2282638550,-70.2528381348,0.0302158594,0.0644538999,-0.0009458289,-4.5015525818,82.7604980469,152.3181762695,0.0291374326,0.0339476764,0.0201668739,22.4741554260,55.7650337219,-158.1681823730,0.0791788101,-0.0027356446,-0.0063790083,
1617.683,-3.2216923237,1.3110891581,168.6736145020,0.0663378611,0.0415363871,0.0033078194,-113.6905059814,73.2262191772,-70.2641983032,0.0282524824,0.0571257472,-0.0013407469,-4.4878826141,82.7592773438,152.3406982422,0.0232753754,0.0265948176,0.0211185813,22.4760551453,55.7673034668,-158.1623229980,0.0748065710,0.0036074072,-0.0024343729,
1617.693,-3.2220356464,1.3103249073,168.6747131348,0.0648596734,0.0391009822,0.0052613020,-113.6898422241,73.2290267944,-70.2590255737,0.0346142650,0.0648967326,0.0127976388,-4.4810581207,82.7589492798,152.3549957275,0.0218098164,0.0275565237,0.0279497504,22.4762382507,55.7658958435,-158.1574401855,0.0777224302,0.0065274984,0.0004761815,
1617.703,-3.2218706608,1.3108677864,168.6752624512,0.0555918068,0.0410512201,-0.0040159225,-113.6873931885,73.2300109863,-70.2533721924,0.0268067122,0.0551214218,0.0098498613,-4.4778709412,82.7609329224,152.3669433594,0.0218141675,0.0270584971,0.0182175636,22.4772949219,55.7636375427,-158.1538085938,0.0781885386,0.0099235475,0.0067986250,
1617.713,-3.2223181725,1.3121851683,168.6763916016,0.0575679205,0.0430121087,0.0047740340,-113.6849670410,73.2324981689,-70.2464141846,0.0336551666,0.0609475076,0.0117751658,-4.4689917564,82.7574081421,152.3815765381,0.0291306376,0.0246021301,0.0318267941,22.4788398743,55.7673416138,-158.1484375000,0.0743186474,0.0055353045,-0.0068191290,
1617.723,-3.2218225002,1.3131134510,168.6781768799,0.0546544269,0.0420268923,0.0008677244,-113.6891860962,73.2331008911,-70.2460708618,0.0258457065,0.0580002069,0.0064196140,-4.4651784897,82.7587585449,152.3929748535,0.0276687741,0.0265449136,0.0172016621,22.4751300812,55.7702560425,-158.1477966309,0.0763003826,-0.0012508035,-0.0038635731,
1617.733,-3.2209172249,1.3121312857,168.6793212891,0.0634263605,0.0434759930,0.0037957430,-113.6853332520,73.2343368530,-70.2369384766,0.0282933116,0.0570126474,0.0093231797,-4.4742031097,82.7552719116,152.3904113770,0.0266845226,0.0192454010,0.0313040018,22.4723415375,55.7690849304,-158.1466827393,0.0797069073,0.0051156580,0.0039221644,
1617.743,-3.2218327522,1.3109859228,168.6811218262,0.0619415268,0.0434919670,0.0028202534,-113.6868362427,73.2320022583,-70.2342605591,0.0248636007,0.0541146398,0.0108106881,-4.4605822563,82.7578353882,152.4128417969,0.0262019038,0.0275125057,0.0181614161,22.4703006744,55.7655830383,-158.1460571289,0.0767427683,0.0085329711,0.0126578808,
1617.753,-3.2217528820,1.3086001873,168.6811218262,0.0638530254,0.0449554659,0.0047717094,-113.6857223511,73.2316818237,-70.2272872925,0.0307213664,0.0638881922,0.0117841661,-4.4512972832,82.7576293945,152.4297027588,0.0232717395,0.0265155882,0.0235273838,22.4718532562,55.7650451660,-158.1422576904,0.0738078356,0.0065626502,0.0033780336,
1617.763,-3.2215409279,1.3076183796,168.6823730469,0.0569999516,0.0410455540,0.0033066273,-113.6930236816,73.2288360596,-70.2278671265,0.0282656550,0.0565924644,0.0010947958,-4.4539947510,82.7572174072,152.4351806641,0.0315716267,0.0255455673,0.0225441456,22.4704837799,55.7653007507,-158.1419067383,0.0762517452,0.0046234727,-0.0010172129,
1617.773,-3.2199234962,1.3069950342,168.6835479736,0.0623601712,0.0459002033,0.0086758137,-113.6870040894,73.2270584106,-70.2155532837,0.0253270268,0.0624910593,0.0162155032,-4.4686870575,82.7573547363,152.4286956787,0.0257125497,0.0226483941,0.0254781246,22.4691905975,55.7644767761,-158.1401214600,0.0742905140,0.0002360046,0.0058019161,
1617.783,-3.2197759151,1.3044892550,168.6847839355,0.0623164475,0.0429679975,0.0033037066,-113.6891098022,73.2284469604,-70.2111434937,0.0277754068,0.0634423494,0.0093800277,-4.4457426071,82.7578201294,152.4579162598,0.0271784067,0.0299210101,0.0210874677,22.4659461975,55.7618827820,-158.1378936768,0.0781713128,0.0026927143,0.0091742277,
1617.793,-3.2221124172,1.3005958796,168.6878662109,0.0656664819,0.0361728445,0.0101399422,-113.6881790161,73.2265777588,-70.2047424316,0.0341136456,0.0581016541,0.0137827396,-4.4294061661,82.7591705322,152.4817657471,0.0276696682,0.0298828632,0.0176902413,22.4660854340,55.7625885010,-158.1350097656,0.0776899457,0.0066014230,0.0043000579,
1617.803,-3.2210071087,1.3002933264,168.6878051758,0.0607783943,0.0464075096,0.0028147697,-113.6880950928,73.2268753052,-70.1995620728,0.0292323232,0.0600504875,0.0108507723,-4.4359683990,82.7597122192,152.4839935303,0.0213232040,0.0245256424,0.0186772943,22.4677734375,55.7646942139,-158.1298217773,0.0723395348,0.0031798929,0.0004293919,
1617.813,-3.2228784561,1.2995886803,168.6889495850,0.0627192184,0.0400924645,0.0106289983,-113.6842193604,73.2241516113,-70.1903839111,0.0336131454,0.0605877638,0.0108511001,-4.4414572716,82.7590332031,152.4873809814,0.0242514014,0.0225856751,0.0289196372,22.4672222137,55.7639579773,-158.1272430420,0.0777034163,0.0031808019,0.0023699999,
1617.823,-3.2229113579,1.2989732027,168.6913146973,0.0602670759,0.0400930569,0.0042810440,-113.6862335205,73.2226257324,-70.1885986328,0.0345820189,0.0547481775,0.0079408735,-4.4454102516,82.7584609985,152.4924011230,0.0222970247,0.0191771388,0.0220763683,22.4675064087,55.7663993835,-158.1235046387,0.0738211274,0.0041682422,-0.0029671788,
1617.833,-3.2221210003,1.3001062870,168.6930389404,0.0583337173,0.0430089459,0.0047690868,-113.6829452515,73.2254943848,-70.1808090210,0.0341081619,0.0639878511,0.0215783566,-4.4554433823,82.7606048584,152.4906768799,0.0257197022,0.0231029391,0.0211364627,22.4636039734,55.7654380798,-158.1231689453,0.0796710253,0.0032217950,0.0062825680,
1617.843,-3.2225067616,1.2982809544,168.6942443848,0.0622081198,0.0410625786,0.0067214966,-113.6917114258,73.2300567627,-70.1829376221,0.0346194506,0.0648770928,0.0127993152,-4.4507889748,82.7581634521,152.5040588379,0.0242494941,0.0265138149,0.0245119333,22.4631347656,55.7645759583,-158.1209564209,0.0786860585,0.0046861768,-0.0000780821,
1617.853,-3.2220673561,1.2956031561,168.6948547363,0.0650910884,0.0439846776,0.0072090030,-113.6874160767,73.2298583984,-70.1738967896,0.0268059373,0.0604948997,0.0176635534,-4.4575376511,82.7563476563,152.5029907227,0.0237572193,0.0245780200,0.0259482861,22.4625587463,55.7650375366,-158.1195373535,0.0762491822,0.0042056292,-0.0000747442,
1617.863,-3.2218933105,1.2974416018,168.6959838867,0.0558458194,0.0430050381,0.0076969266,-113.6878128052,73.2293472290,-70.1684265137,0.0292447805,0.0575715601,0.0079032481,-4.4575338364,82.7546997070,152.5106658936,0.0227770209,0.0221388042,0.0303145051,22.4633293152,55.7663764954,-158.1159362793,0.0787037015,0.0066474676,0.0028766394,
1617.873,-3.2207951546,1.2949802876,168.6966094971,0.0621505305,0.0420093983,0.0062308311,-113.6851348877,73.2315521240,-70.1625442505,0.0316972733,0.0599849522,0.0122705922,-4.4504714012,82.7512588501,152.5278930664,0.0252108574,0.0216393620,0.0278134942,22.4611244202,55.7641601563,-158.1148071289,0.0733108521,0.0012840629,0.0047909021,
1617.883,-3.2218785286,1.2956463099,168.6971130371,0.0577676147,0.0386102907,0.0101379752,-113.6821517944,73.2322311401,-70.1549148560,0.0287710428,0.0580278635,0.0093224943,-4.4537053108,82.7528305054,152.5322418213,0.0310736895,0.0255507529,0.0180746913,22.4576053619,55.7629051208,-158.1159210205,0.0737867951,0.0022857189,0.0076911449,
1617.893,-3.2218630314,1.2950503826,168.6989288330,0.0577572212,0.0425162837,-0.0010925531,-113.6781005859,73.2322463989,-70.1465225220,0.0317007899,0.0585237145,0.0136983246,-4.4680237770,82.7527542114,152.5257568359,0.0257024169,0.0163053274,0.0175881982,22.4570865631,55.7633514404,-158.1149291992,0.0796505809,0.0022928864,-0.0020704269,
1617.903,-3.2221338749,1.2966933250,168.7000427246,0.0563210435,0.0415444076,0.0013496876,-113.6709365845,73.2323837280,-70.1332473755,0.0292600393,0.0604894161,0.0180587620,-4.4630980492,82.7546691895,152.5383453369,0.0281480551,0.0250809491,0.0156657696,22.4583911896,55.7636184692,-158.1107330322,0.0752586722,0.0032590777,0.0037975311,
1617.913,-3.2190675735,1.2964450121,168.7006072998,0.0611995235,0.0488152131,0.0159950256,-113.6672286987,73.2318496704,-70.1247482300,0.0312104821,0.0565987229,0.0151154175,-4.4771342278,82.7564010620,152.5326385498,0.0237573385,0.0192503929,0.0200935602,22.4569568634,55.7632446289,-158.1082305908,0.0816026926,0.0061997771,0.0032989979,
1617.923,-3.2201082706,1.2972731590,168.7035217285,0.0617022514,0.0429739468,0.0028129220,-113.6585159302,73.2342147827,-70.1112899780,0.0302458405,0.0634161830,0.0214069039,-4.4786710739,82.7574386597,152.5417022705,0.0257127285,0.0275533199,0.0210863352,22.4593315125,55.7618751526,-158.1024169922,0.0786595345,0.0081237555,0.0013357997,
1617.933,-3.2208156586,1.2961034775,168.7039947510,0.0660763755,0.0400566086,0.0033013225,-113.6603469849,73.2349395752,-70.1061935425,0.0317143202,0.0619368553,0.0116448700,-4.4847083092,82.7546691895,152.5450592041,0.0247300863,0.0241524428,0.0293413401,22.4588489532,55.7647361755,-158.0976562500,0.0752696395,0.0052142441,-0.0039979815,
1617.943,-3.2188565731,1.2953182459,168.7052307129,0.0587384552,0.0449053086,0.0115998983,-113.6557769775,73.2330780029,-70.0974655151,0.0365877748,0.0536732078,0.0140777528,-4.4846858978,82.7525329590,152.5538482666,0.0217956901,0.0246434510,0.0234469175,22.4588737488,55.7660331726,-158.0932159424,0.0801651478,0.0032679141,-0.0010521412,
1617.953,-3.2174522877,1.2959281206,168.7058258057,0.0558194108,0.0473222360,0.0101340413,-113.6449050903,73.2315826416,-70.0825424194,0.0336505771,0.0556716323,0.0198965445,-4.4834232330,82.7534561157,152.5620727539,0.0286336541,0.0270809382,0.0210189819,22.4567584991,55.7659072876,-158.0912017822,0.0713748932,0.0052396953,0.0047985911,
1617.963,-3.2182531357,1.2965563536,168.7062988281,0.0602249056,0.0395236723,0.0150175095,-113.6525421143,73.2325592041,-70.0850677490,0.0282843709,0.0610116422,0.0067420378,-4.4933619499,82.7545928955,152.5604858398,0.0257064700,0.0188006163,0.0176240802,22.4629402161,55.7661857605,-158.0829772949,0.0801666975,0.0100678504,-0.0029876232,
1617.973,-3.2192878723,1.2966631651,168.7055816650,0.0616916120,0.0410065427,0.0116007924,-113.6558990479,73.2331008911,-70.0822982788,0.0297519565,0.0575793386,0.0111482814,-4.4889006615,82.7512588501,152.5724945068,0.0276522636,0.0256311297,0.0312377810,22.4598388672,55.7668418884,-158.0819091797,0.0728489161,0.0017988384,0.0092170238,
1617.983,-3.2195863724,1.2968157530,168.7067260742,0.0592528656,0.0415000245,-0.0020706058,-113.6566390991,73.2350387573,-70.0786285400,0.0326914191,0.0624307394,0.0121154934,-4.4986772537,82.7511520386,152.5709533691,0.0213043690,0.0227233022,0.0248904824,22.4629535675,55.7671318054,-158.0771179199,0.0757814646,0.0090963244,-0.0019986033,
1617.993,-3.2181668282,1.2967435122,168.7078552246,0.0626695752,0.0473346636,0.0111115575,-113.6525268555,73.2346496582,-70.0700836182,0.0297597647,0.0565859973,0.0194232017,-4.4896049500,82.7493438721,152.5875091553,0.0247183442,0.0280766487,0.0287640691,22.4624290466,55.7654380798,-158.0744781494,0.0777179003,0.0046973526,0.0057904124,
1618.003,-3.2184636593,1.2962738276,168.7089691162,0.0636379421,0.0414804704,0.0003694892,-113.6466064453,73.2334899902,-70.0604858398,0.0336601734,0.0590564609,0.0154973269,-4.4807047844,82.7501525879,152.6038970947,0.0315560699,0.0285440236,0.0229172707,22.4591388702,55.7635116577,-158.0743103027,0.0752575994,0.0008102506,0.0081926584,
1618.013,-3.2189192772,1.2987159491,168.7106475830,0.0558680594,0.0429532006,0.0037884712,-113.6386337280,73.2361221313,-70.0476531982,0.0283023119,0.0619623065,0.0188608021,-4.4552955627,82.7490158081,152.6368408203,0.0315535665,0.0289773047,0.0238696933,22.4575653076,55.7639656067,-158.0725860596,0.0816097260,0.0057099313,0.0033109784,
1618.023,-3.2205989361,1.2974282503,168.7124176025,0.0626815259,0.0385879613,0.0091609955,-113.6448440552,73.2356491089,-70.0488967896,0.0336710215,0.0590277314,0.0086387470,-4.4604821205,82.7485809326,152.6410522461,0.0261815190,0.0250831693,0.0233749151,22.4576206207,55.7657241821,-158.0691223145,0.0689316988,0.0037659109,0.0057751536,
1618.033,-3.2200217247,1.2989042997,168.7129516602,0.0548947789,0.0444372445,0.0091610551,-113.6456909180,73.2372817993,-70.0452041626,0.0297729969,0.0546059608,0.0071669370,-4.4686856270,82.7478561401,152.6410980225,0.0261799097,0.0231493562,0.0223860741,22.4576931000,55.7656021118,-158.0660095215,0.0743016005,0.0042529106,0.0018680096,
1618.043,-3.2207410336,1.2997245789,168.7128753662,0.0568622164,0.0400552228,0.0028144121,-113.6423645020,73.2415237427,-70.0363311768,0.0278412104,0.0662674010,0.0173771530,-4.4831728935,82.7481460571,152.6353149414,0.0252040029,0.0251342207,0.0204421282,22.4657821655,55.7669258118,-158.0564270020,0.0791974068,0.0115109980,-0.0024783611,
1618.053,-3.2193617821,1.2993881702,168.7134094238,0.0612508804,0.0429608934,0.0091604590,-113.6415634155,73.2392807007,-70.0302429199,0.0327127576,0.0589783788,0.0085993260,-4.5018877983,82.7493591309,152.6248016357,0.0271598101,0.0232211202,0.0150949955,22.4627113342,55.7676162720,-158.0557250977,0.0713917017,0.0012888312,0.0028905272,
1618.063,-3.2199594975,1.2969207764,168.7133483887,0.0660906360,0.0405299552,0.0003710389,-113.6461410522,73.2387466431,-70.0296096802,0.0292921066,0.0614186823,0.0076474845,-4.4980411530,82.7513961792,152.6374816895,0.0305822492,0.0251629651,0.0209882855,22.4604415894,55.7689361572,-158.0541076660,0.0748226047,0.0013166517,0.0024111867,
1618.073,-3.2208809853,1.2968854904,168.7138977051,0.0602306426,0.0434756950,0.0101376772,-113.6380004883,73.2389373779,-70.0173034668,0.0258750916,0.0560614467,0.0168858320,-4.4944434166,82.7538833618,152.6475372314,0.0257049203,0.0241751075,0.0180997849,22.4600162506,55.7701873779,-158.0502624512,0.0772762895,0.0027922690,-0.0034331083,
1618.083,-3.2212975025,1.2966539860,168.7150268555,0.0607148893,0.0410415530,0.0013489127,-113.6203308105,73.2384414673,-69.9959716797,0.0283139944,0.0551282167,0.0202254206,-4.4874515533,82.7546997070,152.6626586914,0.0261949897,0.0280647278,0.0195771456,22.4580707550,55.7702636719,-158.0494689941,0.0753239393,-0.0010959506,-0.0000218153,
1618.093,-3.2195684910,1.2955065966,168.7168884277,0.0577651784,0.0419880189,0.0052528977,-113.6167678833,73.2392807007,-69.9886245728,0.0273416638,0.0604936779,0.0133673251,-4.4810519218,82.7502593994,152.6778259277,0.0296031833,0.0246384442,0.0346373320,22.4576339722,55.7699546814,-158.0474090576,0.0743443370,0.0023243427,0.0009493828,
1618.103,-3.2187788486,1.2954365015,168.7180786133,0.0558108315,0.0409977026,-0.0010954738,-113.6140823364,73.2385101318,-69.9812545776,0.0292909145,0.0644163787,0.0114069954,-4.4866304398,82.7470932007,152.6804351807,0.0281313658,0.0236784816,0.0321435332,22.4578571320,55.7664184570,-158.0449371338,0.0787041187,0.0071855485,0.0175039768,
1618.113,-3.2178466320,1.2950648069,168.7204589844,0.0616637208,0.0434228815,0.0072043538,-113.6180496216,73.2407608032,-69.9813461304,0.0317436457,0.0624215603,0.0089688301,-4.4881625175,82.7479629517,152.6853027344,0.0203207731,0.0236807466,0.0199513435,22.4591388702,55.7658653259,-158.0408020020,0.0752807260,0.0066827238,0.0018776059,
1618.123,-3.2158164978,1.2956473827,168.7222290039,0.0582559146,0.0472937413,0.0086673498,-113.6182403564,73.2416687012,-69.9773025513,0.0302833319,0.0585008860,0.0128699988,-4.4950180054,82.7474136353,152.6867065430,0.0261789560,0.0217436105,0.0258026719,22.4610080719,55.7663040161,-158.0350189209,0.0728436112,0.0120391101,0.0087252259,
1618.133,-3.2176868916,1.2970510721,168.7239227295,0.0573038459,0.0380489528,0.0023220778,-113.6170272827,73.2402648926,-69.9719696045,0.0366239548,0.0604781210,0.0158033594,-4.5072059631,82.7483367920,152.6828765869,0.0261809826,0.0198163688,0.0248439312,22.4621715546,55.7648086548,-158.0316925049,0.0718523860,0.0100672543,0.0111516118,
1618.143,-3.2177155018,1.2937009335,168.7257995605,0.0655461699,0.0443971902,0.0072035193,-113.6081314087,73.2402191162,-69.9587860107,0.0200221539,0.0580549240,0.0167391449,-4.4950761795,82.7466125488,152.7031402588,0.0252006054,0.0276042670,0.0287173986,22.4674434662,55.7667083740,-158.0261688232,0.0723593235,0.0066119432,-0.0039398074,
1618.153,-3.2188835144,1.2929263115,168.7257232666,0.0601615608,0.0385581776,-0.0006080270,-113.6159820557,73.2416152954,-69.9599227905,0.0302830935,0.0619246364,0.0109067485,-4.4970221519,82.7470169067,152.7111206055,0.0183655620,0.0271197110,0.0238429308,22.4693202972,55.7659263611,-158.0229492188,0.0757696033,0.0051257312,0.0058223009,
1618.163,-3.2201611996,1.2945132256,168.7268218994,0.0567712858,0.0400452390,0.0091593862,-113.6227188110,73.2421112061,-69.9610671997,0.0297973156,0.0570207834,0.0075166002,-4.4992508888,82.7460632324,152.7146759033,0.0227580070,0.0246845782,0.0257794261,22.4671649933,55.7687797546,-158.0202789307,0.0743327737,-0.0011866689,-0.0014721155,
1618.173,-3.2203085423,1.2940182686,168.7286529541,0.0577392131,0.0439540669,0.0086712241,-113.6226348877,73.2440338135,-69.9560241699,0.0283421278,0.0608974099,0.0128746033,-4.4882483482,82.7451477051,152.7351531982,0.0291036367,0.0236846805,0.0228333473,22.4649085999,55.7671546936,-158.0196685791,0.0713871121,0.0046842247,0.0067987442,
1618.183,-3.2190010548,1.2956646681,168.7291717529,0.0563030913,0.0449078158,0.0047639608,-113.6246871948,73.2431488037,-69.9514617920,0.0337087512,0.0574893951,0.0133782551,-4.4874043465,82.7425003052,152.7440948486,0.0247032642,0.0266160667,0.0271821618,22.4641151428,55.7664184570,-158.0175170898,0.0796806812,0.0017576814,0.0062975287,
1618.193,-3.2184951305,1.2982604504,168.7302703857,0.0529304184,0.0400161371,-0.0010945797,-113.6224060059,73.2432022095,-69.9441070557,0.0278496742,0.0604219437,0.0123907626,-4.4781990051,82.7425842285,152.7633514404,0.0217737556,0.0256188661,0.0291354060,22.4654636383,55.7678108215,-158.0122833252,0.0733467340,0.0041945577,-0.0000264049,
1618.203,-3.2175319195,1.2966775894,168.7308959961,0.0592504591,0.0414642319,0.0111108422,-113.6274490356,73.2438659668,-69.9431076050,0.0366420746,0.0560078621,0.0104565546,-4.4775390625,82.7423858643,152.7704772949,0.0281209946,0.0221996605,0.0222963691,22.4633846283,55.7651596069,-158.0112609863,0.0767386556,0.0056636631,0.0116493106,
1618.213,-3.2185633183,1.2955825329,168.7314605713,0.0616727546,0.0409939513,0.0067169666,-113.6198348999,73.2469482422,-69.9300842285,0.0249388218,0.0564635396,0.0172366798,-4.4766035080,82.7409820557,152.7822265625,0.0276296139,0.0197580308,0.0266670585,22.4678897858,55.7642669678,-158.0029144287,0.0742884874,0.0090357363,0.0028644800,
1618.223,-3.2185978889,1.2954282761,168.7332153320,0.0606935024,0.0444125161,0.0047634840,-113.6150512695,73.2489089966,-69.9203186035,0.0342260599,0.0623033643,0.0157365575,-4.4884724617,82.7415237427,152.7791748047,0.0290956497,0.0241783112,0.0174004436,22.4703845978,55.7643432617,-157.9981536865,0.0718477964,0.0080370456,0.0038524270,
1618.233,-3.2186956406,1.2955495119,168.7331542969,0.0572776496,0.0400196910,0.0062289834,-113.6075515747,73.2463531494,-69.9088973999,0.0322600603,0.0535684228,0.0108360648,-4.4813652039,82.7423324585,152.7944335938,0.0286091566,0.0280677080,0.0193651915,22.4682369232,55.7658157349,-157.9964599609,0.0733271241,0.0017169118,0.0028864145,
1618.243,-3.2176747322,1.2942461967,168.7361602783,0.0631142855,0.0414667651,0.0125746131,-113.6071624756,73.2474899292,-69.9060897827,0.0283595324,0.0613644421,0.0054555684,-4.4808597565,82.7424468994,152.8018798828,0.0207968950,0.0246483982,0.0222978592,22.4674854279,55.7650680542,-157.9944915771,0.0796673894,0.0012314171,0.0014099479,
1618.253,-3.2189691067,1.2924493551,168.7373504639,0.0621063672,0.0400245190,0.0067161322,-113.6005325317,73.2478256226,-69.8958969116,0.0293377638,0.0603956580,0.0176298022,-4.4607410431,82.7439041138,152.8308258057,0.0251946449,0.0280195922,0.0179249644,22.4643096924,55.7648429871,-157.9954071045,0.0786886811,0.0022355467,0.0053005815,
1618.263,-3.2190124989,1.2932529449,168.7378997803,0.0572375730,0.0444197878,0.0086694956,-113.5926208496,73.2493438721,-69.8834762573,0.0269039869,0.0603890121,0.0146533251,-4.4781723022,82.7459030151,152.8222808838,0.0242224932,0.0221964866,0.0174720287,22.4639511108,55.7643814087,-157.9918060303,0.0786840916,0.0022362322,0.0096877813,
1618.273,-3.2178454399,1.2923020124,168.7390899658,0.0611272305,0.0443994850,0.0023202300,-113.5946044922,73.2504882813,-69.8806686401,0.0254449248,0.0608550906,0.0136783719,-4.4885272980,82.7450408936,152.8188934326,0.0291033983,0.0236855298,0.0199006796,22.4653339386,55.7649612427,-157.9878692627,0.0752718449,0.0046683103,0.0028647780,
1618.283,-3.2174000740,1.2928385735,168.7390441895,0.0557655022,0.0419503003,0.0042732358,-113.5955886841,73.2521362305,-69.8771743774,0.0303360224,0.0627827644,0.0112302899,-4.4852929115,82.7424163818,152.8301849365,0.0295858979,0.0275879800,0.0218101144,22.4634723663,55.7638626099,-157.9873657227,0.0816087127,0.0032142699,0.0052844882,
1618.293,-3.2171170712,1.2932296991,168.7402038574,0.0587020107,0.0434102044,0.0057380795,-113.5932846069,73.2509613037,-69.8711929321,0.0337480903,0.0564562082,0.0122041553,-4.4792022705,82.7405548096,152.8451232910,0.0300700665,0.0251355320,0.0217766762,22.4630565643,55.7646255493,-157.9853363037,0.0738037229,0.0032222867,0.0023633838,
1618.303,-3.2150368690,1.2953652143,168.7424774170,0.0592275560,0.0453270450,0.0047603250,-113.5925750732,73.2505340576,-69.8673019409,0.0288631320,0.0559765100,0.0170865059,-4.4899373055,82.7419891357,152.8408966064,0.0251904130,0.0197864324,0.0232678056,22.4656562805,55.7666969299,-157.9800720215,0.0733357668,0.0080929250,-0.0000405312,
1618.313,-3.2143874168,1.2964707613,168.7430267334,0.0558288805,0.0448274203,-0.0020757914,-113.5900726318,73.2522430420,-69.8611755371,0.0288717151,0.0579076409,0.0136456043,-4.4840321541,82.7430648804,152.8550109863,0.0251927972,0.0256312042,0.0208439231,22.4687995911,55.7649345398,-157.9747924805,0.0772247314,0.0104960501,0.0067836046,
1618.323,-3.2152535915,1.2960307598,168.7442016602,0.0597274490,0.0414245538,0.0130615234,-113.5898818970,73.2502441406,-69.8554077148,0.0371624231,0.0564740598,0.0112167448,-4.4778008461,82.7408981323,152.8680725098,0.0256763101,0.0285498798,0.0295953751,22.4652004242,55.7628669739,-157.9771118164,0.0781809688,-0.0002248287,0.0062543154,
1618.333,-3.2148456573,1.2939965725,168.7447814941,0.0650630519,0.0438589044,0.0091537237,-113.5901718140,73.2515792847,-69.8515701294,0.0278918147,0.0613364577,0.0151153803,-4.4674568176,82.7391204834,152.8855285645,0.0232309699,0.0221816152,0.0290738344,22.4678554535,55.7645606995,-157.9727630615,0.0772210360,0.0080611706,-0.0029905438,
1618.343,-3.2143080235,1.2933510542,168.7448120117,0.0557744429,0.0443378277,0.0091535449,-113.5888290405,73.2529296875,-69.8456726074,0.0278986096,0.0608295798,0.0107056350,-4.4785089493,82.7377624512,152.8819732666,0.0212748647,0.0236728042,0.0310074091,22.4659347534,55.7655982971,-157.9718170166,0.0728366971,0.0080842972,-0.0044487715,
1618.353,-3.2156665325,1.2919864655,168.7471923828,0.0630748495,0.0375255942,0.0091534853,-113.5832290649,73.2513275146,-69.8353195190,0.0278905630,0.0579362810,0.0170379877,-4.4797177315,82.7403640747,152.8888702393,0.0286048055,0.0290432274,0.0173783302,22.4714984894,55.7670860291,-157.9643554688,0.0699216127,0.0095068812,-0.0048961639,
1618.363,-3.2167315483,1.2931489944,168.7494659424,0.0582123250,0.0365675539,0.0008549094,-113.5868072510,73.2524795532,-69.8334350586,0.0298494697,0.0579113364,0.0111875013,-4.4868922234,82.7400665283,152.8911590576,0.0251861811,0.0222235769,0.0227470398,22.4686679840,55.7646026611,-157.9615020752,0.0791745782,0.0061009079,0.0101966262,
1618.373,-3.2164494991,1.2944874763,168.7511596680,0.0597005263,0.0433985516,0.0032964349,-113.5922851563,73.2520370483,-69.8318481445,0.0259410143,0.0627892613,0.0082861930,-4.4958229065,82.7411193848,152.8917388916,0.0281181931,0.0217538327,0.0222775936,22.4667816162,55.7646789551,-157.9585571289,0.0777105093,0.0002590269,0.0014014244,
1618.383,-3.2149960995,1.2947015762,168.7516784668,0.0592159778,0.0389786921,0.0062247515,-113.5894927979,73.2522888184,-69.8229522705,0.0332664847,0.0613269210,0.0082714930,-4.4928421974,82.7380371094,152.9047393799,0.0261582732,0.0261458904,0.0285713673,22.4644432068,55.7651252747,-157.9582519531,0.0733203292,0.0002827644,0.0028634667,
1618.393,-3.2148818970,1.2946510315,168.7534942627,0.0557971299,0.0428829566,-0.0030527711,-113.5837097168,73.2512969971,-69.8119812012,0.0298435092,0.0540288091,0.0102046132,-4.4846849442,82.7374191284,152.9210357666,0.0295748711,0.0261284560,0.0236779451,22.4652690887,55.7643623352,-157.9543914795,0.0733128190,0.0022241771,0.0043214560,
1618.403,-3.2137665749,1.2947814465,168.7534332275,0.0592173710,0.0443283692,0.0013408065,-113.5854492188,73.2530517578,-69.8077850342,0.0298523307,0.0608351827,0.0077594370,-4.5016365051,82.7377471924,152.9122467041,0.0295755863,0.0237244368,0.0241740346,22.4619178772,55.7626457214,-157.9541778564,0.0723193884,-0.0011728704,0.0042858124,
1618.413,-3.2140622139,1.2932379246,168.7534332275,0.0611435622,0.0414038636,0.0111060143,-113.5865554810,73.2524490356,-69.8067321777,0.0293610096,0.0569354296,0.0058156252,-4.5099749565,82.7375564575,152.9113006592,0.0290868878,0.0291144252,0.0241714716,22.4576148987,55.7615127563,-157.9544372559,0.0776793957,0.0027662516,0.0037665367,
1618.423,-3.2126038074,1.2931342125,168.7558135986,0.0606534705,0.0452847071,0.0052453279,-113.5805435181,73.2528762817,-69.7966537476,0.0283865929,0.0603595972,0.0111558884,-4.5144357681,82.7372055054,152.9143981934,0.0198087692,0.0247302800,0.0261198282,22.4573192596,55.7585906982,-157.9528961182,0.0781390071,0.0042176843,0.0061678886,
1618.433,-3.2155046463,1.2939647436,168.7575225830,0.0572499931,0.0365461633,0.0047602654,-113.5781860352,73.2533111572,-69.7891235352,0.0269239545,0.0549859405,0.0087007284,-4.5119633675,82.7354736328,152.9232177734,0.0241994858,0.0247270167,0.0280441642,22.4564075470,55.7571868896,-157.9508666992,0.0737306476,0.0091010332,0.0056573749,
1618.443,-3.2148277760,1.2947958708,168.7574310303,0.0592176244,0.0448351316,0.0101305842,-113.5837097168,73.2547454834,-69.7882003784,0.0283960104,0.0588591099,0.0062753409,-4.5004081726,82.7333908081,152.9435119629,0.0202886462,0.0276337266,0.0241005421,22.4570426941,55.7585105896,-157.9483642578,0.0810678601,0.0061728656,-0.0001820326,
1618.453,-3.2157013416,1.2960562706,168.7584838867,0.0597278997,0.0394792333,-0.0001217127,-113.5894165039,73.2566299438,-69.7881240845,0.0284054875,0.0627249479,0.0082422420,-4.5080289841,82.7341995239,152.9441833496,0.0232201219,0.0217902809,0.0216739774,22.4559803009,55.7618370056,-157.9472045898,0.0723114610,0.0003414750,-0.0055127144,
1618.463,-3.2168810368,1.2953011990,168.7590026855,0.0626444072,0.0404763557,0.0072033405,-113.5867767334,73.2552642822,-69.7811737061,0.0283986330,0.0559159815,0.0121454597,-4.5066776276,82.7355804443,152.9525146484,0.0295708179,0.0252033472,0.0168149471,22.4575309753,55.7654266357,-157.9424743652,0.0728350282,0.0023002923,-0.0049707890,
1618.473,-3.2170104980,1.2954778671,168.7595062256,0.0616709292,0.0419434607,0.0111098289,-113.5877609253,73.2547149658,-69.7770156860,0.0332787037,0.0588515401,0.0092238486,-4.4967732430,82.7367935181,152.9699859619,0.0256672502,0.0271328092,0.0226925611,22.4589996338,55.7661094666,-157.9375762939,0.0777245164,0.0057087094,-0.0025147796,
1618.483,-3.2170195580,1.2940448523,168.7606658936,0.0631107688,0.0380373970,0.0101323724,-113.5961380005,73.2541809082,-69.7797393799,0.0279049277,0.0539602935,0.0043834001,-4.4839324951,82.7360610962,152.9898223877,0.0222476721,0.0256403387,0.0256074071,22.4532146454,55.7667617798,-157.9396209717,0.0738247037,-0.0000945032,0.0062615275,
1618.493,-3.2138907909,1.2943849564,168.7624969482,0.0567690432,0.0511664748,0.0028054714,-113.5999298096,73.2523727417,-69.7778549194,0.0303372145,0.0593507886,0.0092958212,-4.4797625542,82.7372817993,153.0008544922,0.0227386355,0.0285591334,0.0207442641,22.4553546906,55.7668380737,-157.9360656738,0.0777316689,0.0086755008,-0.0039833784,
1618.503,-3.2140371799,1.2932019234,168.7636718750,0.0621194988,0.0418917052,0.0071998239,-113.5961608887,73.2553024292,-69.7692337036,0.0288870931,0.0646849871,0.0175597072,-4.4766402245,82.7396316528,153.0103607178,0.0193258524,0.0261076540,0.0173653960,22.4544696808,55.7687263489,-157.9325561523,0.0753087997,0.0042993128,0.0033619404,
1618.513,-3.2147927284,1.2952572107,168.7642059326,0.0528780147,0.0419048294,0.0096428394,-113.6010742188,73.2546997070,-69.7680587769,0.0259543657,0.0558958054,0.0097738653,-4.4732208252,82.7418518066,153.0225982666,0.0251901150,0.0251204520,0.0188685656,22.4554595947,55.7699928284,-157.9290618896,0.0762978196,0.0072270334,-0.0000350475,
1618.523,-3.2149271965,1.2966957092,168.7659301758,0.0572976470,0.0419071317,0.0057373047,-113.6023941040,73.2550811768,-69.7640228271,0.0293742418,0.0588164628,0.0141720176,-4.4670791626,82.7433395386,153.0371246338,0.0256816745,0.0216869265,0.0218209624,22.4553356171,55.7705802917,-157.9269866943,0.0782567263,0.0047900379,0.0024138689,
1618.533,-3.2144582272,1.2956492901,168.7683410645,0.0621621981,0.0438521132,0.0145254135,-113.6036148071,73.2537307739,-69.7607650757,0.0313205719,0.0602995157,0.0176047385,-4.4636540413,82.7423324585,153.0492401123,0.0212849379,0.0285165012,0.0261986256,22.4517898560,55.7702178955,-157.9264831543,0.0753234625,0.0038436949,0.0043491721,
1618.543,-3.2156074047,1.2949494123,168.7694854736,0.0601968616,0.0385010540,0.0008543730,-113.5994491577,73.2534255981,-69.7510375977,0.0322956443,0.0632426739,0.0166107416,-4.4825539589,82.7461242676,153.0398864746,0.0237346888,0.0202527642,0.0174773335,22.4542770386,55.7708282471,-157.9210815430,0.0733762980,0.0106603056,0.0004595518,
1618.553,-3.2148594856,1.2957509756,168.7706298828,0.0572811663,0.0428825431,0.0062251091,-113.6008377075,73.2517318726,-69.7463607788,0.0278925896,0.0559409261,0.0117457733,-4.4835128784,82.7464447021,153.0466003418,0.0242236853,0.0222075433,0.0189487934,22.4538383484,55.7709236145,-157.9176788330,0.0748420954,0.0067586005,0.0004597902,
1618.563,-3.2137258053,1.2951864004,168.7724456787,0.0602010004,0.0462807678,0.0106182694,-113.5994644165,73.2511520386,-69.7395248413,0.0288662314,0.0564415455,0.0132080615,-4.4808926582,82.7468185425,153.0566864014,0.0212948322,0.0300137997,0.0218827724,22.4562606812,55.7719383240,-157.9137115479,0.0777817369,0.0057656467,-0.0004943609,
1618.573,-3.2134449482,1.2936931849,168.7729797363,0.0631046295,0.0369985625,0.0076876879,-113.5988311768,73.2509231567,-69.7340011597,0.0308182240,0.0608404875,0.0063706785,-4.4908890724,82.7460174561,153.0567169189,0.0256875753,0.0232010931,0.0243137479,22.4533824921,55.7695426941,-157.9127960205,0.0806879401,0.0013841093,0.0028812289,
1618.583,-3.2112598419,1.2938235998,168.7723083496,0.0592006557,0.0437964275,0.0042676330,-113.5866317749,73.2494888306,-69.7179412842,0.0317875743,0.0594214797,0.0165778250,-4.4771151543,82.7454147339,153.0786590576,0.0232448578,0.0265892297,0.0272305012,22.4532337189,55.7678565979,-157.9107055664,0.0772534013,0.0062588751,0.0067637563,
1618.593,-3.2109010220,1.2941340208,168.7734680176,0.0592060760,0.0457433015,0.0120800138,-113.6051635742,73.2472534180,-69.7320861816,0.0249403715,0.0589300990,-0.0067590177,-4.4824895859,82.7464218140,153.0832824707,0.0271533132,0.0256233215,0.0248067379,22.4526538849,55.7668113708,-157.9073028564,0.0811493993,0.0067467690,0.0028419495,
1618.603,-3.2100069523,1.2927845716,168.7752838135,0.0626004934,0.0476808771,0.0013364553,-113.5979690552,73.2487182617,-69.7212677002,0.0293422937,0.0613642931,0.0176118612,-4.4958424568,82.7503433228,153.0781555176,0.0271619558,0.0241829306,0.0165752172,22.4534015656,55.7672004700,-157.9033660889,0.0792000890,0.0038123727,0.0008966327,
1618.613,-3.2109923363,1.2918717861,168.7777099609,0.0591665991,0.0389090031,0.0042666197,-113.6013031006,73.2496032715,-69.7187805176,0.0347177982,0.0642732680,0.0098090172,-4.5027041435,82.7506942749,153.0797424316,0.0232564807,0.0178501457,0.0234172344,22.4561100006,55.7651863098,-157.8978118896,0.0767388940,0.0067064315,0.0077161789,
1618.623,-3.2103993893,1.2950347662,168.7787933350,0.0533624142,0.0423165709,0.0081734657,-113.6035919189,73.2496185303,-69.7165298462,0.0342296362,0.0593855381,0.0083545819,-4.4956893921,82.7545928955,153.0963134766,0.0276595950,0.0232003778,0.0151821971,22.4578342438,55.7671775818,-157.8941040039,0.0743170381,0.0023071170,-0.0015288591,
1618.633,-3.2102811337,1.2968547344,168.7798309326,0.0602301061,0.0428027585,0.0086624622,-113.6100463867,73.2511978149,-69.7196655273,0.0317961574,0.0637430549,0.0073973686,-4.4951825142,82.7552947998,153.1062927246,0.0271728635,0.0236865878,0.0195887685,22.4565620422,55.7646942139,-157.8925476074,0.0791754723,0.0057230294,0.0062462687,
1618.643,-3.2089068890,1.2969905138,168.7815399170,0.0621856041,0.0427788123,0.0145204663,-113.6160583496,73.2507171631,-69.7202987671,0.0254460573,0.0569027960,0.0103580356,-4.4943175316,82.7551345825,153.1141662598,0.0252193809,0.0246614069,0.0205628276,22.4545993805,55.7668113708,-157.8906250000,0.0757783055,0.0028228313,-0.0039867759,
1618.653,-3.2092764378,1.2966125011,168.7815246582,0.0592493191,0.0432735421,0.0125676990,-113.6131973267,73.2517776489,-69.7139511108,0.0220334530,0.0583570600,0.0078962669,-4.5012717247,82.7525329590,153.1154174805,0.0266785026,0.0232155323,0.0263787508,22.4550476074,55.7686996460,-157.8892669678,0.0762851238,-0.0005888045,-0.0005419254,
1618.663,-3.2076029778,1.2953737974,168.7832641602,0.0645987988,0.0417795628,0.0076827407,-113.6145095825,73.2518310547,-69.7103424072,0.0361938477,0.0573768020,0.0035076290,-4.4846692085,82.7531280518,153.1402435303,0.0193555951,0.0261074901,0.0258979797,22.4551391602,55.7681579590,-157.8865051270,0.0757915378,0.0038018674,0.0053103566,
1618.673,-3.2072381973,1.2953975201,168.7844696045,0.0577632785,0.0437263325,0.0032874346,-113.6224899292,73.2509078979,-69.7129135132,0.0322829485,0.0642108023,0.0045271814,-4.4832243919,82.7565689087,153.1505584717,0.0198514462,0.0246348530,0.0157021880,22.4541492462,55.7669639587,-157.8832397461,0.0782212019,0.0052691698,0.0131036043,
1618.683,-3.2067246437,1.2938607931,168.7863006592,0.0611544326,0.0442057103,0.0023100972,-113.6186218262,73.2531661987,-69.7031478882,0.0283880830,0.0578366518,0.0176777989,-4.4930453300,82.7569961548,153.1489868164,0.0305945873,0.0227029920,0.0196173191,22.4576854706,55.7660331726,-157.8776550293,0.0728409290,0.0062085092,0.0038270354,
1618.693,-3.2066044807,1.2965675592,168.7885589600,0.0572954118,0.0427387059,0.0067056417,-113.6260223389,73.2534027100,-69.7047271729,0.0274127126,0.0622124970,0.0064799041,-4.4849758148,82.7580566406,153.1652679443,0.0222961307,0.0265899301,0.0215864778,22.4573364258,55.7636985779,-157.8747100830,0.0767242908,0.0042456239,0.0062358975,
1618.703,-3.2089395523,1.2999563217,168.7896118164,0.0524717271,0.0364316590,0.0047557950,-113.6293869019,73.2509613037,-69.7031555176,0.0332598090,0.0539417267,0.0084649473,-4.4981465340,82.7600631714,153.1604156494,0.0242536664,0.0217336863,0.0108809471,22.4606647491,55.7636375427,-157.8685302734,0.0762354136,0.0100744218,0.0052704215,
1618.713,-3.2096753120,1.2974966764,168.7926635742,0.0626827180,0.0418156274,0.0076855421,-113.6219940186,73.2511825562,-69.6896743774,0.0327726007,0.0612784624,0.0186832398,-4.5020580292,82.7583847046,153.1647033691,0.0266913772,0.0227210969,0.0230615735,22.4624099731,55.7630500793,-157.8646697998,0.0737882257,0.0066374093,0.0008749366,
1618.723,-3.2075865269,1.2965239286,168.7926025391,0.0655954331,0.0476386249,0.0111011267,-113.6239395142,73.2506637573,-69.6863021851,0.0322816968,0.0632349551,0.0084417835,-4.4948987961,82.7610702515,153.1813049316,0.0252324343,0.0270961523,0.0177344084,22.4588642120,55.7625389099,-157.8635864258,0.0791543126,0.0017839968,0.0067144632,
1618.733,-3.2071156502,1.2962553501,168.7956085205,0.0592430905,0.0417710580,0.0062177181,-113.6177215576,73.2500762939,-69.6769180298,0.0322787762,0.0583738685,0.0137880892,-4.4985690117,82.7583618164,153.1858062744,0.0222967863,0.0246666223,0.0298944712,22.4547824860,55.7642669678,-157.8640899658,0.0723353624,-0.0030521750,0.0018396974,
1618.743,-3.2045915127,1.2967367172,168.7974395752,0.0563217998,0.0490512885,0.0042623281,-113.6212387085,73.2483825684,-69.6752777100,0.0293405652,0.0574159324,0.0069796890,-4.5022501945,82.7593841553,153.1910400391,0.0237638950,0.0217436850,0.0186831355,22.4583854675,55.7637901306,-157.8576354980,0.0801431537,0.0076545179,-0.0010836720,
1618.753,-3.2029736042,1.2954976559,168.7980041504,0.0621595532,0.0416989103,0.0062130094,-113.6118240356,73.2481994629,-69.6615982056,0.0356873274,0.0608554482,0.0186560750,-4.5075645447,82.7596817017,153.1952056885,0.0218114257,0.0232199430,0.0279663205,22.4579544067,55.7616386414,-157.8556213379,0.0752391815,0.0071584433,0.0023050904,
1618.763,-3.2027373314,1.2969605923,168.7991333008,0.0573022701,0.0431596115,0.0120729804,-113.6085281372,73.2460021973,-69.6540222168,0.0303051472,0.0535717607,0.0118196309,-4.5145368576,82.7573013306,153.1947784424,0.0257124305,0.0183558017,0.0235327482,22.4590225220,55.7615699768,-157.8506927490,0.0742619634,0.0032420754,0.0076785088,
1618.773,-3.2038552761,1.2985019684,168.7995910645,0.0568408817,0.0363431089,0.0101216435,-113.6139602661,73.2468185425,-69.6541290283,0.0273795724,0.0633145571,0.0064681247,-4.5199155807,82.7606582642,153.1957702637,0.0223018527,0.0247109085,0.0216376185,22.4592494965,55.7597122192,-157.8480834961,0.0718023181,0.0066477507,0.0081431270,
1618.783,-3.2033641338,1.2993873358,168.8006896973,0.0612508655,0.0441470295,0.0057270527,-113.6209106445,73.2469558716,-69.6552352905,0.0264037251,0.0574381351,0.0045463145,-4.5175085068,82.7616348267,153.2088317871,0.0223039985,0.0251925290,0.0216538310,22.4592514038,55.7577819824,-157.8465423584,0.0766661763,0.0081019402,0.0110471249,
1618.793,-3.2023527622,1.2985701561,168.8018646240,0.0607483238,0.0416880287,0.0047490597,-113.6160812378,73.2482757568,-69.6460952759,0.0327579975,0.0623112917,0.0162338018,-4.4980030060,82.7626113892,153.2371368408,0.0271889567,0.0275892764,0.0255736113,22.4597549438,55.7562828064,-157.8445892334,0.0771397352,0.0032062829,0.0061461329,
1618.803,-3.2026722431,1.3009077311,168.8029327393,0.0563945770,0.0412052609,0.0125628114,-113.6079483032,73.2502746582,-69.6316528320,0.0264204144,0.0632732213,0.0171594620,-4.5003046989,82.7619018555,153.2431030273,0.0232811570,0.0236891657,0.0250723958,22.4602317810,55.7569351196,-157.8405609131,0.0722633600,0.0080883652,0.0071331263,
1618.813,-3.2018949986,1.2992357016,168.8029327393,0.0612482205,0.0431448817,0.0018192530,-113.6130065918,73.2507324219,-69.6321334839,0.0283758640,0.0627671778,0.0079024136,-4.4903020859,82.7607955933,153.2594299316,0.0213255882,0.0261097699,0.0245645642,22.4552459717,55.7580566406,-157.8429565430,0.0742274523,0.0032570064,0.0071293712,
1618.823,-3.2014689445,1.3007726669,168.8035430908,0.0505328476,0.0416725799,0.0145148635,-113.6127014160,73.2499694824,-69.6281661987,0.0278837085,0.0588739812,0.0123006627,-4.4958910942,82.7570571899,153.2626953125,0.0266884565,0.0217326432,0.0323145986,22.4579906464,55.7563934326,-157.8395996094,0.0776290894,0.0085940361,0.0027229190,
1618.833,-3.2008962631,1.3023265600,168.8047485352,0.0525130890,0.0465453826,0.0062140822,-113.6183395386,73.2480087280,-69.6285324097,0.0366629362,0.0549855530,0.0035507381,-4.5063657761,82.7567901611,153.2613067627,0.0247347355,0.0163851827,0.0186401606,22.4589729309,55.7600364685,-157.8384704590,0.0683875680,0.0032340884,-0.0113849640,
1618.843,-3.2014589310,1.3011173010,168.8040618896,0.0637224540,0.0406958424,0.0003548265,-113.6141357422,73.2474136353,-69.6199264526,0.0303122997,0.0579344928,0.0128124952,-4.5195412636,82.7579727173,153.2549896240,0.0262022018,0.0271551758,0.0220789909,22.4572696686,55.7599678040,-157.8365173340,0.0727813840,-0.0001688600,0.0037443042,
1618.853,-3.1995425224,1.3012943268,168.8052520752,0.0593310110,0.0470101088,0.0023057461,-113.6161575317,73.2498397827,-69.6163864136,0.0249533653,0.0603337586,0.0118292272,-4.5125393867,82.7581939697,153.2695770264,0.0222964287,0.0256743878,0.0240358114,22.4562835693,55.7585220337,-157.8329467773,0.0747203231,0.0047149956,0.0061630011,
1618.863,-3.1999833584,1.2994669676,168.8064422607,0.0622288138,0.0387170389,0.0071888566,-113.6085968018,73.2500991821,-69.6036987305,0.0308140516,0.0593685508,0.0220465064,-4.5238423347,82.7590332031,153.2677612305,0.0252279639,0.0227687359,0.0191685557,22.4557628632,55.7562294006,-157.8303985596,0.0786040425,0.0076366961,0.0027120113,
1618.873,-3.1997089386,1.3012459278,168.8075714111,0.0559122041,0.0455481559,0.0032825470,-113.6048202515,73.2486419678,-69.5941772461,0.0337364078,0.0559804142,0.0108082145,-4.5095267296,82.7604446411,153.2895812988,0.0252310634,0.0290826857,0.0221197605,22.4578247070,55.7562980652,-157.8261413574,0.0746985078,0.0061536431,-0.0002080202,
1618.883,-3.1993918419,1.3011335135,168.8081207275,0.0603047684,0.0435895212,0.0047473311,-113.6061477661,73.2465820313,-69.5899353027,0.0278666615,0.0569855869,0.0108280629,-4.5006399155,82.7654571533,153.3069000244,0.0242655277,0.0217320323,0.0163438320,22.4557418823,55.7564659119,-157.8251647949,0.0766532421,0.0061733723,0.0036915541,
1618.893,-3.1994416714,1.3030661345,168.8085937500,0.0578970835,0.0421254933,0.0184195638,-113.5970077515,73.2428131104,-69.5763931274,0.0278477073,0.0521782935,0.0127642304,-4.5085396767,82.7627792358,153.3072662354,0.0227947831,0.0207766145,0.0314362049,22.4578208923,55.7587318420,-157.8199310303,0.0766754746,0.0066552758,-0.0055473447,
1618.903,-3.2001159191,1.3027181625,168.8091583252,0.0588675737,0.0401841253,0.0013309121,-113.5927963257,73.2435684204,-69.5669326782,0.0302929282,0.0599881411,0.0112746209,-4.5238108635,82.7636413574,153.2997131348,0.0198670030,0.0203210860,0.0153403878,22.4572448730,55.7599487305,-157.8169097900,0.0752226114,0.0042258054,0.0013026595,
1618.913,-3.1995015144,1.3007587194,168.8104705811,0.0583451018,0.0445679910,0.0052348971,-113.5961227417,73.2415313721,-69.5648956299,0.0341889262,0.0634310246,0.0073973686,-4.5219020844,82.7622299194,153.3103942871,0.0188873410,0.0256898105,0.0280116796,22.4533138275,55.7606735229,-157.8185577393,0.0659524202,0.0028007478,0.0086221099,
1618.923,-3.1977581978,1.3002603054,168.8097686768,0.0637075007,0.0464907587,0.0086516142,-113.5982284546,73.2395858765,-69.5629806519,0.0292963386,0.0566196442,0.0132795498,-4.5237264633,82.7610092163,153.3155975342,0.0227909088,0.0232541114,0.0245731473,22.4520969391,55.7623786926,-157.8170166016,0.0786644220,0.0018444955,-0.0040553212,
1618.933,-3.2006366253,1.3016054630,168.8120574951,0.0578715988,0.0343338475,0.0096315145,-113.5971069336,73.2401962280,-69.5553131104,0.0341821909,0.0610080361,0.0098522156,-4.5263671875,82.7630157471,153.3223571777,0.0281664133,0.0247220993,0.0211901665,22.4526443481,55.7625923157,-157.8133850098,0.0762251616,0.0042821467,0.0013207197,
1618.943,-3.2014250755,1.2999402285,168.8145294189,0.0597956665,0.0416718312,0.0081667304,-113.5893173218,73.2390365601,-69.5429306030,0.0283169746,0.0566467941,0.0195895433,-4.5146775246,82.7650527954,153.3427886963,0.0267060399,0.0285995752,0.0153645277,22.4519519806,55.7624359131,-157.8109130859,0.0732939243,0.0033110231,0.0032692552,
1618.953,-3.2011938095,1.2981146574,168.8170013428,0.0602520928,0.0431326926,0.0052361488,-113.5917053223,73.2386169434,-69.5408401489,0.0283148885,0.0546951294,0.0069081634,-4.5303649902,82.7649154663,153.3377838135,0.0208463669,0.0232636034,0.0231758952,22.4537296295,55.7594108582,-157.8070831299,0.0815650225,0.0057196915,0.0071420670,
1618.963,-3.1995959282,1.2981576920,168.8163757324,0.0573231578,0.0460345447,0.0027928352,-113.5906982422,73.2393951416,-69.5373458862,0.0307602286,0.0605443716,0.0122692734,-4.5473513603,82.7633438110,153.3297119141,0.0301202536,0.0193971545,0.0260823965,22.4506893158,55.7598609924,-157.8059997559,0.0669209957,0.0037965328,0.0042061210,
1618.973,-3.1990687847,1.2987190485,168.8168792725,0.0602626428,0.0421190895,0.0096290708,-113.5922088623,73.2393188477,-69.5331039429,0.0239238739,0.0581011772,0.0088588148,-4.5517878532,82.7657012939,153.3341522217,0.0257309079,0.0237983614,0.0183104873,22.4529819489,55.7605972290,-157.8015594482,0.0722993016,0.0062212348,-0.0011460781,
1618.983,-3.1991367340,1.2990690470,168.8180541992,0.0568507798,0.0421202704,0.0101166964,-113.5912857056,73.2406234741,-69.5271072388,0.0288132429,0.0585715771,0.0107991472,-4.5599026680,82.7632064819,153.3353729248,0.0306082368,0.0252845883,0.0295001268,22.4541950226,55.7624053955,-157.7973785400,0.0732936263,0.0037787855,-0.0030705333,
1618.993,-3.1997032166,1.2997368574,168.8185729980,0.0578389913,0.0382238813,0.0125597119,-113.5889968872,73.2421340942,-69.5221939087,0.0302857161,0.0580642223,0.0102901012,-4.5524096489,82.7653808594,153.3509826660,0.0232887864,0.0286830217,0.0197694898,22.4494972229,55.7660713196,-157.7981262207,0.0772358775,-0.0029943287,-0.0010861158,
1619.003,-3.1981475353,1.3006564379,168.8191223145,0.0568784773,0.0435678437,0.0101165771,-113.5843658447,73.2396469116,-69.5138473511,0.0268552303,0.0537171960,0.0117501467,-4.5445179939,82.7634277344,153.3658447266,0.0203548074,0.0252501070,0.0275483727,22.4520339966,55.7678070068,-157.7919006348,0.0796943307,0.0087109655,-0.0039830208,
1619.013,-3.1987946033,1.3010689020,168.8208312988,0.0607919246,0.0401611328,0.0032817125,-113.5804138184,73.2418594360,-69.5050430298,0.0273546576,0.0619927049,0.0165997967,-4.5365648270,82.7651901245,153.3807067871,0.0281711817,0.0281597525,0.0202527642,22.4532718658,55.7676315308,-157.7883300781,0.0777394772,0.0091870725,0.0018787384,
1619.023,-3.1997697353,1.3011537790,168.8226013184,0.0578637123,0.0367601551,0.0091420412,-113.5853195190,73.2426834106,-69.5040359497,0.0254056454,0.0605049431,0.0136874616,-4.5283613205,82.7633132935,153.3959503174,0.0252373815,0.0232612640,0.0309613943,22.4516601563,55.7693443298,-157.7862243652,0.0777562857,-0.0015310794,0.0009188056,
1619.033,-3.1994307041,1.2999954224,168.8225097656,0.0637028813,0.0416370891,0.0013289452,-113.5819015503,73.2418136597,-69.4953536987,0.0332137942,0.0600373745,0.0107476264,-4.5451569557,82.7648849487,153.3885345459,0.0227994323,0.0247612596,0.0187843442,22.4527015686,55.7702827454,-157.7831268311,0.0738592744,0.0053005964,0.0082594156,
1619.043,-3.1990742683,1.2995849848,168.8230590820,0.0612543151,0.0416308902,0.0023049116,-113.5869445801,73.2397689819,-69.4945983887,0.0351566076,0.0581045151,0.0063901842,-4.5454115868,82.7651596069,153.3940734863,0.0223117471,0.0237849206,0.0217183828,22.4547271729,55.7679901123,-157.7785949707,0.0757898688,0.0028281659,0.0053067207,
1619.053,-3.1982927322,1.3013346195,168.8229522705,0.0559137464,0.0430820733,0.0076760054,-113.5783920288,73.2391967773,-69.4806518555,0.0283178091,0.0556893945,0.0175848454,-4.5423135757,82.7665710449,153.4047393799,0.0286625028,0.0262175351,0.0149061084,22.4555110931,55.7700691223,-157.7751159668,0.0767868757,0.0008793771,-0.0034514070,
1619.063,-3.1998336315,1.2995332479,168.8235168457,0.0641831011,0.0392027162,0.0076768398,-113.5727310181,73.2402954102,-69.4697647095,0.0327178836,0.0547079146,0.0175512284,-4.5446171761,82.7666778564,153.4112243652,0.0237799287,0.0262225717,0.0222312808,22.4586658478,55.7664260864,-157.7699737549,0.0826104283,0.0115728378,0.0077421069,
1619.073,-3.2004356384,1.3013467789,168.8246459961,0.0539608337,0.0401897244,0.0135374069,-113.5672454834,73.2406234741,-69.4596405029,0.0288132429,0.0561778843,0.0175238028,-4.5479068756,82.7679290771,153.4148559570,0.0281772017,0.0252514929,0.0149311423,22.4580879211,55.7658653259,-157.7665863037,0.0821166635,0.0057156533,0.0004083514,
1619.083,-3.2006568909,1.3006815910,168.8252105713,0.0598086044,0.0397053100,-0.0030641556,-113.5583267212,73.2408447266,-69.4465103149,0.0336971879,0.0596112609,0.0184575617,-4.5512175560,82.7693634033,153.4215545654,0.0252506733,0.0286751240,0.0222761035,22.4595298767,55.7668228149,-157.7615203857,0.0723603964,0.0047312379,-0.0025032163,
1619.093,-3.2019991875,1.3029068708,168.8274841309,0.0569177419,0.0397286415,0.0091446638,-113.5628204346,73.2414093018,-69.4445419312,0.0332117677,0.0630119145,0.0087088645,-4.5472936630,82.7690963745,153.4329376221,0.0257383585,0.0262251645,0.0183680654,22.4578075409,55.7654800415,-157.7615356445,0.0772300363,0.0037629008,0.0072379112,
1619.103,-3.2034509182,1.3005492687,168.8292388916,0.0681070760,0.0417071134,-0.0015968084,-113.5634231567,73.2416839600,-69.4412002563,0.0254006386,0.0600759387,0.0087099448,-4.5635657310,82.7689285278,153.4249114990,0.0281794071,0.0218669772,0.0217859149,22.4580879211,55.7642517090,-157.7585601807,0.0742883682,0.0081481636,0.0062462091,
1619.113,-3.2032628059,1.3008378744,168.8291778564,0.0588347688,0.0431686789,0.0062157512,-113.5497970581,73.2404251099,-69.4234848022,0.0307654142,0.0547515750,0.0203738958,-4.5638957024,82.7678985596,153.4341125488,0.0281771421,0.0228457451,0.0212789774,22.4549560547,55.7629127502,-157.7574157715,0.0855056643,0.0013332665,0.0003572702,
1619.123,-3.2028002739,1.3009949923,168.8316345215,0.0554195382,0.0460902974,0.0037740469,-113.5538024902,73.2406005859,-69.4225234985,0.0273482800,0.0566942692,0.0086725578,-4.5650501251,82.7694473267,153.4411773682,0.0218328834,0.0247993022,0.0173996687,22.4615974426,55.7621192932,-157.7494964600,0.0820798874,0.0081045330,-0.0001166463,
1619.133,-3.2027721405,1.3017313480,168.8328399658,0.0554323867,0.0446249545,0.0081685185,-113.5521011353,73.2415390015,-69.4169692993,0.0293061733,0.0620539784,0.0120764598,-4.5583739281,82.7696914673,153.4560852051,0.0237865448,0.0257606953,0.0217974782,22.4571151733,55.7608757019,-157.7499084473,0.0806028247,0.0017907023,0.0022913814,
1619.143,-3.2034504414,1.3021613359,168.8346099854,0.0564164519,0.0421953537,0.0018219352,-113.5532379150,73.2402648926,-69.4127960205,0.0346708298,0.0567006767,0.0062307492,-4.5756568909,82.7678146362,153.4462280273,0.0306183696,0.0248250067,0.0290933847,22.4576988220,55.7615127563,-157.7460632324,0.0723083019,0.0076483488,0.0023021102,
1619.153,-3.2025270462,1.2998871803,168.8340606689,0.0612595826,0.0436441563,0.0062143207,-113.5527420044,73.2397613525,-69.4083099365,0.0356448293,0.0571978092,0.0076967329,-4.5806236267,82.7695770264,153.4501953125,0.0286691189,0.0233688504,0.0178926587,22.4558639526,55.7598457336,-157.7462921143,0.0722919106,0.0052144080,0.0095971823,
1619.163,-3.2025120258,1.3007655144,168.8351440430,0.0612749085,0.0446204394,0.0057269335,-113.5551300049,73.2406692505,-69.4069900513,0.0268603563,0.0630383492,0.0120962784,-4.5830702782,82.7686004639,153.4552307129,0.0262255669,0.0253286511,0.0208076239,22.4575061798,55.7581558228,-157.7419586182,0.0717870593,0.0076315999,0.0110456347,
1619.173,-3.2026298046,1.3001865149,168.8363800049,0.0578468367,0.0441342257,0.0067028403,-113.5690612793,73.2416839600,-69.4153442383,0.0293068886,0.0615294278,0.0058062375,-4.5532488823,82.7671661377,153.4932403564,0.0223161578,0.0291706622,0.0285903811,22.4569950104,55.7593612671,-157.7400207520,0.0674043894,0.0042249262,0.0052003264,
1619.183,-3.2022135258,1.3024252653,168.8374786377,0.0544679314,0.0416855179,0.0086570382,-113.5785446167,73.2445373535,-69.4165344238,0.0327392220,0.0629318953,0.0068076700,-4.5396628380,82.7679519653,153.5150299072,0.0301303864,0.0266980529,0.0193238258,22.4558982849,55.7597961426,-157.7378082275,0.0732679963,0.0042372048,-0.0011457801,
1619.193,-3.2015235424,1.3021663427,168.8392181396,0.0632524788,0.0426500626,0.0062142015,-113.5879211426,73.2465438843,-69.4182815552,0.0332375765,0.0628817677,0.0073261037,-4.5170621872,82.7667083740,153.5482177734,0.0286628008,0.0290909857,0.0246695280,22.4573783875,55.7594337463,-157.7324523926,0.0801003575,0.0051983893,0.0017849207,
1619.203,-3.2020514011,1.3012565374,168.8391723633,0.0607951954,0.0407061577,0.0037733316,-113.5921478271,73.2444458008,-69.4146728516,0.0332270265,0.0560701489,0.0044298768,-4.5069489479,82.7659454346,153.5671691895,0.0252431631,0.0251632929,0.0251432061,22.4532318115,55.7597885132,-157.7328491211,0.0791273117,-0.0001331121,0.0022621751,
1619.213,-3.2018642426,1.2997834682,168.8391723633,0.0607694946,0.0431443341,0.0076786876,-113.5956497192,73.2435836792,-69.4116516113,0.0312695503,0.0536344349,0.0117761046,-4.5172877312,82.7652740479,153.5662841797,0.0291479230,0.0227457881,0.0236681700,22.4571342468,55.7590599060,-157.7263031006,0.0835146904,0.0095930845,-0.0001741052,
1619.223,-3.2024676800,1.3020918369,168.8402557373,0.0539738312,0.0382719859,0.0003561378,-113.5996322632,73.2407760620,-69.4114761353,0.0288140178,0.0585523248,0.0040007681,-4.5146217346,82.7664337158,153.5784606934,0.0242676735,0.0227382779,0.0290589333,22.4558448792,55.7588958740,-157.7239990234,0.0757005811,-0.0001617372,0.0017718673,
1619.233,-3.2015225887,1.3022681475,168.8408050537,0.0593480021,0.0436266027,0.0062147379,-113.5932540894,73.2389068604,-69.4013061523,0.0278280377,0.0551758409,0.0122844875,-4.5181198120,82.7642669678,153.5832519531,0.0193800926,0.0207958072,0.0324410796,22.4567890167,55.7583122253,-157.7211914063,0.0732533932,0.0047091842,0.0046967268,
1619.243,-3.2042734623,1.3049116135,168.8412628174,0.0549995974,0.0392799489,0.0062180758,-113.6083526611,73.2365112305,-69.4118194580,0.0248863101,0.0590881109,0.0006515831,-4.5285954475,82.7605514526,153.5815582275,0.0257195830,0.0237538069,0.0323789716,22.4577293396,55.7569618225,-157.7175292969,0.0747050047,0.0046933889,0.0056599379,
1619.253,-3.2073481083,1.3039196730,168.8412017822,0.0608416647,0.0383569673,-0.0025680661,-113.6107254028,73.2344055176,-69.4080123901,0.0287819505,0.0571625233,0.0104423538,-4.5273370743,82.7643203735,153.5910491943,0.0306106806,0.0242341459,0.0148659348,22.4555816650,55.7567367554,-157.7144622803,0.0717731118,0.0027583688,0.0041829348,
1619.263,-3.2073009014,1.3045369387,168.8423004150,0.0603641532,0.0403092578,0.0145219564,-113.6157531738,73.2273941040,-69.4062194824,0.0292349458,0.0533528924,-0.0002299547,-4.5373997688,82.7621231079,153.5885772705,0.0262113214,0.0237713009,0.0294768214,22.4583053589,55.7563171387,-157.7091827393,0.0761635303,0.0061494112,0.0022355914,
1619.273,-3.2083282471,1.3031394482,168.8440704346,0.0627811775,0.0388623402,0.0018270016,-113.6185836792,73.2245407104,-69.4038696289,0.0331268311,0.0607144833,0.0085913911,-4.5457596779,82.7589797974,153.5890197754,0.0218098760,0.0228174478,0.0264967084,22.4568672180,55.7569274902,-157.7070770264,0.0756812096,0.0007945597,0.0041902661,
1619.283,-3.2092089653,1.3040070534,168.8439788818,0.0569369383,0.0393659472,0.0101290941,-113.6073760986,73.2212219238,-69.3897857666,0.0389694571,0.0598123074,0.0129560456,-4.5634865761,82.7593383789,153.5795745850,0.0252286196,0.0213916004,0.0206452012,22.4522991180,55.7548866272,-157.7071685791,0.0800557137,-0.0011281669,0.0002406836,
1619.293,-3.2080557346,1.3054254055,168.8445587158,0.0550085604,0.0486231744,0.0062222481,-113.6005096436,73.2198944092,-69.3822402954,0.0282205939,0.0622875690,0.0148863271,-4.5629053116,82.7613906860,153.5882568359,0.0242565870,0.0277350694,0.0172637105,22.4515914917,55.7540321350,-157.7044677734,0.0761410594,0.0091273487,0.0114560723,
1619.303,-3.2081422806,1.3046739101,168.8457183838,0.0628079474,0.0442301631,0.0086634159,-113.5918731689,73.2179565430,-69.3713302612,0.0252811313,0.0584279895,0.0104647428,-4.5771431923,82.7598190308,153.5830230713,0.0296242237,0.0184916109,0.0245619416,22.4527187347,55.7544975281,-157.7014617920,0.0785870552,0.0066783875,-0.0007393956,
1619.313,-3.2076706886,1.3071564436,168.8480224609,0.0560153276,0.0417804867,0.0091522336,-113.5935363770,73.2156600952,-69.3710937500,0.0330820680,0.0589483082,0.0095110238,-4.5916948318,82.7577667236,153.5760498047,0.0222954750,0.0219445825,0.0245315433,22.4522304535,55.7528800964,-157.6987152100,0.0819891691,0.0037440658,0.0050954819,
1619.323,-3.2068128586,1.3058164120,168.8492736816,0.0584333539,0.0432304107,0.0086626410,-113.5857391357,73.2167739868,-69.3597793579,0.0291814208,0.0623644590,0.0197215453,-4.5854496956,82.7577819824,153.5893707275,0.0242486596,0.0229073316,0.0269708037,22.4528388977,55.7541198730,-157.6947479248,0.0732122660,0.0042338520,0.0041388869,
1619.333,-3.2073202133,1.3069195747,168.8509979248,0.0584526025,0.0427509397,0.0052456260,-113.5892868042,73.2192230225,-69.3579559326,0.0379828215,0.0637849271,0.0075146258,-4.5488238335,82.7584609985,153.6339721680,0.0315743685,0.0345436782,0.0220943689,22.4520606995,55.7540817261,-157.6934967041,0.0712587833,0.0110765100,0.0080406666,
1619.343,-3.2077593803,1.3046085835,168.8540039063,0.0662247837,0.0408055261,0.0023153424,-113.5973129272,73.2224807739,-69.3614654541,0.0340929627,0.0612775087,0.0138776600,-4.5378208160,82.7584152222,153.6513519287,0.0266914368,0.0267068297,0.0225793123,22.4509506226,55.7558975220,-157.6910858154,0.0742062926,0.0047490299,0.0026906729,
1619.353,-3.2087223530,1.3046612740,168.8551940918,0.0579249188,0.0432637073,0.0111053586,-113.6110000610,73.2284164429,-69.3703536987,0.0341228843,0.0675072074,0.0104835331,-4.5193700790,82.7570800781,153.6780853271,0.0247353911,0.0242262036,0.0210887194,22.4469985962,55.7585144043,-157.6913757324,0.0727671385,0.0008929521,0.0031978488,
1619.363,-3.2099747658,1.3048287630,168.8562927246,0.0593926832,0.0359613113,0.0032941103,-113.6110839844,73.2356338501,-69.3647232056,0.0292764306,0.0605607033,0.0187365413,-4.5161328316,82.7544860840,153.6889495850,0.0261945128,0.0232459456,0.0288563371,22.4445152283,55.7612953186,-157.6909179688,0.0698647499,0.0028840601,0.0037150383,
1619.373,-3.2086784840,1.3047515154,168.8574676514,0.0579264946,0.0427746512,-0.0020782948,-113.6236267090,73.2416534424,-69.3695755005,0.0268653035,0.0604434609,0.0114300698,-4.5302023888,82.7533187866,153.6837768555,0.0213091373,0.0208374262,0.0263971090,22.4443759918,55.7610626221,-157.6894683838,0.0781632662,0.0072784424,0.0012688637,
1619.383,-3.2081377506,1.3067172766,168.8586120605,0.0555193871,0.0442300402,0.0115939379,-113.6277770996,73.2519912720,-69.3707809448,0.0322884321,0.0632068515,0.0128451213,-4.5181298256,82.7509078979,153.7058105469,0.0276514888,0.0281380117,0.0219597816,22.4433078766,55.7610473633,-157.6875457764,0.0830458999,0.0038702190,-0.0060585141,
1619.393,-3.2072279453,1.3061450720,168.8591613770,0.0618570596,0.0456790403,0.0032920837,-113.6206207275,73.2660522461,-69.3631973267,0.0328474045,0.0610530376,0.0176009834,-4.5024352074,82.7506942749,153.7308349609,0.0247213244,0.0300565511,0.0195113420,22.4456501007,55.7588424683,-157.6822662354,0.0791180134,0.0082312226,0.0046619177,
1619.403,-3.2055366039,1.3068988323,168.8608703613,0.0618702099,0.0461378396,0.0067086816,-113.6111984253,73.2858657837,-69.3520965576,0.0329468846,0.0710244775,0.0159603208,-4.4749846458,82.7526397705,153.7672729492,0.0237490535,0.0251101106,0.0127032399,22.4426555634,55.7608299255,-157.6818542480,0.0820671916,0.0053398162,-0.0016692877,
1619.413,-3.2054476738,1.3054559231,168.8621063232,0.0608684719,0.0427183546,0.0067077279,-113.6008529663,73.3115768433,-69.3372192383,0.0286813378,0.0706519783,0.0123230293,-4.4472436905,82.7516174316,153.8039398193,0.0203288198,0.0245613903,0.0229362845,22.4417152405,55.7597503662,-157.6794128418,0.0781503320,0.0107133538,0.0061243176,
1619.423,-3.2027204037,1.3059163094,168.8626251221,0.0603882223,0.0456005186,0.0032878518,-113.5981979370,73.3384170532,-69.3261260986,0.0253977776,0.0643877983,0.0121317953,-4.4168262482,82.7531814575,153.8432006836,0.0222854018,0.0283979028,0.0141688585,22.4389038086,55.7614784241,-157.6777343750,0.0742610693,0.0058656335,0.0036957264,
1619.433,-3.2028586864,1.3038719893,168.8638000488,0.0652353615,0.0397436023,0.0096342564,-113.6015777588,73.3646926880,-69.3199310303,0.0299236774,0.0590970218,0.0158782005,-4.4166150093,82.7508010864,153.8539581299,0.0281395316,0.0274240077,0.0278000236,22.4389972687,55.7609138489,-157.6745452881,0.0806031823,0.0058616847,0.0066182613,
1619.443,-3.2012233734,1.3041887283,168.8642578125,0.0652408898,0.0460627563,0.0052388310,-113.6102218628,73.3884811401,-69.3172607422,0.0271127820,0.0626227260,0.0089229792,-4.4015784264,82.7482528687,153.8818664551,0.0252042413,0.0308118016,0.0292199850,22.4379348755,55.7614784241,-157.6707305908,0.0684017539,0.0014799237,0.0027155876,
1619.453,-3.2015590668,1.3039251566,168.8648529053,0.0564472303,0.0392326750,0.0013319254,-113.6217651367,73.4094085693,-69.3185577393,0.0311233997,0.0539791286,0.0166486204,-4.4097404480,82.7467956543,153.8856811523,0.0305721164,0.0244844854,0.0247975588,22.4439010620,55.7617416382,-157.6600799561,0.0737754107,0.0097279847,0.0017649531,
1619.463,-3.2004961967,1.3055441380,168.8647155762,0.0584286042,0.0440969355,0.0052385926,-113.6297454834,73.4222869873,-69.3205718994,0.0350937843,0.0469298661,0.0053687021,-4.4116759300,82.7461242676,153.8955230713,0.0261760950,0.0254660398,0.0238131881,22.4485187531,55.7615776062,-157.6525115967,0.0776800513,0.0052906573,0.0008036494,
1619.473,-3.2022314072,1.3061418533,168.8670806885,0.0559976287,0.0363146514,0.0032868385,-113.6412429810,73.4308547974,-69.3301391602,0.0390427113,0.0497061610,0.0078053027,-4.3994960785,82.7467117310,153.9202117920,0.0256891251,0.0259265006,0.0208905339,22.4483184814,55.7657470703,-157.6480407715,0.0694201589,0.0043387711,-0.0045129061,
1619.483,-3.2037029266,1.3053234816,168.8694915771,0.0608661622,0.0436645262,0.0013350248,-113.6510620117,73.4321212769,-69.3416442871,0.0331895947,0.0496661365,0.0058888346,-4.3811926842,82.7456359863,153.9455413818,0.0193390846,0.0258871615,0.0252634883,22.4485740662,55.7631111145,-157.6447753906,0.0835545063,0.0057868958,0.0047307014,
1619.493,-3.2032692432,1.3056337833,168.8718109131,0.0613598600,0.0417038463,0.0057292581,-113.6778488159,73.4272994995,-69.3687057495,0.0351187587,0.0491998792,0.0026254505,-4.3753156662,82.7438201904,153.9595794678,0.0251944661,0.0248997957,0.0262095332,22.4502506256,55.7623252869,-157.6419372559,0.0806170702,0.0101618469,-0.0021095276,
1619.503,-3.2023241520,1.3044207096,168.8724365234,0.0598738492,0.0436405279,0.0047512650,-113.7121429443,73.4142913818,-69.4020385742,0.0345656872,0.0517700315,0.0004284009,-4.3696937561,82.7417373657,153.9745788574,0.0232367516,0.0273314267,0.0256841779,22.4503078461,55.7625083923,-157.6402893066,0.0703649521,0.0043029487,0.0022874475,
1619.513,-3.2029755116,1.3054549694,168.8742370605,0.0545208007,0.0421870090,0.0086586475,-113.7443923950,73.3950805664,-69.4323425293,0.0261691213,0.0500455201,0.0041229203,-4.3762927055,82.7402267456,153.9755401611,0.0242099762,0.0234418064,0.0271250010,22.4456882477,55.7620010376,-157.6411437988,0.0679185987,0.0009241700,0.0061697960,
1619.523,-3.2041740417,1.3073334694,168.8753051758,0.0555301383,0.0383015908,0.0023130178,-113.7736434937,73.3733444214,-69.4577636719,0.0319200158,0.0542243719,0.0078211650,-4.3935432434,82.7409286499,153.9646453857,0.0281177759,0.0249442458,0.0168846846,22.4474582672,55.7619361877,-157.6371307373,0.0801249146,0.0043256581,-0.0031018257,
1619.533,-3.2041971684,1.3067792654,168.8776855469,0.0623564050,0.0422082618,0.0086600780,-113.7999725342,73.3462753296,-69.4837875366,0.0322730541,0.0545848608,0.0061707720,-4.3984403610,82.7425231934,153.9672546387,0.0256798863,0.0249529183,0.0203331709,22.4463729858,55.7595710754,-157.6347808838,0.0874259472,-0.0000720620,-0.0006961226,
1619.543,-3.2054626942,1.3060094118,168.8781738281,0.0652726591,0.0378357954,0.0179390311,-113.8181152344,73.3190231323,-69.5052108765,0.0331131816,0.0505686700,0.0059492365,-4.3979196548,82.7427902222,153.9761810303,0.0276336074,0.0229985714,0.0217975974,22.4511642456,55.7587776184,-157.6293029785,0.0796056390,0.0135519803,0.0012645721,
1619.553,-3.2064652443,1.3072170019,168.8792877197,0.0560163893,0.0388297923,0.0111036897,-113.8266448975,73.2919845581,-69.5184707642,0.0310244560,0.0558462739,0.0154481232,-4.4134464264,82.7436904907,153.9651031494,0.0217761993,0.0230318159,0.0227949023,22.4466915131,55.7597236633,-157.6324768066,0.0761969686,-0.0010507405,0.0071190596,
1619.563,-3.2064051628,1.3077994585,168.8816375732,0.0584679544,0.0402935818,0.0115927458,-113.8369445801,73.2681045532,-69.5346527100,0.0294397473,0.0581427217,0.0063789561,-4.4009928703,82.7444992065,153.9807281494,0.0242193937,0.0283740014,0.0237849355,22.4414291382,55.7618598938,-157.6343841553,0.0747531056,-0.0000145137,-0.0001952648,
1619.573,-3.2054278851,1.3063081503,168.8841247559,0.0569770932,0.0393000208,0.0062196851,-113.8443984985,73.2494430542,-69.5452346802,0.0308107734,0.0662244558,0.0167928487,-4.3924512863,82.7473144531,153.9936523438,0.0256904364,0.0317693800,0.0194349885,22.4379787445,55.7654037476,-157.6363525391,0.0703933835,0.0039425045,0.0003264546,
1619.583,-3.2029740810,1.3060238361,168.8852996826,0.0633197874,0.0509760380,0.0086591244,-113.8413925171,73.2322769165,-69.5448989868,0.0243766904,0.0630740821,0.0154299214,-4.3895015717,82.7494964600,154.0004577637,0.0252069831,0.0268771499,0.0189835429,22.4428672791,55.7659263611,-157.6320953369,0.0767461658,0.0122018307,-0.0006244183,
1619.593,-3.2028982639,1.3093510866,168.8857574463,0.0545887835,0.0470683873,0.0008473396,-113.8358154297,73.2201919556,-69.5366668701,0.0248041153,0.0652234554,0.0149970800,-4.3875465393,82.7492294312,154.0087738037,0.0208118558,0.0249200314,0.0302088261,22.4409160614,55.7647361755,-157.6318054199,0.0816172957,-0.0019472837,0.0008165836,
1619.603,-3.2032620907,1.3094123602,168.8869628906,0.0580078214,0.0431684740,0.0145198703,-113.8314285278,73.2178802490,-69.5287170410,0.0262573361,0.0774739981,0.0242697448,-4.3983092308,82.7492599487,154.0044403076,0.0203236341,0.0215259641,0.0223990679,22.4394721985,55.7651062012,-157.6314544678,0.0801560879,0.0009976327,0.0008166432,
1619.613,-3.2037353516,1.3082441092,168.8881683350,0.0599405579,0.0407353379,0.0076838732,-113.8154144287,73.2184906006,-69.5071868896,0.0233306885,0.0677323341,0.0256563872,-4.4129652977,82.7512359619,153.9967803955,0.0305818915,0.0225325376,0.0204821825,22.4424076080,55.7646369934,-157.6264953613,0.0703858733,0.0048746467,0.0017978549,
1619.623,-3.2042918205,1.3084455729,168.8881378174,0.0570143908,0.0426981486,0.0067079663,-113.8011169434,73.2209625244,-69.4863357544,0.0238314271,0.0657701492,0.0192259699,-4.4210162163,82.7490997314,153.9981384277,0.0193467140,0.0235297829,0.0321664810,22.4423160553,55.7633934021,-157.6238403320,0.0733032823,0.0029155016,0.0047106147,
1619.633,-3.2019751072,1.3101414442,168.8898773193,0.0585088208,0.0504702590,0.0047532320,-113.7887344360,73.2248764038,-69.4667510986,0.0321519375,0.0662240386,0.0103533119,-4.4208831787,82.7460632324,154.0070190430,0.0261759758,0.0264632553,0.0326015949,22.4423370361,55.7613449097,-157.6200561523,0.0845136642,0.0082751215,0.0115193725,
1619.643,-3.2028136253,1.3122630119,168.8903808594,0.0546395928,0.0416957512,0.0047549009,-113.7695007324,73.2297515869,-69.4417953491,0.0272936821,0.0617943108,0.0224385858,-4.4282040596,82.7460174561,154.0096740723,0.0276407003,0.0245264024,0.0257676244,22.4432296753,55.7582244873,-157.6145782471,0.0849713087,0.0082498491,0.0012272000,
1619.653,-3.2046055794,1.3141258955,168.8908538818,0.0556486547,0.0383089557,0.0081754923,-113.7723999023,73.2332305908,-69.4353713989,0.0292643309,0.0632004142,0.0058271512,-4.4187588692,82.7462005615,154.0289306641,0.0266645551,0.0318293422,0.0238161087,22.4460678101,55.7577476501,-157.6071014404,0.0703182220,0.0077332258,0.0046497583,
1619.663,-3.2036600113,1.3145189285,168.8920898438,0.0541906692,0.0436635725,-0.0015910268,-113.7694931030,73.2399826050,-69.4258804321,0.0341811180,0.0606620312,0.0179753751,-4.4102349281,82.7459869385,154.0456695557,0.0242226720,0.0264396518,0.0257625580,22.4448127747,55.7551460266,-157.6047668457,0.0737106204,0.0043122768,0.0124226809,
1619.673,-3.2021422386,1.3141452074,168.8938293457,0.0634614974,0.0455902629,0.0013369918,-113.7670288086,73.2465438843,-69.4157562256,0.0249367952,0.0620317459,0.0130370483,-4.3933911324,82.7432022095,154.0718536377,0.0251930952,0.0278706253,0.0301070213,22.4459991455,55.7570152283,-157.6002197266,0.0791000724,0.0028470159,-0.0002431870,
1619.683,-3.2016642094,1.3153816462,168.8943939209,0.0556705706,0.0441170596,0.0071964264,-113.7710266113,73.2528457642,-69.4112243652,0.0298513174,0.0624156594,0.0144780204,-4.3960857391,82.7433395386,154.0779724121,0.0281230807,0.0239701271,0.0252281427,22.4480342865,55.7573928833,-157.5962524414,0.0708029866,0.0111313462,-0.0007188320,
1619.693,-3.2012012005,1.3163267374,168.8961639404,0.0547104999,0.0397144519,0.0047550797,-113.7730712891,73.2578353882,-69.4057235718,0.0367123485,0.0574521720,0.0100595355,-4.4057407379,82.7436294556,154.0780029297,0.0232409239,0.0171553344,0.0213280916,22.4512329102,55.7569160461,-157.5897674561,0.0751928091,0.0091465116,-0.0002254844,
1619.703,-3.2031872272,1.3186072111,168.8972778320,0.0542620085,0.0397489965,0.0067110062,-113.7787017822,73.2624664307,-69.4028701782,0.0240402818,0.0607882142,0.0056598112,-4.3883886337,82.7445526123,154.1035766602,0.0276374817,0.0263928175,0.0276886225,22.4525547028,55.7535552979,-157.5857391357,0.0795543790,0.0047214776,0.0046178699,
1619.713,-3.2024300098,1.3169156313,168.9003448486,0.0620449893,0.0470600612,0.0052447319,-113.7783126831,73.2653198242,-69.3925170898,0.0308905840,0.0578163862,0.0129629821,-4.3829617500,82.7427902222,154.1198883057,0.0261687636,0.0195471495,0.0242387652,22.4542827606,55.7521057129,-157.5807647705,0.0731924772,0.0105572045,0.0060701966,
1619.723,-3.2038402557,1.3186767101,168.9026794434,0.0542632192,0.0373189710,0.0096413493,-113.7827835083,73.2656631470,-69.3886795044,0.0294274688,0.0587780476,0.0076103732,-4.3898267746,82.7429809570,154.1229248047,0.0242160559,0.0268863291,0.0213149190,22.4522514343,55.7516059875,-157.5780792236,0.0702579021,0.0027603507,0.0065434575,
1619.733,-3.2043321133,1.3177478313,168.9038543701,0.0610829517,0.0407455228,0.0032937527,-113.7729721069,73.2690658569,-69.3725509644,0.0318859816,0.0553287864,0.0148663372,-4.3833522797,82.7437133789,154.1412963867,0.0203114152,0.0254061073,0.0271856785,22.4538917542,55.7536582947,-157.5742034912,0.0780905485,0.0037334412,-0.0046524405,
1619.743,-3.2055554390,1.3178842068,168.9038543701,0.0571790785,0.0446730852,0.0047597885,-113.7676239014,73.2715835571,-69.3606414795,0.0358048677,0.0616483092,0.0123833716,-4.3962655067,82.7437438965,154.1373901367,0.0198231936,0.0195755363,0.0227924585,22.4548988342,55.7546043396,-157.5708618164,0.0756584406,0.0027528405,-0.0031721592,
1619.753,-3.2069530487,1.3209844828,168.9049072266,0.0557683297,0.0417676717,0.0096452832,-113.7764663696,73.2720642090,-69.3612060547,0.0323893428,0.0552752018,0.0041201711,-4.3998155594,82.7433395386,154.1413726807,0.0286113620,0.0249550790,0.0208329558,22.4557476044,55.7552871704,-157.5667114258,0.0761533976,0.0047020316,0.0041645765,
1619.763,-3.2056467533,1.3214970827,168.9054260254,0.0582186803,0.0427214615,0.0076911449,-113.7781295776,73.2744216919,-69.3581924438,0.0241003633,0.0640255809,0.0089947581,-4.3904156685,82.7432022095,154.1576385498,0.0271462202,0.0283522308,0.0266894102,22.4496288300,55.7556877136,-157.5692749023,0.0698096752,-0.0045174807,0.0129361749,
1619.773,-3.2063972950,1.3216745853,168.9046936035,0.0611514673,0.0378517210,0.0037857890,-113.7568511963,73.2739562988,-69.3343963623,0.0309339762,0.0547984242,0.0206184387,-4.3822441101,82.7433929443,154.1739959717,0.0251935124,0.0263806432,0.0218085647,22.4498195648,55.7555885315,-157.5661773682,0.0761563778,0.0037809610,0.0080527663,
1619.783,-3.2065372467,1.3218240738,168.9052581787,0.0592009500,0.0442018136,-0.0006089807,-113.7360610962,73.2719268799,-69.3123474121,0.0319003463,0.0529184341,0.0190713629,-4.3902082443,82.7431488037,154.1729888916,0.0251929760,0.0249339342,0.0271754861,22.4517841339,55.7572898865,-157.5627593994,0.0737316608,0.0071904510,0.0027115941,
1619.793,-3.2060439587,1.3221737146,168.9051971436,0.0587187707,0.0441932157,0.0091569424,-113.7408447266,73.2666015625,-69.3143844604,0.0313853025,0.0564078391,-0.0033318549,-4.3978505135,82.7413635254,154.1723937988,0.0266538858,0.0205586702,0.0232416987,22.4523487091,55.7556266785,-157.5601196289,0.0795747042,0.0091293007,0.0095275044,
1619.803,-3.2039933205,1.3228472471,168.9057922363,0.0572656766,0.0475754403,-0.0040291548,-113.7327728271,73.2652511597,-69.3046035767,0.0264956951,0.0608394742,0.0103118792,-4.4029102325,82.7382278442,154.1742401123,0.0261586905,0.0254568607,0.0261188745,22.4514999390,55.7575988770,-157.5588531494,0.0732464194,0.0047533661,-0.0060744286,
1619.813,-3.2029192448,1.3229550123,168.9076080322,0.0558027141,0.0416973531,0.0145251751,-113.7375640869,73.2613220215,-69.3070449829,0.0318470597,0.0589363873,0.0025478750,-4.4066967964,82.7387695313,154.1789245605,0.0242067575,0.0171638280,0.0246636868,22.4564838409,55.7590866089,-157.5508575439,0.0766789913,0.0086225122,-0.0099419951,
1619.823,-3.2015578747,1.3217942715,168.9087829590,0.0621301159,0.0406970978,0.0096401572,-113.7401580811,73.2600173950,-69.3066711426,0.0303756595,0.0613924861,0.0128224641,-4.4035387039,82.7393341064,154.1902465820,0.0212783217,0.0264334232,0.0232075453,22.4548206329,55.7595634460,-157.5484924316,0.0742422938,0.0042457581,0.0003120899,
1619.833,-3.2012188435,1.3209187984,168.9093322754,0.0626031235,0.0416677706,-0.0045204759,-113.7321090698,73.2585601807,-69.2962951660,0.0362277031,0.0604537725,0.0181662291,-4.4043521881,82.7393646240,154.1964263916,0.0246963501,0.0239937752,0.0241849422,22.4578418732,55.7581825256,-157.5419464111,0.0771583915,0.0125114769,0.0017697811,
1619.843,-3.2010128498,1.3210161924,168.9092559814,0.0616282597,0.0475235581,0.0057332516,-113.7273788452,73.2581939697,-69.2848510742,0.0376906991,0.0633996129,0.0186350718,-4.3949885368,82.7379302979,154.2127685547,0.0276228786,0.0259278864,0.0226943493,22.4584827423,55.7579345703,-157.5368652344,0.0791090727,0.0071331859,-0.0026257634,
1619.853,-3.2010607719,1.3213332891,168.9104003906,0.0591923855,0.0421532989,0.0125694871,-113.7354736328,73.2562026978,-69.2874984741,0.0284033418,0.0580419004,0.0089202523,-4.3993353844,82.7385482788,154.2147064209,0.0266476870,0.0264250785,0.0197755694,22.4572372437,55.7534866333,-157.5362396240,0.0800419450,0.0090731382,0.0114706755,
1619.863,-3.2027673721,1.3209921122,168.9122009277,0.0591864362,0.0407181941,0.0042698383,-113.7451934814,73.2571868896,-69.2917404175,0.0284082890,0.0614259243,0.0094466954,-4.3886289597,82.7381744385,154.2347869873,0.0256702900,0.0278665572,0.0217202902,22.4548606873,55.7544326782,-157.5361175537,0.0761449933,0.0032405108,-0.0007332563,
1619.873,-3.2029783726,1.3220595121,168.9127349854,0.0562753715,0.0416984074,0.0076887608,-113.7474441528,73.2596282959,-69.2879028320,0.0269557238,0.0584540367,0.0123704225,-4.3914971352,82.7369308472,154.2400665283,0.0217612982,0.0254331827,0.0290237069,22.4593276978,55.7556114197,-157.5285034180,0.0810393691,0.0071128011,-0.0016763210,
1619.883,-3.2040102482,1.3237167597,168.9127197266,0.0519097596,0.0431811847,0.0062252283,-113.7544860840,73.2640380859,-69.2880477905,0.0279544592,0.0622780323,0.0094437152,-4.3993101120,82.7375259399,154.2397918701,0.0266454220,0.0254498422,0.0197573900,22.4546756744,55.7553215027,-157.5294647217,0.0737123489,0.0012939274,0.0066019297,
1619.893,-3.2028694153,1.3258187771,168.9138793945,0.0548761189,0.0485323556,0.0062252283,-113.7570495605,73.2715606689,-69.2837295532,0.0260391235,0.0650897920,0.0133110881,-4.3888187408,82.7375564575,154.2596282959,0.0271337628,0.0278678387,0.0285450220,22.4557132721,55.7561111450,-157.5246887207,0.0698138475,0.0051952302,0.0100354552,
