Time(sec),Gyr1_X(deg/sec),Gyr1_Y(deg/sec),Gyr1_Z(deg/sec),Acc1_X(m/s^2),Acc1_Y(m/s^2),Acc1_Z(m/s^2),Gyr2_X(deg/sec),Gyr2_Y(deg/sec),Gyr2_Z(deg/sec),Acc2_X(m/s^2),Acc2_Y(m/s^2),Acc2_Z(m/s^2),Gyr_X(deg/sec),Gyr_Y(deg/sec),Gyr_Z(deg/sec),Acc_X(m/s^2),Acc_Y(m/s^2),Acc_Z(m/s^2),Gyr_X(deg/sec),Gyr_Y(deg/sec),Gyr_Z(deg/sec),Acc_X(m/s^2),Acc_Y(m/s^2),Acc_Z(m/s^2),
379.103,-3.2699177265,1.3983830214,43.4164581299,0.0585836545,0.0428627394,0.0019266009,-104.0597534180,-9.0269804001,82.2095413208,-0.0470362902,-0.0524175167,-0.0002335310,-56.8249855042,84.7714538574,-121.6014022827,0.0143938065,0.0275843740,0.0298243463,43.2280044556,41.0439414978,-113.7300338745,0.0721649528,-0.0166578293,-0.0047223568,
379.113,-3.2680618763,1.3982677460,43.4176406860,0.0585816428,0.0423421301,0.0136436224,-104.0541152954,-9.0109586716,82.1982803345,-0.0443187058,-0.0518631935,0.0016359687,-56.7966041565,84.7723464966,-121.5653915405,0.0187897682,0.0251044035,0.0258879364,43.2232704163,41.0455131531,-113.7266082764,0.0673028827,-0.0151352286,-0.0067049861,
379.123,-3.2667436600,1.3980733156,43.4194183350,0.0610196590,0.0447605811,0.0102243423,-104.0473709106,-8.9947366714,82.1879196167,-0.0435507596,-0.0571632981,0.0073937178,-56.7790298462,84.7734375000,-121.5396881104,0.0226977468,0.0260497928,0.0288037658,43.2218856812,41.0439758301,-113.7219085693,0.0682592392,-0.0107394457,-0.0023356676,
379.133,-3.2655572891,1.3993613720,43.4199218750,0.0576241612,0.0422984771,0.0072940588,-104.0488739014,-8.9792356491,82.1802978516,-0.0413304269,-0.0527337790,0.0044990182,-56.7805366516,84.7776031494,-121.5334320068,0.0139153004,0.0284344852,0.0166366100,43.2198524475,41.0442733765,-113.7177429199,0.0726577044,-0.0160886645,-0.0023514032,
379.143,-3.2658045292,1.3984768391,43.4198722839,0.0610266924,0.0393731222,0.0131533742,-104.0505218506,-8.9654083252,82.1718139648,-0.0445100367,-0.0585637689,0.0089305341,-56.7707557678,84.7788772583,-121.5147018433,0.0251477957,0.0215703249,0.0220074356,43.2166900635,41.0456237793,-113.7124786377,0.0653511882,-0.0136063695,0.0005609989,
379.153,-3.2669553757,1.4007784128,43.4197120667,0.0561840422,0.0384165421,0.0102254152,-104.0543518066,-8.9554691315,82.1620254517,-0.0409207046,-0.0580651164,-0.0022296011,-56.7360877991,84.7780838013,-121.4689254761,0.0139160752,0.0235055685,0.0365994871,43.2152824402,41.0446624756,-113.7071304321,0.0653386116,-0.0116472244,-0.0004361868,
379.163,-3.2673628330,1.3995171785,43.4214782715,0.0644628182,0.0452596061,0.0024134517,-104.0554504395,-8.9423666000,82.1530075073,-0.0446010232,-0.0604768991,-0.0036671460,-56.7435379028,84.7779388428,-121.4667282104,0.0207517743,0.0186301470,0.0204963088,43.2129669189,41.0463104248,-113.7009201050,0.0682899356,-0.0145417452,-0.0058145523,
379.173,-3.2670304775,1.3999122381,43.4220542908,0.0586103350,0.0457420871,0.0072955489,-104.0562515259,-8.9319896698,82.1423492432,-0.0390510261,-0.0550816059,-0.0021822453,-56.7150077820,84.7788009644,-121.4287796021,0.0192883015,0.0229879916,0.0287650526,43.2117919922,41.0464324951,-113.6943054199,0.0643853545,-0.0111115575,-0.0038708448,
379.183,-3.2655627728,1.3996157646,43.4238281250,0.0615348518,0.0452282578,0.0146184564,-104.0538253784,-8.9221420288,82.1308364868,-0.0452288985,-0.0511393547,0.0012015700,-56.7064857483,84.7790298462,-121.4116592407,0.0144058466,0.0239529014,0.0370571911,43.2134742737,41.0436477661,-113.6862106323,0.0731377602,-0.0072432756,-0.0077853799,
379.193,-3.2645139694,1.4018481970,43.4261131287,0.0591323972,0.0437450930,0.0121765137,-104.0532989502,-8.9121341705,82.1185913086,-0.0435914993,-0.0564821959,-0.0007536113,-56.7029075623,84.7771530151,-121.4005813599,0.0144028664,0.0210465789,0.0331285596,43.2105941772,41.0432891846,-113.6818618774,0.0697150230,-0.0169841051,-0.0009784102,
379.203,-3.2648756504,1.4018340111,43.4278106689,0.0625501126,0.0388685763,0.0107123852,-104.0502929688,-8.9047307968,82.1074905396,-0.0449286997,-0.0530316830,0.0055479407,-56.6830711365,84.7779769897,-121.3738479614,0.0207518339,0.0254115760,0.0296912491,43.2106246948,41.0412406921,-113.6784362793,0.0760357380,-0.0096762180,-0.0039249659,
379.213,-3.2644746304,1.4034541845,43.4270935059,0.0562307313,0.0417912379,0.0077830553,-104.0476226807,-8.8994207382,82.0944976807,-0.0414191484,-0.0525188446,-0.0037698448,-56.6731758118,84.7802276611,-121.3573760986,0.0192905664,0.0209773779,0.0204203129,43.2102890015,41.0408973694,-113.6741790771,0.0648007393,-0.0101640224,-0.0024659634,
379.223,-3.2661170959,1.4013088942,43.4264526367,0.0649823621,0.0432847403,0.0038775206,-104.0462036133,-8.8929491043,82.0813598633,-0.0457020998,-0.0534720421,0.0006044209,-56.6661300659,84.7803802490,-121.3439178467,0.0178259611,0.0214549005,0.0272503197,43.2109260559,41.0416412354,-113.6689758301,0.0682284832,-0.0111408234,-0.0058716536,
379.233,-3.2662158012,1.3998162746,43.4270439148,0.0630031973,0.0442630611,0.0053418875,-104.0442352295,-8.8884172440,82.0661621094,-0.0451356769,-0.0529641509,-0.0008896589,-56.6307907104,84.7810897827,-121.3029937744,0.0163622499,0.0267870724,0.0345303416,43.2106857300,41.0416412354,-113.6636962891,0.0677402020,-0.0140681863,-0.0029442906,
379.243,-3.2666425705,1.4005029202,43.4274444580,0.0664331466,0.0408525132,0.0141314864,-104.0432434082,-8.8857126236,82.0497589111,-0.0441124737,-0.0544174314,-0.0077410638,-56.6165771484,84.7813491821,-121.2823104858,0.0192923546,0.0209094882,0.0247493386,43.2112426758,41.0400581360,-113.6586227417,0.0745552778,-0.0116445422,-0.0024641752,
379.253,-3.2662978172,1.3986105919,43.4280738831,0.0624938756,0.0457293652,0.0116891861,-104.0362625122,-8.8845386505,82.0326843262,-0.0436039567,-0.0543856621,0.0004443824,-56.6046066284,84.7793273926,-121.2633514404,0.0197774172,0.0243456960,0.0266670287,43.2128601074,41.0374031067,-113.6531448364,0.0725672245,-0.0082629323,-0.0039366484,
379.263,-3.2683563232,1.3985223770,43.4292144775,0.0605392121,0.0394175649,0.0107140541,-104.0311203003,-8.8839120865,82.0177917480,-0.0489642322,-0.0533856153,0.0067058504,-56.5994300842,84.7784271240,-121.2513046265,0.0192877054,0.0243530869,0.0310466588,43.2155723572,41.0343971252,-113.6458435059,0.0749690533,-0.0039180517,-0.0063788295,
379.273,-3.2688710690,1.3983103037,43.4285316467,0.0585823879,0.0384499803,0.0146214962,-104.0289688110,-8.8856868744,82.0021591187,-0.0499714017,-0.0553343892,-0.0055382848,-56.5848731995,84.7789535522,-121.2285690308,0.0231947899,0.0238450468,0.0290779471,43.2188720703,41.0349197388,-113.6386337280,0.0627689362,-0.0063869953,-0.0053681135,
379.283,-3.2686061859,1.3977094889,43.4291229248,0.0600367486,0.0433281921,0.0097374916,-104.0260925293,-8.8899135590,81.9859924316,-0.0476028621,-0.0621696115,0.0022236407,-56.5553550720,84.7797012329,-121.1896514893,0.0163600445,0.0252714455,0.0290459096,43.2189292908,41.0317153931,-113.6316223145,0.0798165798,-0.0112954974,-0.0063710213,
379.293,-3.2713885307,1.4002133608,43.4283523560,0.0556859002,0.0389820710,0.0214602947,-104.0257492065,-8.8931846619,81.9727172852,-0.0515655279,-0.0558288097,-0.0041322112,-56.5583343506,84.7811279297,-121.1844863892,0.0227099657,0.0272088647,0.0271085799,43.2210617065,41.0318870544,-113.6230163574,0.0676118135,-0.0083849430,-0.0058621168,
379.303,-3.2702610493,1.4005469084,43.4302062988,0.0547151603,0.0462866426,0.0048578978,-104.0255508423,-8.9036388397,81.9593963623,-0.0414918959,-0.0558553934,-0.0070720017,-56.5664710999,84.7787246704,-121.1825790405,0.0163584948,0.0184590816,0.0290520191,43.2190170288,41.0303153992,-113.6187133789,0.0651496649,-0.0122839212,-0.0014989376,
379.313,-3.2706899643,1.3992377520,43.4314689636,0.0605516881,0.0472707041,0.0112050176,-104.0251159668,-8.9144458771,81.9471511841,-0.0460727513,-0.0568584204,-0.0080630779,-56.5750503540,84.7803039551,-121.1829986572,0.0246617794,0.0267470181,0.0251706541,43.2223129272,41.0299034119,-113.6114959717,0.0641677380,-0.0074359179,-0.0063555837,
379.323,-3.2689564228,1.4008778334,43.4320526123,0.0522795245,0.0462638997,0.0136461258,-104.0166549683,-8.9245786667,81.9338378906,-0.0442943573,-0.0597795844,0.0093671083,-56.5778579712,84.7806396484,-121.1788482666,0.0202677846,0.0223490894,0.0285966396,43.2210807800,41.0294647217,-113.6052856445,0.0656268001,-0.0176814198,-0.0083235502,
379.333,-3.2699508667,1.4003621340,43.4338569641,0.0600830317,0.0409101471,0.0126694441,-104.0105819702,-8.9361486435,81.9204635620,-0.0420524478,-0.0549017787,0.0014453530,-56.5778884888,84.7799301147,-121.1688995361,0.0236846209,0.0262676775,0.0280998945,43.2199859619,41.0277252197,-113.5998306274,0.0739046335,-0.0157314539,-0.0024886131,
379.343,-3.2694461346,1.4018080235,43.4355354309,0.0596199781,0.0418778807,0.0121821165,-104.0029220581,-8.9450969696,81.9085388184,-0.0480660796,-0.0539168119,0.0061940551,-56.5970382690,84.7798538208,-121.1792984009,0.0202665329,0.0233523846,0.0271519721,43.2228126526,41.0286483765,-113.5900039673,0.0626863241,-0.0098920465,-0.0107561350,
379.353,-3.2684714794,1.3995698690,43.4367446899,0.0659285784,0.0457672030,0.0102264881,-104.0011978149,-8.9555187225,81.8983764648,-0.0448278189,-0.0417299271,-0.0006776750,-56.5839080811,84.7789154053,-121.1561126709,0.0236830115,0.0214044750,0.0280986428,43.2196617126,41.0280952454,-113.5853805542,0.0617024899,-0.0152372122,-0.0000469685,
379.363,-3.2708084583,1.3976604939,43.4379386902,0.0644304156,0.0428782739,0.0014390945,-104.0021667480,-8.9659404755,81.8897628784,-0.0445191860,-0.0515273809,0.0061679184,-56.5993156433,84.7792892456,-121.1620864868,0.0212422013,0.0228764117,0.0256830454,43.2212295532,41.0309638977,-113.5778579712,0.0612519383,-0.0157181025,-0.0107511282,
379.373,-3.2715654373,1.4007232189,43.4402084351,0.0561830774,0.0438679494,0.0112066269,-104.0050811768,-8.9771795273,81.8825531006,-0.0452012420,-0.0486391783,0.0096268058,-56.6100578308,84.7813186646,-121.1651687622,0.0212454200,0.0233464539,0.0237628222,43.2235717773,41.0307350159,-113.5697937012,0.0729677081,-0.0035352707,-0.0043841004,
379.383,-3.2708525658,1.3995376825,43.4420585632,0.0600686446,0.0448321216,0.0063226223,-104.0102767944,-8.9890260696,81.8770828247,-0.0434523225,-0.0516220331,-0.0010358393,-56.6169166565,84.7808303833,-121.1655960083,0.0153852701,0.0189637542,0.0271865726,43.2215232849,41.0324478149,-113.5642471313,0.0695723295,-0.0113146901,0.0009827614,
379.393,-3.2731881142,1.3990248442,43.4437675476,0.0644542277,0.0404782854,0.0146257877,-104.0088806152,-9.0003929138,81.8724822998,-0.0416951478,-0.0550640821,0.0028390884,-56.6264038086,84.7818756104,-121.1699371338,0.0124572515,0.0243282020,0.0257447660,43.2231979370,41.0353431702,-113.5581054688,0.0578916669,-0.0137494802,-0.0072789192,
379.403,-3.2716164589,1.3970772028,43.4467430115,0.0693030581,0.0477751829,0.0038812160,-104.0042877197,-9.0083379745,81.8651504517,-0.0457383692,-0.0501836538,-0.0065196455,-56.6268005371,84.7836761475,-121.1628875732,0.0144132376,0.0282108486,0.0296669304,43.2262687683,41.0380134583,-113.5505752563,0.0618330836,-0.0093634129,-0.0135763288,
379.413,-3.2730579376,1.3978341818,43.4460029602,0.0615037642,0.0438940115,0.0107188225,-103.9986724854,-9.0125579834,81.8585662842,-0.0492290854,-0.0511474609,0.0046134293,-56.6273269653,84.7845077515,-121.1552429199,0.0178325176,0.0262455344,0.0267466605,43.2273559570,41.0360641479,-113.5427856445,0.0705965161,-0.0118305087,0.0015538335,
379.423,-3.2724175453,1.3984225988,43.4446334839,0.0639554411,0.0448594093,0.0063238144,-103.9953079224,-9.0111541748,81.8505630493,-0.0531111360,-0.0467354655,-0.0037424564,-56.6224403381,84.7824020386,-121.1416244507,0.0183174610,0.0252942741,0.0296500921,43.2289161682,41.0333900452,-113.5356369019,0.0744675398,-0.0113782287,-0.0038254261,
379.433,-3.2732949257,1.4006388187,43.4463195801,0.0566698909,0.0414566733,0.0043724775,-103.9927368164,-9.0076427460,81.8415985107,-0.0462146699,-0.0398795009,0.0103771985,-56.6187705994,84.7809448242,-121.1279754639,0.0183151364,0.0228703022,0.0306079388,43.2299690247,41.0362129211,-113.5268630981,0.0618093610,-0.0094130635,-0.0111165047,
379.443,-3.2731256485,1.3993841410,43.4475059509,0.0625073761,0.0429185964,0.0112078190,-103.9894943237,-9.0029277802,81.8306198120,-0.0446685255,-0.0481541753,0.0030016005,-56.6055335999,84.7811279297,-121.1035537720,0.0222216845,0.0233438611,0.0301034451,43.2299270630,41.0372772217,-113.5184631348,0.0623116493,-0.0108691454,-0.0072017908,
379.453,-3.2748751640,1.3996173143,43.4492225647,0.0595817491,0.0361131243,0.0121863484,-103.9883651733,-8.9952907562,81.8198776245,-0.0460017323,-0.0476408005,-0.0023835599,-56.5930938721,84.7830047607,-121.0815429688,0.0202715397,0.0233058929,0.0222917497,43.2323150635,41.0402755737,-113.5090026855,0.0667456388,-0.0152631998,-0.0149683952,
379.463,-3.2743146420,1.3990752697,43.4491958618,0.0615254194,0.0487986915,0.0004665852,-103.9879074097,-8.9893550873,81.8115234375,-0.0493173599,-0.0456702709,0.0015192330,-56.5725669861,84.7844314575,-121.0497131348,0.0222269297,0.0237560570,0.0256946981,43.2301635742,41.0418052673,-113.5035400391,0.0672540665,-0.0093710423,-0.0086265802,
379.473,-3.2743782997,1.3993568420,43.4490966797,0.0610420480,0.0444052592,0.0077912807,-103.9871826172,-8.9841976166,81.8042068481,-0.0443456471,-0.0563958287,0.0029753447,-56.5595436096,84.7875213623,-121.0276641846,0.0158841610,0.0241895020,0.0183812380,43.2281837463,41.0430717468,-113.4980087280,0.0667824745,-0.0108070374,-0.0105876923,
379.483,-3.2740468979,1.3996685743,43.4509086609,0.0571412407,0.0434229188,0.0116968155,-103.9889907837,-8.9780368805,81.7977676392,-0.0432628989,-0.0519925356,-0.0096856654,-56.5460624695,84.7898483276,-121.0040512085,0.0193058252,0.0270729363,0.0218037367,43.2249641418,41.0439567566,-113.4947586060,0.0643527508,-0.0107690692,-0.0008429289,
379.493,-3.2734735012,1.3995449543,43.4509086609,0.0581156462,0.0487840287,0.0058371425,-103.9886627197,-8.9700527191,81.7924118042,-0.0426369607,-0.0461106896,-0.0018733740,-56.5350875854,84.7901458740,-120.9847183228,0.0154000521,0.0202228427,0.0227681994,43.2249641418,41.0429840088,-113.4885177612,0.0697109699,-0.0127299428,-0.0067110062,
379.503,-3.2735588551,1.4001775980,43.4519882202,0.0625212193,0.0419495665,0.0165798068,-103.9887619019,-8.9599714279,81.7873306274,-0.0405100286,-0.0480375290,0.0054590106,-56.5186691284,84.7912445068,-120.9638061523,0.0178431869,0.0245890021,0.0281256735,43.2248191833,41.0440521240,-113.4826507568,0.0619125366,-0.0146732330,-0.0096327066,
379.513,-3.2755057812,1.4013434649,43.4536437988,0.0605884343,0.0375889130,0.0116993189,-103.9917297363,-8.9447145462,81.7827606201,-0.0475712121,-0.0465447903,0.0045419931,-56.5125923157,84.7910461426,-120.9512939453,0.0217491388,0.0245847404,0.0232340693,43.2233734131,41.0471305847,-113.4791641235,0.0580468178,-0.0156118870,-0.0042495131,
379.523,-3.2767801285,1.4007476568,43.4548110962,0.0600897558,0.0400525331,0.0082824230,-103.9968872070,-8.9299087524,81.7806625366,-0.0438979864,-0.0450627804,0.0026852787,-56.4652366638,84.7928619385,-120.8962707520,0.0212637186,0.0264716744,0.0251382291,43.2275009155,41.0462684631,-113.4720687866,0.0731722116,-0.0044276714,-0.0091019869,
379.533,-3.2746005058,1.4003736973,43.4560012817,0.0615480766,0.0478270799,0.0107213259,-103.9995803833,-8.9139118195,81.7815628052,-0.0504581034,-0.0630984306,0.0095767975,-56.4201965332,84.7960891724,-120.8453445435,0.0212688446,0.0219895542,0.0251086950,43.2268753052,41.0488128662,-113.4675903320,0.0678346157,-0.0097727180,-0.0071330070,
379.543,-3.2743194103,1.4007303715,43.4583206177,0.0635074228,0.0453807600,0.0102330446,-103.9978561401,-8.9012432098,81.7859802246,-0.0521927774,-0.0542688370,0.0095559359,-56.3502349854,84.7982788086,-120.7684326172,0.0173660517,0.0253135562,0.0323587358,43.2218322754,41.0531425476,-113.4666442871,0.0674033165,-0.0160381198,-0.0042132139,
379.553,-3.2734267712,1.4020050764,43.4588356018,0.0576702878,0.0434120633,0.0073029995,-103.9919586182,-8.8903303146,81.7924728394,-0.0520045757,-0.0649576187,0.0148352087,-56.3031692505,84.8016738892,-120.7137527466,0.0154182911,0.0266882479,0.0264674425,43.2190513611,41.0566673279,-113.4633407593,0.0669614077,-0.0096360445,-0.0100674629,
379.563,-3.2742040157,1.3995544910,43.4587631226,0.0683697164,0.0419608131,0.0053496361,-103.9893798828,-8.8821506500,81.8012237549,-0.0503987074,-0.0541836023,0.0060087144,-56.2574424744,84.8032531738,-120.6567306519,0.0159090757,0.0222296417,0.0303271115,43.2147102356,41.0567970276,-113.4588546753,0.0601271987,-0.0100817680,0.0089369416,
379.573,-3.2750852108,1.3972127438,43.4599723816,0.0639343262,0.0414879359,0.0048611760,-103.9886550903,-8.8732900620,81.8110961914,-0.0492693484,-0.0575753450,0.0035608709,-56.2474327087,84.8062667847,-120.6347427368,0.0144490004,0.0260844529,0.0205762684,43.2106781006,41.0540161133,-113.4550628662,0.0688796639,-0.0125062466,0.0010649562,
379.583,-3.2735459805,1.3972108364,43.4593238831,0.0595397651,0.0458556563,0.0009532571,-103.9889678955,-8.8651628494,81.8223037720,-0.0461995006,-0.0502312183,0.0021066070,-56.2404479980,84.8098907471,-120.6164474487,0.0193375349,0.0270055234,0.0225525200,43.2077064514,41.0529403687,-113.4495773315,0.0586116314,-0.0115095377,0.0024944544,
379.593,-3.2747197151,1.3968503475,43.4598884583,0.0590451919,0.0405050218,0.0053488612,-103.9913558960,-8.8604221344,81.8344116211,-0.0466060340,-0.0526702404,0.0011731982,-56.2113265991,84.8081512451,-120.5754547119,0.0159168243,0.0230952501,0.0298230648,43.2086067200,41.0528030396,-113.4396057129,0.0698402524,-0.0115193129,-0.0072644949,
379.603,-3.2751667500,1.3972181082,43.4616165161,0.0610047355,0.0429542027,0.0048613548,-103.9905700684,-8.8568382263,81.8472442627,-0.0441028178,-0.0521693230,0.0021388531,-56.1857185364,84.8064956665,-120.5372695923,0.0251915455,0.0162615776,0.0287944674,43.2083663940,41.0501403809,-113.4333953857,0.0741997361,-0.0139792562,-0.0107068419,
379.613,-3.2752044201,1.3968856335,43.4639625549,0.0614872128,0.0400251821,0.0063260794,-103.9888763428,-8.8572721481,81.8609542847,-0.0402040482,-0.0521631241,-0.0008197725,-56.1785163879,84.8079986572,-120.5192794800,0.0232408047,0.0220911801,0.0234296322,43.2055397034,41.0505828857,-113.4295043945,0.0678579211,-0.0134603977,-0.0073106289,
379.623,-3.2759926319,1.3970297575,43.4645156860,0.0595366061,0.0439451598,0.0087684393,-103.9820251465,-8.8564805984,81.8746795654,-0.0440966487,-0.0570157766,-0.0033749044,-56.1244392395,84.8076248169,-120.4576568604,0.0188456774,0.0215609968,0.0331172943,43.2026100159,41.0507659912,-113.4243316650,0.0673720241,-0.0114777684,-0.0029411316,
379.633,-3.2734279633,1.3953789473,43.4657211304,0.0639023334,0.0448770896,0.0112060308,-103.9746627808,-8.8578701019,81.8886642456,-0.0455854535,-0.0525939465,0.0067544281,-56.1134757996,84.8080749512,-120.4396438599,0.0188463926,0.0230080485,0.0257839262,43.2056694031,41.0542678833,-113.4169845581,0.0630235672,-0.0105030537,-0.0077667236,
379.643,-3.2716772556,1.3951884508,43.4675636292,0.0565747917,0.0463114418,0.0058337450,-103.9715499878,-8.8585414886,81.9057235718,-0.0504798591,-0.0491647720,-0.0020870864,-56.0844879150,84.8086090088,-120.4053955078,0.0247066021,0.0195579827,0.0257484615,43.2035140991,41.0568161011,-113.4117889404,0.0591508150,-0.0129038095,-0.0014172792,
379.653,-3.2719774246,1.3952466249,43.4681396484,0.0575523674,0.0414338559,0.0043687224,-103.9672775269,-8.8570041656,81.9215087891,-0.0524064600,-0.0501197577,0.0173739195,-56.0622634888,84.8076705933,-120.3762207031,0.0159160495,0.0210142434,0.0315704942,43.2074203491,41.0560188293,-113.4042205811,0.0698825717,-0.0065999627,-0.0077371001,
379.663,-3.2710916996,1.3948405981,43.4705162048,0.0619398132,0.0453246795,0.0116921663,-103.9709625244,-8.8568944931,81.9371948242,-0.0431272388,-0.0486696959,-0.0006311238,-56.0408554077,84.8077774048,-120.3466033936,0.0149396658,0.0234357119,0.0281237066,43.2083168030,41.0559082031,-113.3981552124,0.0664631128,-0.0105155706,-0.0033347011,
379.673,-3.2698140144,1.3961707354,43.4740715027,0.0580567718,0.0423727036,0.0063203573,-103.9721221924,-8.8572578430,81.9541549683,-0.0465514660,-0.0530701876,0.0062242746,-56.0156555176,84.8077011108,-120.3126983643,0.0212872028,0.0243896842,0.0329726934,43.2058143616,41.0555114746,-113.3924560547,0.0659695864,-0.0129362345,-0.0009199381,
379.683,-3.2703111172,1.3953984976,43.4746437073,0.0604847036,0.0428696647,0.0053439140,-103.9710998535,-8.8589687347,81.9709854126,-0.0499989390,-0.0623477101,0.0076708794,-55.9964523315,84.8044586182,-120.2841720581,0.0207937956,0.0229526162,0.0334045887,43.2072029114,41.0592308044,-113.3849105835,0.0660185814,-0.0134084821,-0.0150356889,
379.693,-3.2709221840,1.3964568377,43.4757652283,0.0585500449,0.0423920043,0.0072982311,-103.9690704346,-8.8659372330,81.9881210327,-0.0403534770,-0.0569863915,0.0012847781,-55.9995689392,84.8066101074,-120.2772064209,0.0193323493,0.0253671706,0.0241513252,43.2045440674,41.0606079102,-113.3792419434,0.0616421700,-0.0094659328,-0.0003998280,
379.703,-3.2701349258,1.3959711790,43.4770278931,0.0575650111,0.0472611152,0.0082733631,-103.9670562744,-8.8780326843,82.0075759888,-0.0425151885,-0.0579863787,-0.0046158731,-55.9973030090,84.8083877563,-120.2635192871,0.0242179632,0.0258286893,0.0178173482,43.2060661316,41.0585441589,-113.3717269897,0.0704040527,-0.0090084076,-0.0033329725,
379.713,-3.2709350586,1.3971160650,43.4781684875,0.0561201423,0.0438570566,0.0077871084,-103.9632186890,-8.8912954330,82.0286560059,-0.0437204540,-0.0584930182,-0.0037127137,-56.0102386475,84.8106460571,-120.2693557739,0.0125027895,0.0233659744,0.0207870603,43.2075805664,41.0613212585,-113.3632583618,0.0660461187,-0.0133957863,-0.0076912642,
379.723,-3.2706518173,1.3957699537,43.4793357849,0.0648857206,0.0433638766,0.0087622404,-103.9578018188,-8.9006414413,82.0467987061,-0.0453464687,-0.0501944423,0.0000970960,-56.0214195251,84.8096618652,-120.2718124390,0.0217785835,0.0214374363,0.0315344334,43.2115249634,41.0613174438,-113.3534088135,0.0675109029,-0.0075742006,-0.0115612745,
379.733,-3.2711024284,1.3979667425,43.4798393250,0.0546701401,0.0428833887,0.0151115656,-103.9556503296,-8.9109029770,82.0668792725,-0.0425937176,-0.0502121449,0.0005423725,-56.0341491699,84.8058929443,-120.2794723511,0.0164015293,0.0210136771,0.0315158665,43.2122993469,41.0567054749,-113.3465576172,0.0747744441,-0.0115242004,0.0040313601,
379.743,-3.2710816860,1.3953859806,43.4804763794,0.0624376126,0.0404416844,0.0029029846,-103.9561843872,-8.9209165573,82.0879135132,-0.0456960499,-0.0419400334,0.0112871826,-56.0360145569,84.8050994873,-120.2743911743,0.0178651214,0.0273743272,0.0271160901,43.2081298828,41.0563545227,-113.3424835205,0.0625627637,-0.0183228254,-0.0033326149,
379.753,-3.2700808048,1.3957885504,43.4797592163,0.0624446347,0.0482367389,0.0024144650,-103.9621429443,-8.9332475662,82.1102447510,-0.0385844409,-0.0419971943,-0.0013164878,-56.0482673645,84.8027191162,-120.2806930542,0.0237207413,0.0171648562,0.0202742517,43.2041893005,41.0572319031,-113.3391113281,0.0679454207,-0.0163249373,-0.0014078021,
379.763,-3.2693450451,1.3971493244,43.4814147949,0.0644215047,0.0448059142,0.0170618296,-103.9698181152,-8.9464807510,82.1334533691,-0.0422305763,-0.0542708635,0.0036859214,-56.0608596802,84.8037796021,-120.2873840332,0.0237224102,0.0220457613,0.0202998221,43.2028923035,41.0529785156,-113.3360443115,0.0761902332,-0.0060919523,-0.0009667873,
379.773,-3.2707984447,1.3989176750,43.4836959839,0.0585929826,0.0414132215,0.0116937160,-103.9777297974,-8.9591560364,82.1552886963,-0.0429373682,-0.0562902689,0.0038101077,-56.0338554382,84.8059310913,-120.2533950806,0.0266554952,0.0249180198,0.0280988216,43.2042961121,41.0569801331,-113.3292922974,0.0645241141,-0.0119335651,-0.0126399994,
379.783,-3.2693068981,1.3992797136,43.4855003357,0.0566461757,0.0433403589,0.0014380217,-103.9823455811,-8.9699316025,82.1739044189,-0.0460528433,-0.0548731089,-0.0014908910,-56.0159606934,84.8080444336,-120.2297210693,0.0139635205,0.0190159678,0.0295565426,43.2050437927,41.0565071106,-113.3243103027,0.0694007277,-0.0085263252,-0.0048239231,
379.793,-3.2707300186,1.4002248049,43.4871940613,0.0610571951,0.0438534096,0.0029051304,-103.9845352173,-8.9780769348,82.1893310547,-0.0452167094,-0.0505092144,-0.0024361610,-56.0492820740,84.8081512451,-120.2570877075,0.0193347931,0.0205068290,0.0183744729,43.2047958374,41.0564994812,-113.3178253174,0.0650060773,-0.0143834352,0.0059157014,
379.803,-3.2697925568,1.3983108997,43.4890174866,0.0624886453,0.0413957201,0.0029032230,-103.9844207764,-8.9828176498,82.2027282715,-0.0452984273,-0.0534509420,-0.0048825741,-56.0883445740,84.8071746826,-120.2872161865,0.0173801184,0.0225099921,0.0203700662,43.2087974548,41.0548782349,-113.3088150024,0.0688909888,-0.0115048289,-0.0077336431,
379.813,-3.2692708969,1.3980613947,43.4896049500,0.0585780442,0.0443163179,0.0029026866,-103.9838714600,-8.9869079590,82.2142562866,-0.0429275334,-0.0485765934,0.0014531612,-56.0798187256,84.8041992188,-120.2693939209,0.0203050971,0.0240077376,0.0320503414,43.2131233215,41.0531272888,-113.2991943359,0.0703327656,-0.0105835199,-0.0101506710,
379.823,-3.2687287331,1.3967781067,43.4914245605,0.0629501790,0.0462600403,0.0170617104,-103.9845123291,-8.9929571152,82.2274475098,-0.0430318117,-0.0525016189,0.0039014518,-56.0832710266,84.8052139282,-120.2652435303,0.0222598314,0.0215575397,0.0276679993,43.2124977112,41.0514564514,-113.2921371460,0.0698225498,-0.0081492066,-0.0062639713,
379.833,-3.2673881054,1.3980741501,43.4937744141,0.0580899864,0.0447718129,0.0112016201,-103.9857101440,-9.0018596649,82.2412414551,-0.0480681062,-0.0539951921,-0.0004787445,-56.0775756836,84.8053665161,-120.2530136108,0.0188421011,0.0210608840,0.0227799714,43.2098731995,41.0539436340,-113.2853851318,0.0615544319,-0.0134756565,-0.0043138266,
379.843,-3.2668111324,1.4001395702,43.4935989380,0.0610557050,0.0467148274,0.0029009581,-103.9837951660,-9.0118522644,82.2559051514,-0.0482403338,-0.0510839224,0.0009473562,-56.0719261169,84.8050689697,-120.2397918701,0.0164002180,0.0215493143,0.0286279321,43.2056236267,41.0561828613,-113.2792510986,0.0610956550,-0.0075579286,0.0020143390,
379.853,-3.2652943134,1.3983798027,43.4966163635,0.0644429699,0.0432704836,0.0058283806,-103.9850311279,-9.0234012604,82.2683410645,-0.0484394133,-0.0574673414,0.0024251938,-56.0466423035,84.8072814941,-120.2020645142,0.0173802972,0.0293059051,0.0256867111,43.2037582397,41.0541000366,-113.2722167969,0.0669276118,-0.0041383505,-0.0019261837,
379.863,-3.2652974129,1.3990019560,43.4989929199,0.0561530516,0.0378994346,0.0111998320,-103.9911041260,-9.0357961655,82.2839431763,-0.0501179099,-0.0516660213,-0.0033408999,-56.0412864685,84.8094329834,-120.1860351563,0.0276376009,0.0209717155,0.0281397700,43.2025718689,41.0561180115,-113.2645874023,0.0625596642,-0.0133885145,-0.0058262348,
379.873,-3.2660706043,1.3986343145,43.5001258850,0.0610294417,0.0398660339,-0.0029597282,-103.9945449829,-9.0487117767,82.2992706299,-0.0459460020,-0.0531795621,-0.0008505285,-56.0396347046,84.8139343262,-120.1718063354,0.0188556314,0.0292068422,0.0193920732,43.1980209351,41.0591201782,-113.2586746216,0.0611343384,-0.0108798742,-0.0004712343,
379.883,-3.2675800323,1.3964279890,43.5013771057,0.0614792258,0.0413572192,0.0092479587,-103.9990997314,-9.0643091202,82.3154373169,-0.0447500050,-0.0522637367,-0.0066439211,-56.0476875305,84.8174514771,-120.1698608398,0.0227674246,0.0242822170,0.0262718797,43.1941566467,41.0605049133,-113.2528991699,0.0611525774,-0.0088787675,-0.0034241676,
379.893,-3.2672958374,1.3959720135,43.5026092529,0.0575650260,0.0433054045,0.0116889477,-104.0031051636,-9.0787992477,82.3343582153,-0.0459762812,-0.0547604561,-0.0012153685,-56.0259094238,84.8191146851,-120.1391296387,0.0183755159,0.0242384076,0.0228409171,43.1934623718,41.0625190735,-113.2461547852,0.0592259169,-0.0069032907,-0.0097612143,
379.903,-3.2693839073,1.3986873627,43.5035972595,0.0590772480,0.0394354686,0.0043680072,-104.0056610107,-9.0922555923,82.3514328003,-0.0486496091,-0.0572486520,0.0095607638,-56.0352554321,84.8213424683,-120.1384429932,0.0174024701,0.0261706710,0.0248258710,43.1926765442,41.0603294373,-113.2392883301,0.0709158778,-0.0108190775,-0.0049039125,
379.913,-3.2693803310,1.3995124102,43.5066070557,0.0551853925,0.0423650742,-0.0014910698,-104.0073165894,-9.1064825058,82.3668289185,-0.0430354178,-0.0558285117,0.0007894635,-56.0550460815,84.8198699951,-120.1482543945,0.0188649893,0.0232777894,0.0282581747,43.1909942627,41.0611763000,-113.2328033447,0.0679973364,-0.0137259960,-0.0000290871,
379.923,-3.2707452774,1.3967101574,43.5083999634,0.0658786893,0.0375060998,0.0102279186,-104.0047454834,-9.1211233139,82.3848495483,-0.0437760055,-0.0553687811,0.0022015274,-56.0714645386,84.8189239502,-120.1554412842,0.0134924054,0.0242839754,0.0331527293,43.1880607605,41.0607528687,-113.2280578613,0.0587143898,-0.0127246380,0.0018939376,
379.933,-3.2697789669,1.3983453512,43.5100517273,0.0610244013,0.0413954817,0.0097392797,-104.0032882690,-9.1359605789,82.4030914307,-0.0459848046,-0.0480782986,0.0021672845,-56.0432357788,84.8173751831,-120.1185989380,0.0183727741,0.0291616321,0.0345661342,43.1891670227,41.0590972900,-113.2193679810,0.0718761683,-0.0083537102,-0.0029923320,
379.943,-3.2701580524,1.3990567923,43.5117568970,0.0620133802,0.0453083180,0.0068103075,-104.0041809082,-9.1536865234,82.4249420166,-0.0433605611,-0.0505715013,0.0041238666,-56.0864334106,84.8152542114,-120.1542205811,0.0232522488,0.0209300518,0.0267915130,43.1905136108,41.0590782166,-113.2116699219,0.0674813986,-0.0132495761,-0.0059102178,
379.953,-3.2703065872,1.3978930712,43.5129470825,0.0619930737,0.0418929607,0.0058329105,-104.0058288574,-9.1699190140,82.4450607300,-0.0436402559,-0.0491567850,0.0075578690,-56.0879325867,84.8141632080,-120.1494445801,0.0227622390,0.0268059373,0.0292247534,43.1912307739,41.0597076416,-113.2052536011,0.0645599961,-0.0137398243,-0.0117578506,
379.963,-3.2716801167,1.3993244171,43.5140419006,0.0571352392,0.0419168584,0.0038824081,-104.0083847046,-9.1840867996,82.4640655518,-0.0404663980,-0.0506709814,0.0007557273,-56.1315040588,84.8125381470,-120.1878433228,0.0203182697,0.0195442438,0.0253615379,43.1937141418,41.0594139099,-113.1978225708,0.0635795593,-0.0098597407,-0.0068551898,
379.973,-3.2721595764,1.3988314867,43.5158767700,0.0600563213,0.0448549166,0.0141357183,-104.0124359131,-9.1985521317,82.4824218750,-0.0426687598,-0.0473088026,0.0071609616,-56.1313400269,84.8126144409,-120.1818695068,0.0212949514,0.0239371061,0.0253624320,43.1924858093,41.0555534363,-113.1920242310,0.0747592449,-0.0142726898,-0.0025039911,
379.983,-3.2729396820,1.4005162716,43.5175628662,0.0586208776,0.0438918918,0.0073019266,-104.0163192749,-9.2101764679,82.4972686768,-0.0448221564,-0.0458917618,0.0013588369,-56.1270217896,84.8134384155,-120.1718139648,0.0198314190,0.0263639987,0.0253636837,43.1913757324,41.0562438965,-113.1871414185,0.0659793019,-0.0191394091,0.0033510923,
379.993,-3.2738015652,1.3999240398,43.5180587769,0.0644699186,0.0414655171,0.0141384602,-104.0153579712,-9.2204694748,82.5077514648,-0.0440229177,-0.0488452911,0.0047537684,-56.0990333557,84.8130645752,-120.1382141113,0.0237370729,0.0258541107,0.0331363380,43.1924438477,41.0592384338,-113.1803054810,0.0630890131,-0.0132668018,-0.0078444481,
380.003,-3.2716357708,1.4000986814,43.5191841125,0.0620315559,0.0433809049,0.0180426836,-104.0167312622,-9.2270660400,82.5172576904,-0.0490193665,-0.0522868633,-0.0147590637,-56.0877952576,84.8125381470,-120.1213302612,0.0232479572,0.0239000320,0.0316496491,43.1910667419,41.0624198914,-113.1771240234,0.0665488243,-0.0176231861,-0.0083187222,
380.013,-3.2719769478,1.4013189077,43.5197372437,0.0557051934,0.0433868207,0.0068129897,-104.0122985840,-9.2388696671,82.5231475830,-0.0443398952,-0.0542535782,0.0022486746,-56.0384063721,84.8138961792,-120.0643615723,0.0159258842,0.0257888734,0.0306199193,43.1897888184,41.0642776489,-113.1725616455,0.0612021685,-0.0078307390,-0.0083147287,
380.023,-3.2713813782,1.4029774666,43.5220870972,0.0567106903,0.0443529673,0.0077897310,-104.0060577393,-9.2495889664,82.5254821777,-0.0440362990,-0.0586512089,0.0036018491,-56.0050773621,84.8139724731,-120.0222930908,0.0232502222,0.0262456536,0.0305760205,43.1901588440,41.0619049072,-113.1660766602,0.0738662481,-0.0073646903,-0.0024719238,
380.033,-3.2720963955,1.4007341862,43.5239791870,0.0596012399,0.0419240706,0.0097424984,-104.0018539429,-9.2603864670,82.5299911499,-0.0422691405,-0.0552451015,-0.0042884052,-56.0011444092,84.8145751953,-120.0101623535,0.0203214884,0.0223265588,0.0281356275,43.1926803589,41.0639953613,-113.1590881348,0.0621750355,-0.0088372827,-0.0038964748,
380.043,-3.2704031467,1.4026395082,43.5257453918,0.0557282306,0.0482421853,0.0077884793,-104.0010070801,-9.2703409195,82.5329971313,-0.0424406230,-0.0523390770,-0.0033326745,-56.0112648010,84.8129119873,-120.0128250122,0.0198305845,0.0194299221,0.0349691212,43.1920356750,41.0654640198,-113.1533584595,0.0626826286,-0.0137023330,-0.0019369125,
380.053,-3.2714569569,1.4042035341,43.5286560059,0.0572203696,0.0384948812,0.0097435713,-104.0034866333,-9.2822227478,82.5380401611,-0.0406921506,-0.0499404669,0.0020719767,-56.0171775818,84.8155593872,-120.0110473633,0.0183699131,0.0237924457,0.0218186975,43.1934242249,41.0666313171,-113.1448593140,0.0651394129,-0.0068705678,-0.0038676262,
380.063,-3.2719173431,1.4019594193,43.5293807983,0.0591343381,0.0472920164,0.0029066801,-104.0088729858,-9.2942552567,82.5406570435,-0.0487118959,-0.0548785329,-0.0022408366,-56.0337982178,84.8183593750,-120.0187835693,0.0193508863,0.0242584050,0.0213775039,43.1946182251,41.0678482056,-113.1371231079,0.0617374778,-0.0063842535,-0.0053116679,
380.073,-3.2702286243,1.3998159170,43.5318489075,0.0615383461,0.0438446850,0.0102289319,-104.0144042969,-9.3090133667,82.5433654785,-0.0460364223,-0.0500590801,0.0076071322,-56.0320510864,84.8175964355,-120.0088195801,0.0188614130,0.0227992237,0.0277186334,43.1914825439,41.0662612915,-113.1326522827,0.0665993690,-0.0190619230,0.0029475689,
380.083,-3.2650170326,1.3999016285,43.5336685181,0.0600749925,0.0476601496,0.0111992955,-104.0167617798,-9.3246593475,82.5455551147,-0.0414230824,-0.0657368898,0.0017765462,-56.0694046021,84.8200149536,-120.0366744995,0.0174003839,0.0232914388,0.0214404464,43.1894302368,41.0655212402,-113.1255722046,0.0690310001,-0.0136768818,-0.0029363632,
380.093,-3.2650992870,1.3996299505,43.5348243713,0.0610468127,0.0442436226,0.0068055391,-104.0142745972,-9.3427829742,82.5438156128,-0.0480828583,-0.0608934164,0.0002576113,-56.0686073303,84.8205490112,-120.0282897949,0.0144715309,0.0237679482,0.0273069739,43.1879997253,41.0673255920,-113.1207427979,0.0602657199,-0.0185318589,-0.0019575357,
380.103,-3.2648360729,1.4007166624,43.5366325378,0.0522767156,0.0388679057,0.0121762753,-104.0117492676,-9.3620491028,82.5452270508,-0.0391373038,-0.0575179458,-0.0061454475,-56.1038551331,84.8196411133,-120.0570526123,0.0213060379,0.0189309716,0.0224619508,43.1904449463,41.0695762634,-113.1125946045,0.0632250309,-0.0102369785,-0.0116828680,
380.113,-3.2641172409,1.4044055939,43.5345802307,0.0552707650,0.0408084318,0.0112013817,-104.0062866211,-9.3806085587,82.5459747314,-0.0472694039,-0.0541284084,0.0030279160,-56.1621856689,84.8185043335,-120.1087570190,0.0222808123,0.0146047175,0.0186236799,43.1923942566,41.0711517334,-113.1059265137,0.0671520233,-0.0185439587,-0.0121397972,
380.123,-3.2622785568,1.4053069353,43.5363540649,0.0591927469,0.0466357507,0.0063161850,-104.0040054321,-9.3994646072,82.5432357788,-0.0456409752,-0.0458700657,0.0093241334,-56.1595420837,84.8162384033,-120.1009216309,0.0193475485,0.0175639987,0.0283642709,43.1919708252,41.0712852478,-113.1001281738,0.0681303144,-0.0195155740,-0.0053073764,
380.133,-3.2613320351,1.4041711092,43.5357208252,0.0616143309,0.0436896011,0.0082685947,-104.0078811646,-9.4173717499,82.5412597656,-0.0474141538,-0.0542370081,0.0030295551,-56.1745529175,84.8172225952,-120.1102523804,0.0217905045,0.0278177857,0.0259523094,43.1930770874,41.0699882507,-113.0930480957,0.0715311766,-0.0078175068,-0.0092138052,
380.143,-3.2612609863,1.4052245617,43.5368804932,0.0562616214,0.0427117757,0.0019208193,-104.0120239258,-9.4362602234,82.5398025513,-0.0501807630,-0.0557709932,0.0021083951,-56.1874656677,84.8172225952,-120.1149902344,0.0164194107,0.0234355927,0.0274339616,43.1954956055,41.0717849731,-113.0864791870,0.0700900555,-0.0156391859,-0.0121074319,
380.153,-3.2605302334,1.4039701223,43.5392837524,0.0625873879,0.0426990762,0.0068027973,-104.0117950439,-9.4555187225,82.5339660645,-0.0412349999,-0.0548473597,0.0020918250,-56.2354927063,84.8179016113,-120.1541519165,0.0188618898,0.0215165615,0.0231101513,43.1956901550,41.0721473694,-113.0790100098,0.0608174801,-0.0097786784,-0.0038011074,
380.163,-3.2600793839,1.4039502144,43.5416259766,0.0625870377,0.0417146645,0.0077785254,-104.0072784424,-9.4726495743,82.5253829956,-0.0449478924,-0.0524345636,0.0010275245,-56.2650756836,84.8175201416,-120.1756134033,0.0178847313,0.0195956826,0.0319353044,43.1959457397,41.0679855347,-113.0705032349,0.0715048909,-0.0122552514,-0.0023688078,
380.173,-3.2595016956,1.4037064314,43.5427627563,0.0611179434,0.0421928838,0.0116847754,-104.0034027100,-9.4904022217,82.5154724121,-0.0467183292,-0.0480736494,-0.0058851838,-56.2938156128,84.8156280518,-120.1968688965,0.0159286261,0.0240413249,0.0304926336,43.1964530945,41.0675773621,-113.0644607544,0.0607572794,-0.0107985139,0.0030034184,
380.183,-3.2611820698,1.4018726349,43.5451736450,0.0645039156,0.0407573543,0.0038726330,-103.9975585938,-9.5075626373,82.5034027100,-0.0416426361,-0.0471203923,0.0027938783,-56.3314552307,84.8153305054,-120.2250518799,0.0198343992,0.0245702565,0.0217494369,43.1969909668,41.0640029907,-113.0586929321,0.0699875951,-0.0113199949,0.0010251999,
380.193,-3.2585797310,1.3998912573,43.5463829041,0.0654459074,0.0470597297,0.0209592581,-103.9913711548,-9.5254440308,82.4916458130,-0.0429269969,-0.0500746369,0.0012134612,-56.3470840454,84.8144226074,-120.2331008911,0.0173915625,0.0250835121,0.0256698728,43.1978073120,41.0625686646,-113.0514984131,0.0685039163,-0.0074328780,-0.0063036680,
380.203,-3.2579026222,1.4014394283,43.5493469238,0.0571721382,0.0446064919,0.0063109398,-103.9869232178,-9.5437088013,82.4795532227,-0.0447062254,-0.0457125902,0.0001494884,-56.3628158569,84.8137817383,-120.2412796021,0.0183671117,0.0231547952,0.0276369750,43.2010002136,41.0625495911,-113.0436172485,0.0704568028,-0.0123463273,-0.0121343136,
380.213,-3.2591338158,1.4016207457,43.5516891479,0.0620581135,0.0421865284,0.0126597285,-103.9864807129,-9.5620718002,82.4651489258,-0.0416043103,-0.0467391610,0.0040358603,-56.3543434143,84.8151092529,-120.2253265381,0.0183691978,0.0250798464,0.0320341885,43.2012672424,41.0652084351,-113.0371627808,0.0577964783,-0.0054921508,-0.0038088560,
380.223,-3.2599644661,1.4002072811,43.5523033142,0.0605686083,0.0417127460,0.0048474073,-103.9921951294,-9.5760974884,82.4528808594,-0.0535644293,-0.0443608761,-0.0056442916,-56.3631210327,84.8185806274,-120.2277145386,0.0213043690,0.0294345617,0.0213352442,43.2034454346,41.0676765442,-113.0288085938,0.0632000566,-0.0103765726,-0.0130466223,
380.233,-3.2604265213,1.4017225504,43.5527610779,0.0591302030,0.0407441966,0.0121729374,-103.9943161011,-9.5916976929,82.4365768433,-0.0396727622,-0.0463666916,0.0002394319,-56.3653526306,84.8192977905,-120.2230682373,0.0198406577,0.0255191326,0.0301350653,43.2014427185,41.0662422180,-113.0237731934,0.0719702244,-0.0132982731,-0.0037988424,
380.243,-3.2611920834,1.4022355080,43.5532951355,0.0581625924,0.0397809558,0.0063141584,-103.9960021973,-9.6042852402,82.4190216064,-0.0413542092,-0.0556868315,-0.0012058020,-56.3646583557,84.8201751709,-120.2135238647,0.0213068724,0.0220903754,0.0252575576,43.1990165710,41.0662765503,-113.0187149048,0.0670878887,-0.0142512321,-0.0018671751,
380.253,-3.2612414360,1.4004520178,43.5539054871,0.0620377213,0.0422232673,0.0097315311,-103.9946212769,-9.6133441925,82.3976516724,-0.0415101051,-0.0566829443,-0.0061184466,-56.3579139709,84.8216476440,-120.1992187500,0.0110552907,0.0269444287,0.0277053714,43.1967620850,41.0663948059,-113.0138778687,0.0666011572,-0.0147170424,-0.0043281317,
380.263,-3.2640419006,1.4010359049,43.5524559021,0.0659541637,0.0393423513,0.0024105310,-103.9908065796,-9.6221752167,82.3748779297,-0.0436151922,-0.0557159185,-0.0022815764,-56.3542366028,84.8227386475,-120.1873321533,0.0130101442,0.0205800533,0.0281972885,43.1939735413,41.0643577576,-113.0101470947,0.0704805851,-0.0166593194,0.0000245571,
380.273,-3.2652778625,1.3978549242,43.5517997742,0.0688283443,0.0403405279,0.0092462897,-103.9869232178,-9.6296377182,82.3516998291,-0.0427670479,-0.0503492355,-0.0008877218,-56.3619384766,84.8225555420,-120.1903915405,0.0144746900,0.0235178173,0.0238127410,43.1967887878,41.0629730225,-113.0043258667,0.0729037523,-0.0088847280,-0.0067977905,
380.283,-3.2670371532,1.3971574306,43.5530052185,0.0605153963,0.0447657220,0.0102243423,-103.9878997803,-9.6381521225,82.3290786743,-0.0429135561,-0.0513544083,-0.0077127218,-56.3457908630,84.8227844238,-120.1686477661,0.0183812976,0.0244784057,0.0340454876,43.1977806091,41.0651168823,-112.9974517822,0.0592601299,-0.0069242716,-0.0043294430,
380.293,-3.2651531696,1.3951088190,43.5530281067,0.0629210547,0.0447329506,0.0116863847,-103.9855422974,-9.6439590454,82.3067855835,-0.0474080145,-0.0542907715,0.0044507980,-56.3534202576,84.8248672485,-120.1704254150,0.0164314508,0.0220117569,0.0238238871,43.2011032104,41.0646476746,-112.9909362793,0.0675547123,-0.0089129806,-0.0072330236,
380.303,-3.2655780315,1.3945118189,43.5542373657,0.0580278262,0.0408341177,0.0107101202,-103.9848709106,-9.6519718170,82.2867736816,-0.0441279113,-0.0552870035,0.0039453208,-56.3493041992,84.8231964111,-120.1600112915,0.0198467970,0.0191051066,0.0325887501,43.2009162903,41.0645828247,-112.9857177734,0.0636476278,-0.0103765130,0.0044833422,
380.313,-3.2654867172,1.3941940069,43.5566482544,0.0570457205,0.0383911282,0.0028972626,-103.9882202148,-9.6614398956,82.2654037476,-0.0462439358,-0.0621641874,-0.0116297901,-56.3686904907,84.8231964111,-120.1735229492,0.0183819532,0.0186307132,0.0243172348,43.2037696838,41.0669593811,-112.9780807495,0.0651436448,-0.0138032436,-0.0125609636,
380.323,-3.2647345066,1.3936883211,43.5553855896,0.0614314266,0.0452139750,0.0082673430,-103.9848022461,-9.6706705093,82.2441711426,-0.0498207211,-0.0568046570,0.0039309859,-56.3457870483,84.8235778809,-120.1467514038,0.0164294243,0.0234897435,0.0311239958,43.2074584961,41.0654182434,-112.9707336426,0.0661000013,-0.0109210014,-0.0042397976,
380.333,-3.2656462193,1.3917980194,43.5565986633,0.0643281341,0.0457181782,0.0004545450,-103.9821166992,-9.6829004288,82.2235641479,-0.0461249053,-0.0490163565,0.0009483546,-56.3473739624,84.8231964111,-120.1437835693,0.0203350782,0.0244711041,0.0252647996,43.2069473267,41.0654869080,-112.9654998779,0.0617063642,-0.0157983899,-0.0071734190,
380.343,-3.2682020664,1.3920547962,43.5577507019,0.0570083931,0.0399033204,0.0053406954,-103.9822921753,-9.6910305023,82.1985473633,-0.0496827364,-0.0436685085,-0.0019850582,-56.3451423645,84.8228149414,-120.1375122070,0.0164282322,0.0200808048,0.0247693360,43.2100677490,41.0655364990,-112.9594955444,0.0704960823,-0.0114335418,-0.0105635524,
380.353,-3.2688069344,1.3932625055,43.5570755005,0.0555646233,0.0404021107,0.0087589025,-103.9840850830,-9.7012510300,82.1742782593,-0.0439991951,-0.0407758951,-0.0024500191,-56.3436737061,84.8221435547,-120.1314773560,0.0169154406,0.0215537250,0.0272023976,43.2128219604,41.0657234192,-112.9545288086,0.0631743670,-0.0119465590,-0.0017472506,
380.363,-3.2698752880,1.3937592506,43.5575218201,0.0624092296,0.0409089923,0.0038779974,-103.9871368408,-9.7091217041,82.1479568481,-0.0509705245,-0.0500880480,-0.0014284700,-56.3337097168,84.8207015991,-120.1182785034,0.0217959881,0.0186366141,0.0344985425,43.2140274048,41.0686683655,-112.9496841431,0.0627248287,-0.0153530836,-0.0114775300,
380.373,-3.2697291374,1.3943748474,43.5580673218,0.0580254383,0.0428595506,0.0131554604,-103.9890670776,-9.7199525833,82.1189956665,-0.0467623174,-0.0530570745,-0.0043330789,-56.3621673584,84.8227081299,-120.1419830322,0.0198460221,0.0220504403,0.0160023868,43.2114295959,41.0714530945,-112.9471130371,0.0612965822,-0.0197008252,0.0026823282,
380.383,-3.2710721493,1.3958204985,43.5603561401,0.0595155060,0.0419063531,0.0053451061,-103.9890060425,-9.7317428589,82.0897445679,-0.0479416847,-0.0550433397,-0.0043428838,-56.3492393494,84.8226699829,-120.1277084351,0.0183811188,0.0244826376,0.0325845182,43.2104301453,41.0707702637,-112.9435958862,0.0720298290,-0.0172551870,-0.0090510845,
380.393,-3.2712144852,1.3948076963,43.5627784729,0.0619392395,0.0438619778,0.0121802092,-103.9871368408,-9.7384977341,82.0566711426,-0.0509876013,-0.0570082664,-0.0004725605,-56.3524246216,84.8197174072,-120.1276016235,0.0188647509,0.0206205547,0.0296317041,43.2103500366,41.0712966919,-112.9400100708,0.0656890869,-0.0094377995,0.0016948581,
380.403,-3.2713539600,1.3963189125,43.5656738281,0.0595242009,0.0438643731,0.0087637901,-103.9828109741,-9.7478122711,82.0220870972,-0.0491946936,-0.0628762245,0.0018897504,-56.3644905090,84.8179779053,-120.1353607178,0.0203268528,0.0250488520,0.0354923606,43.2127952576,41.0710449219,-112.9354324341,0.0642209649,-0.0123929381,-0.0095157027,
380.413,-3.2712345123,1.3976482153,43.5673942566,0.0600356758,0.0448388197,0.0121815205,-103.9823226929,-9.7606210709,81.9870910645,-0.0450204909,-0.0521687865,-0.0034984946,-56.3763084412,84.8180465698,-120.1415557861,0.0154441595,0.0255468488,0.0311143994,43.2160644531,41.0678176880,-112.9272460938,0.0710144043,-0.0065902472,-0.0012125969,
380.423,-3.2719140053,1.3982957602,43.5678710938,0.0600469783,0.0399678312,0.0126711130,-103.9842300415,-9.7708282471,81.9503631592,-0.0471491814,-0.0502527952,-0.0039623827,-56.4115028381,84.8160476685,-120.1710357666,0.0266714692,0.0246304274,0.0257717073,43.2203369141,41.0667915344,-112.9193115234,0.0602586865,-0.0095689893,-0.0119247437,
380.433,-3.2729146481,1.3971629143,43.5684661865,0.0595389307,0.0390087292,0.0033938885,-103.9860076904,-9.7797203064,81.9112625122,-0.0536497831,-0.0537038445,-0.0058919638,-56.4271583557,84.8134384155,-120.1815872192,0.0217845440,0.0197985172,0.0301629305,43.2210006714,41.0649871826,-112.9141845703,0.0695122480,-0.0159372687,-0.0036330223,
380.443,-3.2734737396,1.3976399899,43.5684165955,0.0561292842,0.0404832959,0.0097426176,-103.9881362915,-9.7878303528,81.8693847656,-0.0503712893,-0.0478767157,0.0039035678,-56.4686660767,84.8154449463,-120.2177810669,0.0266705155,0.0242016613,0.0165661573,43.2212715149,41.0626525879,-112.9077606201,0.0709463954,-0.0052158833,0.0002561808,
380.453,-3.2715110779,1.3979957104,43.5683441162,0.0605300218,0.0472850353,0.0004634261,-103.9934310913,-9.7991228104,81.8260803223,-0.0495889485,-0.0459781885,-0.0038286895,-56.4733467102,84.8175201416,-120.2142562866,0.0217909813,0.0246655345,0.0253803432,43.2224082947,41.0644073486,-112.9016036987,0.0680397749,-0.0149786472,-0.0089963675,
380.463,-3.2704696655,1.3985353708,43.5701446533,0.0561449081,0.0438489132,0.0053454041,-103.9985504150,-9.8135118484,81.7800064087,-0.0488598347,-0.0548300743,0.0021058619,-56.4702262878,84.8186264038,-120.2029800415,0.0256989598,0.0236707330,0.0288043916,43.2227478027,41.0646553040,-112.8968353271,0.0675548315,-0.0100971460,-0.0085029602,
380.473,-3.2685739994,1.3982900381,43.5706672668,0.0629765615,0.0447924584,0.0068083405,-104.0010528564,-9.8288230896,81.7318725586,-0.0417989492,-0.0622085333,-0.0003051907,-56.4189376831,84.8190765381,-120.1448364258,0.0193520188,0.0255716741,0.0345987082,43.2220497131,41.0656623840,-112.8921203613,0.0661032200,-0.0115474463,-0.0036180615,
380.483,-3.2660021782,1.3994674683,43.5705718994,0.0600674190,0.0471890420,0.0082709789,-104.0030364990,-9.8461923599,81.6843719482,-0.0503984392,-0.0583611727,-0.0041902363,-56.4107666016,84.8200988770,-120.1309585571,0.0178887844,0.0235962570,0.0302030742,43.2179832458,41.0659980774,-112.8891143799,0.0646427870,-0.0159003139,-0.0016988516,
380.493,-3.2673590183,1.3973602057,43.5705528259,0.0629603416,0.0398885049,0.0072949529,-104.0009384155,-9.8667621613,81.6393737793,-0.0517286956,-0.0652477741,0.0021071434,-56.4122734070,84.8236465454,-120.1290893555,0.0208240747,0.0220834911,0.0243784785,43.2214202881,41.0687713623,-112.8813629150,0.0695621371,-0.0124934912,-0.0182461143,
380.503,-3.2685446739,1.3982237577,43.5709800720,0.0615105629,0.0360028856,0.0146205425,-103.9974288940,-9.8895959854,81.5976943970,-0.0526095927,-0.0599286556,-0.0008973032,-56.4179458618,84.8232727051,-120.1301651001,0.0203351974,0.0235578716,0.0243831575,43.2164421082,41.0700531006,-112.8800201416,0.0607899427,-0.0143887997,0.0027158856,
380.513,-3.2687246799,1.3999301195,43.5726737976,0.0586106479,0.0438184887,0.0092507601,-103.9937133789,-9.9141473770,81.5564956665,-0.0510785878,-0.0555899143,-0.0034188777,-56.4782295227,84.8219909668,-120.1870651245,0.0193566084,0.0192361176,0.0220105648,43.2160606384,41.0693321228,-112.8762664795,0.0632218122,-0.0119494200,0.0017297864,
380.523,-3.2706379890,1.3989180326,43.5737800598,0.0659172088,0.0399455912,0.0102282763,-103.9885559082,-9.9355325699,81.5144500732,-0.0455868840,-0.0492835641,0.0028275102,-56.5222358704,84.8181304932,-120.2285919189,0.0134911537,0.0251889527,0.0332647562,43.2195358276,41.0694198608,-112.8701705933,0.0602933168,-0.0154000521,-0.0050741434,
380.533,-3.2716743946,1.3991062641,43.5748748779,0.0615259595,0.0409401990,0.0053471923,-103.9917831421,-9.9490928650,81.4689636230,-0.0482614040,-0.0420120955,-0.0015234351,-56.5871315002,84.8120040894,-120.2921676636,0.0120166540,0.0228938162,0.0298757851,43.2260513306,41.0656280518,-112.8611679077,0.0621965528,-0.0140274167,-0.0030936599,
380.543,-3.2722816467,1.4035699368,43.5776824951,0.0552561879,0.0424155071,-0.0029516220,-103.9986267090,-9.9566526413,81.4192657471,-0.0488796532,-0.0405977964,-0.0106920451,-56.6639480591,84.8055191040,-120.3662719727,0.0154243708,0.0210981369,0.0245510042,43.2307167053,41.0627021790,-112.8553771973,0.0694822669,-0.0165365338,-0.0074706674,
380.553,-3.2732203007,1.4045077562,43.5769271851,0.0606436431,0.0414552838,0.0043741465,-104.0032958984,-9.9621782303,81.3621368408,-0.0465331972,-0.0425867438,-0.0032937229,-56.7027435303,84.8012847900,-120.4031448364,0.0222536325,0.0251002312,0.0304223597,43.2366142273,41.0580825806,-112.8484878540,0.0752807856,-0.0122349858,-0.0059918165,
380.563,-3.2726037502,1.4050836563,43.5749778748,0.0616302565,0.0448624901,0.0033971071,-104.0048217773,-9.9640245438,81.3000106812,-0.0568188727,-0.0489459038,-0.0101057589,-56.7161407471,84.7977905273,-120.4152984619,0.0212715268,0.0276024938,0.0333384275,43.2401885986,41.0597496033,-112.8417892456,0.0640722513,-0.0132325888,-0.0127810240,
380.573,-3.2736589909,1.4063490629,43.5760459900,0.0596992075,0.0409745947,-0.0005074739,-104.0018615723,-9.9714546204,81.2342758179,-0.0505989194,-0.0533500910,-0.0082073957,-56.7142601013,84.7986145020,-120.4106674194,0.0295736194,0.0261243582,0.0230895579,43.2380676270,41.0605049133,-112.8391952515,0.0699416399,-0.0229719281,-0.0040048361,
380.583,-3.2724244595,1.4056347609,43.5765914917,0.0626164377,0.0424179509,0.0107215643,-103.9943695068,-9.9802665710,81.1652984619,-0.0527035296,-0.0567626357,-0.0102920383,-56.6589469910,84.7998580933,-120.3528289795,0.0251810551,0.0280105472,0.0347445011,43.2398948669,41.0629310608,-112.8332977295,0.0670438409,-0.0141813755,-0.0098274350,
380.593,-3.2736201286,1.4066739082,43.5777053833,0.0587283149,0.0424387455,0.0107233524,-103.9862670898,-9.9895496368,81.0938491821,-0.0494451225,-0.0484554768,-0.0006684661,-56.6400184631,84.8061904907,-120.3323516846,0.0232379436,0.0249747038,0.0240354240,43.2415771484,41.0665397644,-112.8265838623,0.0646499395,-0.0078215599,-0.0141768456,
380.603,-3.2754340172,1.4078954458,43.5775566101,0.0597261935,0.0405171961,0.0029126406,-103.9812927246,-9.9960298538,81.0200576782,-0.0563924611,-0.0538249612,0.0031501055,-56.5709495544,84.8087158203,-120.2571640015,0.0139645934,0.0278068781,0.0400786996,43.2382698059,41.0717620850,-112.8237991333,0.0569061637,-0.0116550922,-0.0029325485,
380.613,-3.2749516964,1.4085880518,43.5787467957,0.0577851459,0.0483212695,0.0102370381,-103.9769973755,-10.0044832230,80.9423217773,-0.0565377474,-0.0592030287,0.0152792782,-56.5342521667,84.8106460571,-120.2130813599,0.0168973207,0.0292115808,0.0346757770,43.2350082397,41.0722618103,-112.8187637329,0.0676549077,-0.0101550817,-0.0039343238,
380.623,-3.2754299641,1.4105241299,43.5810585022,0.0578189306,0.0449115932,0.0058436394,-103.9796142578,-10.0149354935,80.8655471802,-0.0532994270,-0.0577797890,0.0016433001,-56.5162506104,84.8119735718,-120.1856536865,0.0173876882,0.0223416090,0.0292921960,43.2313842773,41.0710639954,-112.8133697510,0.0666625500,-0.0115945339,0.0023704767,
380.633,-3.2767188549,1.4124903679,43.5827484131,0.0578532368,0.0420043096,0.0141466856,-103.9836654663,-10.0239419937,80.7861557007,-0.0539425015,-0.0592880249,-0.0036667436,-56.5153045654,84.8122329712,-120.1740875244,0.0178763866,0.0233124197,0.0288060308,43.2298278809,41.0725021362,-112.8070373535,0.0642401576,-0.0101034045,-0.0015374422,
380.643,-3.2773597240,1.4119219780,43.5838851929,0.0641909763,0.0444568954,0.0058462620,-103.9835281372,-10.0343942642,80.7023010254,-0.0477744937,-0.0612711906,-0.0051418990,-56.5339126587,84.8146514893,-120.1826095581,0.0169036388,0.0232953131,0.0239706933,43.2294654846,41.0717811584,-112.7990264893,0.0691134334,-0.0110821724,0.0008945465,
380.653,-3.2763373852,1.4115313292,43.5838966370,0.0568599403,0.0439508073,0.0043803453,-103.9792251587,-10.0467061996,80.6160583496,-0.0548220277,-0.0598247051,-0.0022931397,-56.5625877380,84.8155593872,-120.2006530762,0.0227644444,0.0218442678,0.0259702504,43.2243843079,41.0703163147,-112.7947998047,0.0705590248,-0.0173926353,-0.0035579205,
380.663,-3.2752063274,1.4125610590,43.5862197876,0.0588310286,0.0419779569,0.0053561926,-103.9737396240,-10.0611162186,80.5273284912,-0.0501868427,-0.0539854765,-0.0121604800,-56.6037330627,84.8146896362,-120.2347793579,0.0208099484,0.0228681862,0.0226013362,43.2205390930,41.0709838867,-112.7913055420,0.0622670054,-0.0168622732,-0.0021222234,
380.673,-3.2734014988,1.4124498367,43.5867424011,0.0627353489,0.0443879217,0.0131669044,-103.9624328613,-10.0762538910,80.4364776611,-0.0489821136,-0.0564246178,-0.0060128570,-56.6694755554,84.8166122437,-120.2959747314,0.0154418945,0.0248548985,0.0217297971,43.2193832397,41.0727195740,-112.7865219116,0.0593601465,-0.0178140998,-0.0070010424,
380.683,-3.2748003006,1.4134219885,43.5884857178,0.0588460565,0.0439239852,0.0034030676,-103.9522552490,-10.0942840576,80.3459930420,-0.0497802198,-0.0535064936,0.0021052063,-56.7120971680,84.8174514771,-120.3339767456,0.0217908621,0.0185321867,0.0247260034,43.2214660645,41.0735740662,-112.7795257568,0.0691369772,-0.0197805166,-0.0089282990,
380.693,-3.2759549618,1.4129239321,43.5890197754,0.0617670529,0.0405261517,0.0082868338,-103.9467544556,-10.1098289490,80.2574386597,-0.0593246818,-0.0554828644,-0.0102052689,-56.7730255127,84.8170318604,-120.3915863037,0.0193488002,0.0195691884,0.0243161023,43.2240829468,41.0752944946,-112.7749404907,0.0633003116,-0.0153975487,-0.0098669529,
380.703,-3.2737507820,1.4115788937,43.5901908875,0.0646732748,0.0458588749,0.0034013987,-103.9390640259,-10.1249017715,80.1662216187,-0.0590953827,-0.0511016250,0.0018626899,-56.8040962219,84.8173751831,-120.4218978882,0.0144665241,0.0283809602,0.0263145864,43.2266654968,41.0718803406,-112.7688598633,0.0700913072,-0.0081248879,-0.0035244823,
380.713,-3.2752358913,1.4127581120,43.5888252258,0.0598110333,0.0395370573,0.0082856417,-103.9354782104,-10.1420116425,80.0738449097,-0.0574362278,-0.0506492257,-0.0050461739,-56.8346023560,84.8171463013,-120.4509811401,0.0164192915,0.0205997229,0.0297712088,43.2283935547,41.0715217590,-112.7641067505,0.0647154450,-0.0149802566,-0.0069299936,
380.723,-3.2747557163,1.4140161276,43.5911254883,0.0603212640,0.0439232029,0.0097509623,-103.9296722412,-10.1584491730,79.9784317017,-0.0543006659,-0.0614163280,-0.0036905259,-56.8862724304,84.8173751831,-120.4987106323,0.0222790241,0.0211312473,0.0234948695,43.2320556641,41.0710334778,-112.7576599121,0.0720332861,-0.0130660534,-0.0142248869,
380.733,-3.2733740807,1.4116158485,43.5936508179,0.0622325093,0.0492702872,0.0043773651,-103.9233551025,-10.1728038788,79.8813781738,-0.0643128753,-0.0536205769,-0.0057597160,-56.8923912048,84.8168411255,-120.5014572144,0.0183719397,0.0206549764,0.0264289677,43.2346916199,41.0713272095,-112.7508544922,0.0666660070,-0.0067414641,-0.0068751574,
380.743,-3.2728393078,1.4108102322,43.5948219299,0.0607536137,0.0399836414,0.0063296556,-103.9114074707,-10.1887474060,79.7801742554,-0.0567742586,-0.0589904785,-0.0025523007,-56.9175529480,84.8212356567,-120.5213623047,0.0208202600,0.0250097513,0.0191793442,43.2352714539,41.0722007751,-112.7459793091,0.0632596016,-0.0116228461,-0.0073504448,
380.753,-3.2703421116,1.4088275433,43.5967178345,0.0607190132,0.0467761345,0.0063262582,-103.8995895386,-10.2098016739,79.6774368286,-0.0532296896,-0.0590045452,-0.0017888397,-56.9248924255,84.8250503540,-120.5216293335,0.0198497176,0.0288685262,0.0192243755,43.2333183289,41.0718116760,-112.7426376343,0.0710669160,-0.0116072297,-0.0054180622,
380.763,-3.2700397968,1.4096642733,43.5978126526,0.0617101789,0.0433528684,0.0141388178,-103.8819427490,-10.2282371521,79.5730209351,-0.0657533407,-0.0663112402,-0.0035620481,-56.8954429626,84.8245620728,-120.4865951538,0.0188723803,0.0273835659,0.0343174040,43.2328796387,41.0724639893,-112.7366485596,0.0661926866,-0.0067150593,-0.0024870634,
380.773,-3.2718524933,1.4118493795,43.5982818604,0.0568654910,0.0424078368,0.0151181221,-103.8635253906,-10.2490110397,79.4677810669,-0.0626921952,-0.0633685589,-0.0053491741,-56.8968200684,84.8294830322,-120.4792175293,0.0281574726,0.0273158252,0.0270400643,43.2309112549,41.0728149414,-112.7299270630,0.0627793670,-0.0101113915,0.0028692484,
380.783,-3.2712213993,1.4116381407,43.6000785828,0.0588149317,0.0423968472,0.0068166256,-103.8394393921,-10.2737483978,79.3628082275,-0.0616521835,-0.0613912344,0.0074144006,-56.9271583557,84.8311157227,-120.5013885498,0.0174178481,0.0209719241,0.0280727446,43.2282562256,41.0721397400,-112.7253341675,0.0676532388,-0.0135092139,-0.0015547276,
380.793,-3.2710325718,1.4135499001,43.6005706787,0.0573834404,0.0453231893,0.0009578466,-103.8148956299,-10.2980661392,79.2556838989,-0.0606049597,-0.0603872538,-0.0037559122,-57.0224418640,84.8303909302,-120.5910415649,0.0237643719,0.0215565860,0.0267284811,43.2302932739,41.0740089417,-112.7157897949,0.0613302588,-0.0159554482,-0.0093333721,
380.803,-3.2727751732,1.4142638445,43.6004829407,0.0573959015,0.0385175943,0.0082841516,-103.7921600342,-10.3186111450,79.1496124268,-0.0663288236,-0.0593800545,0.0017092228,-57.0996246338,84.8310012817,-120.6600952148,0.0042340755,0.0264967680,0.0243990421,43.2336311340,41.0706787109,-112.7068405151,0.0622630119,-0.0062479377,0.0018995404,
380.813,-3.2734355927,1.4106419086,43.6005554199,0.0636803657,0.0424354374,-0.0005056858,-103.7699356079,-10.3418149948,79.0422973633,-0.0647741258,-0.0569185019,-0.0006316900,-57.1441497803,84.8299407959,-120.6995697021,0.0154628754,0.0289938152,0.0244484246,43.2350120544,41.0673370361,-112.6984100342,0.0705198050,-0.0145882368,-0.0044636726,
380.823,-3.2735543251,1.4128347635,43.6010017395,0.0568826869,0.0375546403,0.0165848732,-103.7516326904,-10.3652954102,78.9370269775,-0.0646889806,-0.0520325899,-0.0014428794,-57.1910362244,84.8287277222,-120.7420120239,0.0213203430,0.0251424611,0.0269453824,43.2320137024,41.0647125244,-112.6940612793,0.0719501376,-0.0204394460,-0.0040242672,
380.833,-3.2762978077,1.4109874964,43.6021804810,0.0622215457,0.0371141955,0.0053564906,-103.7346725464,-10.3889741898,78.8353500366,-0.0690017343,-0.0598479509,-0.0036969632,-57.2737083435,84.8299407959,-120.8195343018,0.0257167816,0.0247130990,0.0202296972,43.2350540161,41.0625000000,-112.6860122681,0.0650850534,-0.0087673664,-0.0025510788,
380.843,-3.2768533230,1.4091048241,43.6027793884,0.0621886998,0.0405418910,0.0043796897,-103.7105865479,-10.4136037827,78.7360229492,-0.0713776946,-0.0681264400,0.0066255182,-57.3359718323,84.8297882080,-120.8759384155,0.0242516994,0.0233038962,0.0193373859,43.2386932373,41.0585556030,-112.6785125732,0.0743104815,-0.0059034824,-0.0059685111,
380.853,-3.2770998478,1.4075560570,43.6045532227,0.0660679266,0.0434759036,0.0175628066,-103.6832427979,-10.4439544678,78.6402816772,-0.0709221065,-0.0622489452,0.0017518550,-57.3587570190,84.8282012939,-120.8936614990,0.0198546648,0.0213929117,0.0305846930,43.2385902405,41.0568161011,-112.6723022461,0.0650101900,-0.0093340874,-0.0025662184,
380.863,-3.2775020599,1.4073566198,43.6069908142,0.0567871034,0.0429946408,0.0077975392,-103.6541519165,-10.4729948044,78.5475845337,-0.0689791143,-0.0563610792,-0.0046145618,-57.4236030579,84.8321762085,-120.9520950317,0.0208374858,0.0233477652,0.0204537213,43.2375450134,41.0560112000,-112.6659011841,0.0679293871,-0.0147014260,-0.0094182491,
380.873,-3.2768568993,1.4092203379,43.6086082458,0.0621907152,0.0424950756,0.0048682690,-103.6266250610,-10.5022230148,78.4585494995,-0.0680158734,-0.0485273600,-0.0016777515,-57.4683609009,84.8321380615,-120.9928054810,0.0125366449,0.0214334726,0.0200266242,43.2399444580,41.0578689575,-112.6573562622,0.0635592937,-0.0112919211,-0.0147522688,
380.883,-3.2770330906,1.4093620777,43.6084976196,0.0612166226,0.0420098566,-0.0009911060,-103.6041793823,-10.5268650055,78.3746643066,-0.0689270198,-0.0450951457,0.0018355697,-57.5042343140,84.8311157227,-121.0241394043,0.0164412856,0.0268494487,0.0239733756,43.2380256653,41.0595245361,-112.6527633667,0.0655341744,-0.0200495720,-0.0054784417,
380.893,-3.2791359425,1.4094917774,43.6108436584,0.0597540438,0.0371636711,0.0029169321,-103.5853347778,-10.5490455627,78.2957000732,-0.0688193440,-0.0450879931,0.0054107159,-57.5126609802,84.8306961060,-121.0312042236,0.0149757862,0.0278414786,0.0278854668,43.2375907898,41.0609436035,-112.6471786499,0.0601817369,-0.0151515007,-0.0054703951,
380.903,-3.2789754868,1.4072805643,43.6120185852,0.0636217147,0.0386257768,0.0087758899,-103.5670852661,-10.5727844238,78.2218399048,-0.0687383711,-0.0572953224,-0.0007710457,-57.5094184875,84.8316802979,-121.0221862793,0.0159538984,0.0248929560,0.0269150436,43.2388343811,41.0615959167,-112.6415786743,0.0660496950,-0.0078340769,-0.0044771433,
380.913,-3.2788569927,1.4045766592,43.6120262146,0.0674807802,0.0449714325,0.0141447783,-103.5423431396,-10.5892467499,78.1509399414,-0.0807395279,-0.0592003465,0.0090578198,-57.5197448730,84.8338851929,-121.0262908936,0.0164456367,0.0278002918,0.0298787355,43.2404441833,41.0630264282,-112.6344528198,0.0650919676,-0.0117444992,-0.0044506788,
380.923,-3.2748048306,1.4043409824,43.6114578247,0.0562461987,0.0502719469,0.0058406591,-103.5136108398,-10.6073818207,78.0891647339,-0.0795858204,-0.0659777522,0.0105180293,-57.5616874695,84.8324432373,-121.0608215332,0.0169316530,0.0229741633,0.0323644280,43.2402915955,41.0617256165,-112.6261825562,0.0675163269,-0.0102883577,-0.0025098324,
380.933,-3.2754549980,1.4007539749,43.6120910645,0.0664375275,0.0400294550,0.0151166916,-103.4768905640,-10.6257038116,78.0357742310,-0.0745290518,-0.0580759048,0.0157512873,-57.6298217773,84.8296737671,-121.1231536865,0.0130210519,0.0181908906,0.0255957544,43.2415962219,41.0608901978,-112.6174011230,0.0626224279,-0.0127489567,-0.0044583082,
380.943,-3.2723536491,1.4008406401,43.6114540100,0.0571616925,0.0448582396,0.0029073954,-103.4467163086,-10.6408443451,77.9919509888,-0.0762535632,-0.0531197786,0.0035173148,-57.7337493896,84.8270568848,-121.2201690674,0.0188763142,0.0217358768,0.0237611532,43.2469367981,41.0555076599,-112.6064529419,0.0693874955,-0.0089362264,-0.0054315329,
380.953,-3.2706601620,1.3971426487,43.6139793396,0.0649096668,0.0438522659,0.0116925240,-103.4198455811,-10.6524562836,77.9583892822,-0.0671754181,-0.0457251072,0.0113609135,-57.7941055298,84.8219528198,-121.2731323242,0.0178917050,0.0262558758,0.0296568573,43.2532577515,41.0471191406,-112.5958099365,0.0751365423,-0.0041797161,-0.0078856945,
380.963,-3.2715258598,1.3960719109,43.6145362854,0.0614730194,0.0394728445,0.0038806200,-103.3979492188,-10.6552276611,77.9322586060,-0.0774768591,-0.0397870541,0.0129461437,-57.8689193726,84.8189544678,-121.3408737183,0.0242346525,0.0195279121,0.0214312673,43.2550888062,41.0450210571,-112.5874710083,0.0687612891,-0.0178856254,-0.0073985457,
380.973,-3.2723686695,1.3967608213,43.6150550842,0.0575787872,0.0394875109,0.0072996020,-103.3822402954,-10.6552782059,77.9153671265,-0.0725949109,-0.0397251844,0.0121961385,-57.8812789917,84.8167648315,-121.3451232910,0.0198366642,0.0264043808,0.0287540257,43.2574768066,41.0442810059,-112.5789871216,0.0677749515,-0.0120551586,-0.0117783546,
380.983,-3.2718129158,1.3966912031,43.6161842346,0.0605072603,0.0399661101,0.0116934776,-103.3677902222,-10.6504116058,77.9064025879,-0.0827653408,-0.0479531288,0.0090285093,-57.9056854248,84.8177490234,-121.3563919067,0.0227679014,0.0293434560,0.0195169747,43.2595863342,41.0436935425,-112.5708312988,0.0663023591,-0.0062204599,-0.0132284164,
380.993,-3.2743263245,1.3957617283,43.6179313660,0.0614676028,0.0356153809,0.0107190609,-103.3524703979,-10.6397399902,77.9021606445,-0.0772112012,-0.0459060669,0.0068277717,-57.8903656006,84.8173751831,-121.3280715942,0.0237438679,0.0268921256,0.0297482014,43.2547645569,41.0406913757,-112.5646667480,0.0721222162,-0.0140103698,-0.0010905266,
381.003,-3.2762715816,1.3940896988,43.6197166443,0.0619267151,0.0376024321,0.0107204914,-103.3325729370,-10.6213703156,77.9045715332,-0.0783609450,-0.0496760011,0.0162747949,-57.8467864990,84.8182830811,-121.2683639526,0.0164210796,0.0244009197,0.0306724906,43.2509574890,41.0417861938,-112.5562057495,0.0657889843,-0.0139651895,-0.0138102174,
381.013,-3.2779033184,1.3947470188,43.6207885742,0.0619381815,0.0410488099,0.0029099584,-103.3066940308,-10.5994663239,77.9128570557,-0.0774968863,-0.0451109409,0.0207417905,-57.8005485535,84.8190765381,-121.2060852051,0.0159340501,0.0267908275,0.0335460901,43.2488365173,41.0410423279,-112.5468978882,0.0735917091,-0.0080914497,-0.0065120459,
381.023,-3.2739880085,1.3941693306,43.6232299805,0.0604632571,0.0473282821,0.0136475563,-103.2848892212,-10.5748414993,77.9309921265,-0.0760978460,-0.0527603626,0.0130710751,-57.7267951965,84.8183593750,-121.1162567139,0.0178860426,0.0208786130,0.0373443067,43.2452774048,41.0421943665,-112.5380477905,0.0609115362,-0.0119544268,-0.0075108409,
381.033,-3.2749893665,1.3928052187,43.6231651306,0.0623925775,0.0390449725,0.0043709278,-103.2678985596,-10.5480089188,77.9576568604,-0.0731960833,-0.0457743406,0.0069481432,-57.6915664673,84.8175201416,-121.0612182617,0.0247206688,0.0218347907,0.0314305425,43.2376556396,41.0429954529,-112.5320739746,0.0687345266,-0.0157812834,-0.0056195259,
381.043,-3.2744700909,1.3936879635,43.6255645752,0.0550837666,0.0419656001,0.0058357120,-103.2580947876,-10.5177612305,77.9934387207,-0.0687707961,-0.0466182232,0.0068062395,-57.6566276550,84.8194885254,-121.0058670044,0.0208175182,0.0286151767,0.0274918079,43.2335853577,41.0427665710,-112.5255126953,0.0628722310,-0.0089080334,-0.0105409622,
381.053,-3.2744476795,1.3921582699,43.6273574829,0.0633578598,0.0424535200,0.0048582554,-103.2544631958,-10.4834508896,78.0321578979,-0.0696468651,-0.0464978218,0.0062822700,-57.6283187866,84.8187332153,-120.9582748413,0.0178866386,0.0207850933,0.0274493694,43.2309761047,41.0450553894,-112.5172348022,0.0682734251,-0.0142361522,-0.0105454326,
381.063,-3.2749123573,1.3953857422,43.6271820068,0.0551133901,0.0429498143,0.0112080574,-103.2536926270,-10.4479942322,78.0802383423,-0.0607375205,-0.0517566204,0.0053188652,-57.5936126709,84.8214569092,-120.9060516357,0.0164260864,0.0236487687,0.0235179663,43.2240524292,41.0443611145,-112.5137786865,0.0633814335,-0.0097806454,0.0054994822,
381.073,-3.2756211758,1.3963655233,43.6270713806,0.0585484542,0.0400324538,0.0063258410,-103.2446594238,-10.4098691940,78.1348114014,-0.0639893413,-0.0603927970,0.0066600293,-57.5628280640,84.8205108643,-120.8583068848,0.0203308463,0.0182609558,0.0234701931,43.2203407288,41.0466003418,-112.5085525513,0.0614578128,-0.0107040405,-0.0086753368,
381.083,-3.2762122154,1.3970698118,43.6282081604,0.0575841814,0.0424841382,0.0053508282,-103.2376632690,-10.3778944016,78.1979293823,-0.0634404421,-0.0475721359,0.0051015168,-57.5259590149,84.8220214844,-120.8070144653,0.0193566680,0.0221177042,0.0253831148,43.2151756287,41.0485992432,-112.5041275024,0.0614840984,-0.0150333047,0.0005720854,
381.093,-3.2775020599,1.3964309692,43.6287040710,0.0644089729,0.0400652178,0.0082809925,-103.2405166626,-10.3501310349,78.2698211670,-0.0580809712,-0.0567758679,-0.0050846487,-57.4930458069,84.8230819702,-120.7649765015,0.0198466182,0.0186526775,0.0204678476,43.2125930786,41.0517387390,-112.4998016357,0.0678731203,-0.0154721737,-0.0091905594,
381.103,-3.2782485485,1.3965116739,43.6298599243,0.0600158423,0.0439844653,0.0126765370,-103.2372970581,-10.3223628998,78.3461837769,-0.0541862249,-0.0571668148,0.0022055060,-57.4913330078,84.8251647949,-120.7554321289,0.0159436464,0.0205787122,0.0175513327,43.2088394165,41.0556793213,-112.4973144531,0.0635304451,-0.0134521127,-0.0033320189,
381.113,-3.2782273293,1.3964352608,43.6315956116,0.0605027974,0.0381247252,0.0073050261,-103.2456665039,-10.2958869934,78.4264526367,-0.0561729968,-0.0512597561,-0.0030068904,-57.4980392456,84.8258514404,-120.7555007935,0.0130150318,0.0186170638,0.0185469687,43.2096099854,41.0555992126,-112.4941558838,0.0728067160,-0.0115071535,-0.0077208281,
381.123,-3.2774202824,1.3990213871,43.6313323975,0.0615244806,0.0410402901,0.0073056221,-103.2526931763,-10.2672824860,78.5073242188,-0.0649591088,-0.0575480461,-0.0014044791,-57.4768791199,84.8247146606,-120.7292938232,0.0164312124,0.0274061263,0.0316896439,43.2151031494,41.0560340881,-112.4864349365,0.0659765005,-0.0105797052,-0.0062021613,
381.133,-3.2766666412,1.3987340927,43.6336784363,0.0634725913,0.0449334234,0.0063283443,-103.2677688599,-10.2382774353,78.5888061523,-0.0683672130,-0.0550783873,0.0013098419,-57.4494209290,84.8237991333,-120.6956481934,0.0218008757,0.0259298980,0.0345738530,43.2165870667,41.0569152832,-112.4804382324,0.0620818138,-0.0135169625,-0.0061824918,
381.143,-3.2778131962,1.3991074562,43.6365890503,0.0634791031,0.0425119735,0.0077941418,-103.2809219360,-10.2084484100,78.6696624756,-0.0693196952,-0.0579699278,-0.0018671006,-57.4207191467,84.8263778687,-120.6568832397,0.0232697725,0.0302625895,0.0233278573,43.2154350281,41.0551223755,-112.4727401733,0.0693824887,-0.0086368918,-0.0008358955,
381.153,-3.2779829502,1.3967578411,43.6390342712,0.0644146726,0.0459329598,0.0102354288,-103.2821731567,-10.1793584824,78.7474594116,-0.0702848732,-0.0686298013,-0.0008487999,-57.3767700195,84.8263778687,-120.5999908447,0.0208283663,0.0302243233,0.0330334604,43.2162933350,41.0532569885,-112.4643554688,0.0664282441,-0.0071949959,-0.0091446042,
381.163,-3.2777149677,1.3965512514,43.6396751404,0.0565985665,0.0454400219,0.0126759410,-103.2809295654,-10.1538162231,78.8291320801,-0.0659398139,-0.0636653304,0.0098904371,-57.3228797913,84.8272094727,-120.5311965942,0.0218062401,0.0286988914,0.0280862153,43.2142715454,41.0532035828,-112.4567337036,0.0654510260,-0.0149884224,-0.0101395845,
381.173,-3.2787144184,1.3957304955,43.6408081055,0.0629319027,0.0410629138,0.0058408976,-103.2744369507,-10.1278629303,78.9159545898,-0.0728181005,-0.0577030182,0.0156599879,-57.2817268372,84.8267135620,-120.4720611572,0.0213171840,0.0208578110,0.0324199200,43.2111244202,41.0539207458,-112.4476394653,0.0649721622,-0.0129995346,-0.0101620555,
381.183,-3.2798173428,1.3960295916,43.6425857544,0.0570777431,0.0405938439,0.0082835555,-103.2649459839,-10.1093473434,79.0158615112,-0.0681054592,-0.0654229522,0.0247916281,-57.2439613342,84.8284988403,-120.4137725830,0.0262027979,0.0232407451,0.0255488753,43.2065391541,41.0546493530,-112.4407119751,0.0703527927,-0.0144146681,-0.0155683756,
381.193,-3.2789163589,1.3960558176,43.6437873840,0.0580547675,0.0454609580,0.0126771927,-103.2574157715,-10.0896892548,79.1319808960,-0.0648379922,-0.0526388884,0.0100302398,-57.2022056580,84.8317260742,-120.3527908325,0.0188836455,0.0270658731,0.0264972448,43.2002754211,41.0539436340,-112.4344177246,0.0703435540,-0.0138717294,0.0009708405,
381.203,-3.2773599625,1.3929766417,43.6444664001,0.0643486977,0.0478753299,0.0073031783,-103.2539138794,-10.0729379654,79.2545700073,-0.0640618503,-0.0598997474,0.0065656900,-57.1812629700,84.8327789307,-120.3119583130,0.0115610957,0.0216609240,0.0274553597,43.1969413757,41.0532989502,-112.4283599854,0.0693584681,-0.0109151602,-0.0039473176,
381.213,-3.2763996124,1.3931851387,43.6455802917,0.0614226460,0.0415109359,0.0043724775,-103.2612380981,-10.0560655594,79.3814544678,-0.0554711223,-0.0476716757,-0.0011121035,-57.1809272766,84.8310775757,-120.2924118042,0.0159529448,0.0251028538,0.0264626741,43.1969032288,41.0532951355,-112.4163970947,0.0620341897,-0.0123798251,-0.0093195438,
381.223,-3.2764661312,1.3944827318,43.6466865540,0.0580273196,0.0420003422,0.0170683861,-103.2741317749,-10.0359745026,79.5084381104,-0.0531727374,-0.0496161580,-0.0086947829,-57.2064399719,84.8265304565,-120.3006362915,0.0193637609,0.0188422799,0.0323149860,43.1955986023,41.0474624634,-112.4063262939,0.0717231035,-0.0148543119,-0.0005900860,
381.233,-3.2765443325,1.3929562569,43.6491203308,0.0614186525,0.0420017466,0.0073022842,-103.2862625122,-10.0177812576,79.6334838867,-0.0440709889,-0.0432624817,-0.0104323626,-57.2213592529,84.8224411011,-120.3011245728,0.0261932611,0.0218432248,0.0225321352,43.1936149597,41.0435943604,-112.3985824585,0.0672776699,-0.0148657560,0.0022886992,
381.243,-3.2765121460,1.3912863731,43.6521453857,0.0643192083,0.0444426313,0.0107194185,-103.3074798584,-9.9950494766,79.7590789795,-0.0519810915,-0.0349782705,-0.0193389952,-57.2293281555,84.8208465576,-120.2959365845,0.0203313828,0.0252906680,0.0220402777,43.1959762573,41.0405158997,-112.3899002075,0.0696784854,-0.0110061169,-0.0021097660,
381.253,-3.2766649723,1.3914430141,43.6533317566,0.0574860051,0.0439570099,0.0092550516,-103.3290939331,-9.9777822495,79.8801651001,-0.0458248854,-0.0442903042,-0.0008989722,-57.1895484924,84.8208923340,-120.2459640503,0.0222845674,0.0233005285,0.0244291723,43.1924476624,41.0404548645,-112.3865356445,0.0662597418,-0.0148789883,-0.0026302338,
381.263,-3.2769339085,1.3923115730,43.6537590027,0.0633605272,0.0415202640,0.0068141818,-103.3535232544,-9.9592819214,80.0007400513,-0.0518545210,-0.0340789557,-0.0004771650,-57.1592063904,84.8241806030,-120.2107467651,0.0218014717,0.0207874477,0.0151392519,43.1910324097,41.0422286987,-112.3830947876,0.0770252347,-0.0143632889,-0.0036048889,
381.273,-3.2758679390,1.3919204473,43.6549186707,0.0633537024,0.0483376421,-0.0000233650,-103.3839111328,-9.9420251846,80.1208038330,-0.0510695875,-0.0434264541,-0.0116752982,-57.1421203613,84.8302383423,-120.1881408691,0.0203461647,0.0226382613,0.0127312839,43.1870613098,41.0496940613,-112.3825073242,0.0605220199,-0.0162196755,-0.0089493394,
381.283,-3.2756066322,1.3904246092,43.6554298401,0.0677221417,0.0454034396,0.0156011581,-103.4109268188,-9.9224061966,80.2384033203,-0.0580565333,-0.0527540445,-0.0029087961,-57.0802421570,84.8357086182,-120.1228866577,0.0169367790,0.0254379809,0.0258794129,43.1833343506,41.0515785217,-112.3832473755,0.0712889433,-0.0122628808,-0.0001783371,
381.293,-3.2763175964,1.3904173374,43.6546974182,0.0638157651,0.0444392674,0.0009533167,-103.4338531494,-9.9012088776,80.3575973511,-0.0532975495,-0.0503422022,0.0023723692,-57.0341987610,84.8366928101,-120.0745391846,0.0120555162,0.0209868550,0.0228981972,43.1855850220,41.0555114746,-112.3795700073,0.0674344301,-0.0103005767,-0.0098906755,
381.303,-3.2776262760,1.3905217648,43.6570777893,0.0603996143,0.0439737812,0.0190212131,-103.4593200684,-9.8763151169,80.4754486084,-0.0562874973,-0.0503708124,0.0033033639,-56.9713134766,84.8383636475,-120.0071945190,0.0115698576,0.0277446508,0.0335699618,43.1908836365,41.0563964844,-112.3727188110,0.0703757405,-0.0054616928,-0.0029996634,
381.313,-3.2777616978,1.3918392658,43.6587104797,0.0643288493,0.0439760983,0.0107209682,-103.4859161377,-9.8488111496,80.5912322998,-0.0484903455,-0.0538157225,0.0081624985,-56.9375877380,84.8396530151,-119.9684448242,0.0184078217,0.0306263864,0.0301181972,43.1981353760,41.0549736023,-112.3645629883,0.0684039593,-0.0079838037,-0.0088055730,
381.323,-3.2776696682,1.3914078474,43.6611099243,0.0599267930,0.0425096639,0.0131621361,-103.5127563477,-9.8165035248,80.7039184570,-0.0567238033,-0.0567594767,0.0066809207,-56.9522857666,84.8371429443,-119.9756698608,0.0159624815,0.0248141587,0.0310927033,43.2036285400,41.0521697998,-112.3542404175,0.0659256577,-0.0041522980,-0.0038966537,
381.333,-3.2786509991,1.3918991089,43.6615562439,0.0623767711,0.0391087756,0.0024210215,-103.5362854004,-9.7819128036,80.8130950928,-0.0522226393,-0.0548006296,-0.0036443174,-56.9746780396,84.8338851929,-119.9873580933,0.0169339180,0.0234172642,0.0232786238,43.2051811218,41.0485763550,-112.3450241089,0.0668549538,-0.0115195513,0.0009703040,
381.343,-3.2780890465,1.3935040236,43.6620292664,0.0584985241,0.0444700494,0.0024212599,-103.5587921143,-9.7435493469,80.9182128906,-0.0525393486,-0.0411095619,-0.0042172074,-56.9899520874,84.8314895630,-119.9914321899,0.0188832879,0.0259042680,0.0271851122,43.2061805725,41.0461273193,-112.3363342285,0.0590101480,-0.0105718374,-0.0044124126,
381.353,-3.2781076431,1.3956534863,43.6624832153,0.0590243116,0.0444703139,0.0112111568,-103.5833511353,-9.7054004669,81.0162582397,-0.0465119779,-0.0406109095,-0.0096393973,-56.9642677307,84.8290328979,-119.9565277100,0.0193676949,0.0278700888,0.0359163284,43.2080535889,41.0457878113,-112.3279037476,0.0668182373,-0.0159635544,-0.0092810392,
381.363,-3.2815325260,1.3955068588,43.6629714966,0.0604865924,0.0347643569,0.0068196058,-103.6108245850,-9.6639642715,81.1046752930,-0.0453107953,-0.0288850069,-0.0125691742,-56.9339828491,84.8251647949,-119.9169998169,0.0203381777,0.0249682367,0.0353514254,43.2089233398,41.0448913574,-112.3220520020,0.0682712793,-0.0130493641,-0.0141642690,
381.373,-3.2823886871,1.3969284296,43.6634635925,0.0570934303,0.0416151732,0.0053565502,-103.6445541382,-9.6209411621,81.1843338013,-0.0401760042,-0.0288995504,-0.0051392764,-56.8754272461,84.8250885010,-119.8484497070,0.0242443085,0.0239412189,0.0338063240,43.2093505859,41.0440406799,-112.3150177002,0.0687483549,-0.0072005987,-0.0083074570,
381.383,-3.2847375870,1.3969632387,43.6646499634,0.0580706000,0.0426326543,0.0141479969,-103.6734542847,-9.5786170959,81.2551727295,-0.0399359167,-0.0518461466,-0.0051153153,-56.8289146423,84.8267593384,-119.7905273438,0.0252234936,0.0228996873,0.0235048831,43.2070388794,41.0444412231,-112.3106765747,0.0726599097,-0.0066870451,-0.0093016028,
381.393,-3.2850747108,1.3950377703,43.6658897400,0.0604784116,0.0411737226,0.0087764263,-103.7062835693,-9.5383949280,81.3200454712,-0.0397319496,-0.0523550510,-0.0172335654,-56.7711830139,84.8309631348,-119.7242889404,0.0286480784,0.0213230550,0.0185839832,43.2011489868,41.0502433777,-112.3098983765,0.0742011070,-0.0212333798,-0.0093059540,
381.403,-3.2826845646,1.3939400911,43.6653022766,0.0614358187,0.0508977398,0.0068204403,-103.7324829102,-9.5014419556,81.3809432983,-0.0415372849,-0.0611474514,-0.0084692240,-56.6713943481,84.8352508545,-119.6171798706,0.0232837200,0.0216631591,0.0194645524,43.1963119507,41.0561485291,-112.3105926514,0.0659780502,-0.0123516917,-0.0044182539,
381.413,-3.2833805084,1.3908865452,43.6659393311,0.0643122271,0.0421208739,0.0087729692,-103.7517929077,-9.4709329605,81.4381027222,-0.0415003598,-0.0645592213,-0.0042189360,-56.5925483704,84.8413925171,-119.5330200195,0.0164574385,0.0249232948,0.0247874260,43.1948318481,41.0631332397,-112.3095474243,0.0636284947,-0.0127708912,-0.0077904463,
381.423,-3.2837326527,1.3925856352,43.6658554077,0.0540879704,0.0411504097,0.0131686926,-103.7649078369,-9.4370374680,81.4871902466,-0.0472644567,-0.0645184517,-0.0044648647,-56.5369682312,84.8429489136,-119.4710388184,0.0149950385,0.0268055797,0.0276563168,43.1979904175,41.0644531250,-112.3021316528,0.0704818964,-0.0054667592,-0.0062869787,
381.433,-3.2842640877,1.3905535936,43.6671028137,0.0608884469,0.0426245555,0.0097503066,-103.7788619995,-9.4071073532,81.5320663452,-0.0487022400,-0.0596097708,-0.0139766335,-56.5161705017,84.8426132202,-119.4432525635,0.0110882521,0.0238620937,0.0286018550,43.1998138428,41.0643501282,-112.2947235107,0.0646211505,-0.0084145665,-0.0052938461,
381.443,-3.2842516899,1.3918524981,43.6682701111,0.0555400178,0.0445774309,0.0063328743,-103.7891921997,-9.3794927597,81.5692443848,-0.0467619002,-0.0610404015,-0.0030431598,-56.5168914795,84.8418197632,-119.4338989258,0.0164580941,0.0258276463,0.0242003798,43.2000350952,41.0640182495,-112.2882766724,0.0572924614,-0.0103725195,-0.0048065186,
381.453,-3.2823824883,1.3929878473,43.6693840027,0.0584895201,0.0445448533,0.0136559010,-103.8024902344,-9.3558988571,81.5999908447,-0.0458673239,-0.0512647033,-0.0091517866,-56.4746971130,84.8419265747,-119.3799896240,0.0193879604,0.0282289982,0.0339109302,43.2032432556,41.0582618713,-112.2778091431,0.0723534822,-0.0050773621,-0.0053139925,
381.463,-3.2841079235,1.3940736055,43.6697769165,0.0648561195,0.0406686254,0.0097517371,-103.8134841919,-9.3344459534,81.6240310669,-0.0415916145,-0.0527150631,-0.0094425827,-56.4530830383,84.8384704590,-119.3447647095,0.0223122239,0.0233759582,0.0333609879,43.2074203491,41.0547332764,-112.2649230957,0.0801195502,-0.0066100359,-0.0145832300,
381.473,-3.2824137211,1.3936730623,43.6709327698,0.0614311621,0.0440570936,0.0048670769,-103.8252716064,-9.3184080124,81.6416244507,-0.0418036878,-0.0483254194,-0.0063042045,-56.3960876465,84.8354415894,-119.2724151611,0.0252371430,0.0253193378,0.0376519263,43.2040290833,41.0534210205,-112.2572555542,0.0674069524,-0.0148885250,-0.0009529591,
381.483,-3.2832243443,1.3942505121,43.6714134216,0.0599763915,0.0396766700,0.0034033656,-103.8383331299,-9.3064184189,81.6500854492,-0.0357378125,-0.0449281931,-0.0158432722,-56.3607063293,84.8376770020,-119.2202224731,0.0179164410,0.0247701705,0.0259045660,43.2040786743,41.0604057312,-112.2491683960,0.0562684536,-0.0182521343,-0.0170073509,
381.493,-3.2831223011,1.3934968710,43.6732673645,0.0584983975,0.0469991304,0.0043793917,-103.8570556641,-9.2982826233,81.6497116089,-0.0341328382,-0.0459594727,-0.0267551243,-56.3002357483,84.8394927979,-119.1471786499,0.0257318020,0.0222470164,0.0287718177,43.2031059265,41.0634956360,-112.2428054810,0.0592387319,-0.0084530115,-0.0033185482,
381.503,-3.2844185829,1.3946980238,43.6750144958,0.0555896685,0.0401857458,-0.0068494081,-103.8721542358,-9.2963390350,81.6432723999,-0.0345876515,-0.0508992672,-0.0133177489,-56.2399673462,84.8426132202,-119.0780410767,0.0247601271,0.0201978385,0.0301833451,43.1985969543,41.0687141418,-112.2397766113,0.0641902685,-0.0200874805,-0.0072218180,
381.513,-3.2847721577,1.3921856880,43.6780815125,0.0628700554,0.0431216508,0.0077985525,-103.8830566406,-9.2992706299,81.6310882568,-0.0390326679,-0.0616945028,-0.0082545280,-56.2197990417,84.8448181152,-119.0519409180,0.0164628029,0.0186820626,0.0248075426,43.1984252930,41.0747070313,-112.2352828979,0.0642690659,-0.0127146244,-0.0169389844,
381.523,-3.2838706970,1.3920872211,43.6792564392,0.0604269281,0.0455473587,0.0063326955,-103.8910751343,-9.3079538345,81.6133193970,-0.0396704972,-0.0573568344,-0.0066614598,-56.1585769653,84.8459548950,-118.9869842529,0.0135349035,0.0239832699,0.0398721993,43.1984443665,41.0824279785,-112.2317123413,0.0560699105,-0.0175369978,-0.0075969100,
381.533,-3.2869539261,1.3913891315,43.6796989441,0.0667624027,0.0402299836,0.0082886219,-103.8961563110,-9.3184823990,81.5885543823,-0.0432698131,-0.0618014336,-0.0056067705,-56.1219139099,84.8463363647,-118.9460449219,0.0145120621,0.0263860524,0.0388503373,43.1981430054,41.0849609375,-112.2271041870,0.0678219795,-0.0092134476,-0.0041605234,
381.543,-3.2865209579,1.3921463490,43.6801567078,0.0638459325,0.0460818037,0.0092650652,-103.9015426636,-9.3325033188,81.5602340698,-0.0420464575,-0.0696744919,-0.0084561855,-56.1335754395,84.8450851440,-118.9532394409,0.0154866576,0.0259258151,0.0290885568,43.2033538818,41.0837898254,-112.2201843262,0.0731776953,-0.0068312883,-0.0075412989,
381.553,-3.2861726284,1.3919811249,43.6813507080,0.0584719554,0.0436343364,0.0048696995,-103.9070663452,-9.3506641388,81.5236892700,-0.0423592031,-0.0599818230,-0.0142352879,-56.1944961548,84.8420028687,-119.0085983276,0.0188997984,0.0230938196,0.0320711136,43.2086486816,41.0821418762,-112.2096252441,0.0580192804,-0.0073832273,-0.0050657392,
381.563,-3.2859926224,1.3921906948,43.6830444336,0.0638466999,0.0450960360,0.0087761283,-103.9084472656,-9.3712129593,81.4791488647,-0.0436896384,-0.0546728373,-0.0044609904,-56.2451667786,84.8353195190,-119.0505752563,0.0169361830,0.0212817788,0.0301215053,43.2146530151,41.0786476135,-112.1980514526,0.0672506094,-0.0118628740,-0.0060180426,
381.573,-3.2871084213,1.3901289701,43.6836395264,0.0628341660,0.0407209843,0.0048702359,-103.9062576294,-9.3937797546,81.4277877808,-0.0470079184,-0.0547263622,-0.0069540441,-56.2961730957,84.8350219727,-119.0910644531,0.0179122686,0.0296298265,0.0262835622,43.2166557312,41.0769920349,-112.1871643066,0.0667405725,-0.0167778134,-0.0045483708,
381.583,-3.2855868340,1.3881303072,43.6836395264,0.0623110160,0.0436242186,-0.0000149012,-103.9085464478,-9.4218997955,81.3707733154,-0.0440741479,-0.0499309897,-0.0240246654,-56.3269958496,84.8338851929,-119.1102294922,0.0203518867,0.0257709026,0.0321703851,43.2165069580,41.0727844238,-112.1794815063,0.0754742622,-0.0148562789,-0.0099560618,
381.593,-3.2851042747,1.3865323067,43.6835861206,0.0657010972,0.0441041291,0.0131673813,-103.9026184082,-9.4547176361,81.3069152832,-0.0431743264,-0.0592750311,-0.0041267723,-56.3800506592,84.8318710327,-119.1513214111,0.0198604465,0.0165664852,0.0249013007,43.2155036926,41.0730972290,-112.1716308594,0.0671776533,-0.0138676167,-0.0104507208,
381.603,-3.2845888138,1.3880401850,43.6834373474,0.0588914715,0.0421419963,0.0077965260,-103.8937225342,-9.4884834290,81.2392730713,-0.0525446832,-0.0568907261,0.0005836636,-56.3970413208,84.8331985474,-119.1582412720,0.0193742514,0.0204707086,0.0264001191,43.2129058838,41.0734138489,-112.1653060913,0.0730412006,-0.0133520365,-0.0021712780,
381.613,-3.2854259014,1.3872380257,43.6839752197,0.0627837256,0.0416683145,0.0068199635,-103.8828582764,-9.5302848816,81.1696090698,-0.0430103242,-0.0589159727,0.0037911981,-56.4256324768,84.8351287842,-119.1779708862,0.0227952600,0.0224224031,0.0235269070,43.2082252502,41.0752372742,-112.1602630615,0.0647643805,-0.0186638236,-0.0002442598,
381.623,-3.2833197117,1.3876335621,43.6862144470,0.0676734373,0.0474909917,0.0102368593,-103.8735351563,-9.5763063431,81.0985946655,-0.0447789729,-0.0609599352,-0.0105569959,-56.4693832397,84.8341064453,-119.2123260498,0.0183991194,0.0219873786,0.0274826586,43.2077102661,41.0748558044,-112.1523818970,0.0676890612,-0.0113377571,0.0012120008,
381.633,-3.2860352993,1.3846346140,43.6880111694,0.0661562681,0.0372844599,-0.0000160933,-103.8616867065,-9.6206836700,81.0231552124,-0.0450543761,-0.0634776354,-0.0068799257,-56.5348243713,84.8333129883,-119.2702178955,0.0183978677,0.0225457549,0.0251215696,43.2109222412,41.0750427246,-112.1432266235,0.0613437891,-0.0142966509,-0.0051045418,
381.643,-3.2879426479,1.3832443953,43.6891860962,0.0627140403,0.0422005318,0.0038917065,-103.8524627686,-9.6677885056,80.9437255859,-0.0444000363,-0.0528313518,-0.0031605959,-56.6302299500,84.8299407959,-119.3592529297,0.0169277191,0.0182841122,0.0237538218,43.2138252258,41.0741882324,-112.1338806152,0.0608442426,-0.0157963037,-0.0075279474,
381.653,-3.2897458076,1.3831992149,43.6909561157,0.0583187230,0.0402788147,0.0092641115,-103.8473205566,-9.7140064240,80.8637084961,-0.0437303483,-0.0514769554,-0.0096267760,-56.7021484375,84.8292541504,-119.4250183105,0.0198563337,0.0300764441,0.0267743170,43.2229270935,41.0726242065,-112.1203155518,0.0652182698,-0.0085715055,-0.0103878975,
381.663,-3.2890229225,1.3833954334,43.6902122498,0.0612518340,0.0407545082,0.0087759495,-103.8401718140,-9.7599925995,80.7814407349,-0.0445213914,-0.0481616259,-0.0029424578,-56.7922630310,84.8256988525,-119.5112533569,0.0174093246,0.0228810012,0.0244231224,43.2332115173,41.0713806152,-112.1084899902,0.0676432848,-0.0135626793,-0.0186063051,
381.673,-3.2883265018,1.3817663193,43.6902542114,0.0612234101,0.0470900685,0.0053554773,-103.8288116455,-9.8047246933,80.6947250366,-0.0550563931,-0.0487316847,0.0051363260,-56.8285980225,84.8207778931,-119.5445480347,0.0237492323,0.0259144604,0.0346789956,43.2382316589,41.0717391968,-112.0993804932,0.0652066469,-0.0150728822,-0.0058628321,
381.683,-3.2879385948,1.3823884726,43.6925773621,0.0602577031,0.0436653234,0.0053560138,-103.8166809082,-9.8473167419,80.6043701172,-0.0567654073,-0.0488048792,0.0053914636,-56.8745384216,84.8182067871,-119.5866851807,0.0208154917,0.0230602324,0.0298360884,43.2420959473,41.0694656372,-112.0907745361,0.0710360408,-0.0121980906,-0.0092649460,
381.693,-3.2853660583,1.3829973936,43.6943206787,0.0602683276,0.0470384657,0.0077953339,-103.8090133667,-9.8875446320,80.5116195679,-0.0584337115,-0.0479140282,-0.0084366351,-56.9441871643,84.8185806274,-119.6492156982,0.0193512440,0.0250703990,0.0152851343,43.2444496155,41.0681304932,-112.0816650391,0.0646708608,-0.0053952336,-0.0019307137,
381.703,-3.2860193253,1.3843317032,43.6961174011,0.0534556732,0.0421670042,0.0082843900,-103.7963104248,-9.9316816330,80.4171524048,-0.0543097556,-0.0509204865,0.0015735477,-56.9915313721,84.8189239502,-119.6890029907,0.0198400617,0.0226669312,0.0256057382,43.2448081970,41.0690231323,-112.0727386475,0.0661474466,-0.0151572824,-0.0082676411,
381.713,-3.2875158787,1.3846321106,43.6971931458,0.0612734184,0.0392633751,0.0092628598,-103.7855224609,-9.9736938477,80.3212890625,-0.0516139865,-0.0514874458,0.0023395568,-57.0302696228,84.8209991455,-119.7172241211,0.0193550587,0.0256007910,0.0295841396,43.2471008301,41.0718116760,-112.0630340576,0.0642309785,-0.0180870295,-0.0126180649,
381.723,-3.2888379097,1.3807059526,43.6996803284,0.0655994415,0.0397747867,0.0087738633,-103.7757568359,-10.0164270401,80.2249832153,-0.0577195883,-0.0584091544,-0.0037136823,-57.0913085938,84.8193435669,-119.7689285278,0.0193524361,0.0212845802,0.0281862915,43.2480926514,41.0720977783,-112.0559539795,0.0652112961,-0.0141880512,-0.0033294559,
381.733,-3.2888822556,1.3815109730,43.7008171082,0.0573127046,0.0422169454,0.0077978969,-103.7609710693,-10.0604581833,80.1270217896,-0.0521286428,-0.0565254688,0.0028431267,-57.1652412415,84.8190383911,-119.8347091675,0.0217933655,0.0208657980,0.0258425176,43.2502555847,41.0701599121,-112.0470733643,0.0661624074,-0.0147122145,-0.0038143992,
381.743,-3.2891569138,1.3803938627,43.7008514404,0.0572932102,0.0436865985,0.0053563714,-103.7442626953,-10.1033906937,80.0271530151,-0.0514015853,-0.0517021418,-0.0043025017,-57.2396888733,84.8154449463,-119.9046630859,0.0154400468,0.0190289617,0.0268877447,43.2568931580,41.0686798096,-112.0367813110,0.0656546354,-0.0089281797,-0.0086496472,
381.753,-3.2879171371,1.3815633059,43.7001914978,0.0558487698,0.0446415357,0.0136560202,-103.7210922241,-10.1448917389,79.9247055054,-0.0526028872,-0.0448952913,0.0035810918,-57.3231735229,84.8099288940,-119.9831161499,0.0188493133,0.0186922550,0.0298809707,43.2586746216,41.0644798279,-112.0283660889,0.0675525665,-0.0123961568,-0.0047624111,
381.763,-3.2871901989,1.3837813139,43.7006340027,0.0588171631,0.0470702201,0.0121922493,-103.6983413696,-10.1824455261,79.8186950684,-0.0576425791,-0.0517506599,-0.0021977127,-57.4285125732,84.8086471558,-120.0827636719,0.0217769742,0.0227097273,0.0226884782,43.2628860474,41.0610580444,-112.0185241699,0.0714137554,-0.0144165754,-0.0086593032,
381.773,-3.2864387035,1.3842886686,43.7005653381,0.0602908581,0.0451039970,0.0087726116,-103.6748657227,-10.2187690735,79.7111434937,-0.0538719893,-0.0522528887,0.0037316233,-57.4968566895,84.8063430786,-120.1467514038,0.0222616196,0.0242662132,0.0295979083,43.2691383362,41.0550613403,-112.0081558228,0.0830535889,-0.0106173754,-0.0076763630,
381.783,-3.2861535549,1.3855634928,43.7016487122,0.0578716956,0.0411927514,0.0097503662,-103.6531066895,-10.2542943954,79.6014404297,-0.0593649745,-0.0454357862,-0.0005637705,-57.5655403137,84.8035583496,-120.2102279663,0.0261634588,0.0185084939,0.0223408043,43.2715072632,41.0525016785,-112.0004272461,0.0654417872,-0.0121250153,-0.0071882010,
381.793,-3.2877600193,1.3861254454,43.7027702332,0.0583697855,0.0387793183,0.0141466856,-103.6329803467,-10.2873601913,79.4889602661,-0.0589562356,-0.0474074483,-0.0092247725,-57.6279830933,84.8006515503,-120.2669067383,0.0222526193,0.0156728327,0.0282610059,43.2697601318,41.0546379089,-111.9935607910,0.0625402331,-0.0159977078,-0.0042564273,
381.803,-3.2862863541,1.3873591423,43.7050628662,0.0603444353,0.0431481376,0.0077979565,-103.6104812622,-10.3247079849,79.3761596680,-0.0571562052,-0.0479182005,-0.0101160109,-57.6819610596,84.8002014160,-120.3150711060,0.0271347165,0.0196331739,0.0219829679,43.2693786621,41.0564079285,-111.9869232178,0.0664696693,-0.0154919624,-0.0057098866,
381.813,-3.2846891880,1.3880094290,43.7062110901,0.0598674975,0.0480031222,0.0038903952,-103.5838165283,-10.3588542938,79.2621459961,-0.0592072904,-0.0571914911,0.0001551956,-57.7205543518,84.8026885986,-120.3490219116,0.0212792754,0.0196310878,0.0230349600,43.2705764771,41.0556335449,-111.9788284302,0.0684126616,-0.0072087049,-0.0047289729,
381.823,-3.2821109295,1.3891985416,43.7085723877,0.0584233999,0.0469816178,0.0097476840,-103.5549850464,-10.3911695480,79.1447753906,-0.0573206842,-0.0542448163,0.0040450990,-57.7405700684,84.8059310913,-120.3653564453,0.0183547139,0.0308328569,0.0309040248,43.2724189758,41.0549278259,-111.9721832275,0.0693798661,-0.0091850162,-0.0052067041,
381.833,-3.2802915573,1.3896447420,43.7091178894,0.0584311858,0.0445085093,0.0073046684,-103.5286026001,-10.4225244522,79.0252914429,-0.0534643829,-0.0527700186,-0.0017898083,-57.7872009277,84.8063430786,-120.4062423706,0.0159139633,0.0269612372,0.0231591761,43.2733840942,41.0539550781,-111.9658050537,0.0664374828,-0.0160378218,-0.0042294264,
381.843,-3.2800009251,1.3885372877,43.7103652954,0.0598767065,0.0454800278,0.0121862888,-103.5031127930,-10.4486522675,78.9003295898,-0.0631902218,-0.0537247658,-0.0071172416,-57.8540954590,84.8020019531,-120.4686813354,0.0120008588,0.0221989453,0.0261414051,43.2751197815,41.0525817871,-111.9571380615,0.0649545193,-0.0131356120,-0.0042253137,
381.853,-3.2825002670,1.3878514767,43.7096557617,0.0623061433,0.0401524939,0.0117009878,-103.4779510498,-10.4751691818,78.7745819092,-0.0597390831,-0.0551705360,-0.0070687681,-57.9339294434,84.8001251221,-120.5447998047,0.0149275661,0.0271773040,0.0281878114,43.2759056091,41.0504722595,-111.9490356445,0.0600439310,-0.0175542831,-0.0052124262,
381.863,-3.2813241482,1.3858020306,43.7114944458,0.0652000755,0.0464797094,0.0053502321,-103.4485015869,-10.5018148422,78.6474075317,-0.0611729324,-0.0468347073,-0.0017205328,-57.9800186157,84.7988739014,-120.5847320557,0.0144373178,0.0286999345,0.0306813717,43.2786254883,41.0491905212,-111.9406890869,0.0693044066,-0.0151489377,-0.0139876008,
381.873,-3.2823154926,1.3852871656,43.7126083374,0.0617731251,0.0411259010,0.0033986568,-103.4198684692,-10.5266904831,78.5185012817,-0.0679474473,-0.0546101332,-0.0056350380,-58.0541534424,84.7956085205,-120.6543121338,0.0212680697,0.0224635303,0.0214767754,43.2765808105,41.0462951660,-111.9351196289,0.0663366318,-0.0175935626,0.0020831823,
381.883,-3.2824277878,1.3858162165,43.7149162292,0.0627589151,0.0440575257,0.0063287020,-103.3867263794,-10.5523185730,78.3866958618,-0.0625278056,-0.0565111041,-0.0027894676,-58.0821342468,84.7944412231,-120.6767425537,0.0198013783,0.0259224176,0.0327354372,43.2809066772,41.0413017273,-111.9253616333,0.0740833879,-0.0083968639,-0.0111030340,
381.893,-3.2823448181,1.3873729706,43.7171745300,0.0613212362,0.0425912030,0.0068171024,-103.3539123535,-10.5760040283,78.2507629395,-0.0643990636,-0.0501071215,-0.0033547729,-58.1229820251,84.7895507813,-120.7120132446,0.0178405046,0.0235865414,0.0317713916,43.2824974060,41.0389518738,-111.9184799194,0.0691695809,-0.0152664781,-0.0091552138,
381.903,-3.2822260857,1.3875719309,43.7176284790,0.0637661144,0.0406360030,0.0121884346,-103.3227081299,-10.6001424789,78.1114959717,-0.0657897592,-0.0466409326,-0.0087766647,-58.1930236816,84.7889785767,-120.7738189697,0.0256521106,0.0192603171,0.0225860476,43.2835083008,41.0368423462,-111.9110412598,0.0618176460,-0.0177341700,-0.0018393993,
381.913,-3.2797808647,1.3881347179,43.7199783325,0.0584048405,0.0401051119,0.0077918172,-103.2880096436,-10.6202774048,77.9666976929,-0.0661351681,-0.0485199690,-0.0069299042,-58.2184448242,84.7874374390,-120.7918243408,0.0232082605,0.0280923843,0.0299325585,43.2825965881,41.0362625122,-111.9043731689,0.0637631416,-0.0143119693,-0.0008758307,
381.923,-3.2805058956,1.3866540194,43.7199783325,0.0608204119,0.0420709066,0.0087679625,-103.2539596558,-10.6417741776,77.8183364868,-0.0601562560,-0.0421055555,-0.0128856450,-58.2725219727,84.7872543335,-120.8372573853,0.0207665563,0.0266782045,0.0290279388,43.2849273682,41.0308761597,-111.8950653076,0.0749227405,-0.0085172057,0.0034948587,
381.933,-3.2817113400,1.3882398605,43.7222290039,0.0588949546,0.0381856151,0.0014463663,-103.2156829834,-10.6652994156,77.6657333374,-0.0527472794,-0.0483770967,-0.0062179714,-58.3295593262,84.7861557007,-120.8886032104,0.0173468590,0.0150231719,0.0310513079,43.2883567810,41.0284538269,-111.8859405518,0.0704962015,-0.0066161156,-0.0062600374,
381.943,-3.2829158306,1.3872457743,43.7228622437,0.0613190159,0.0489488058,0.0068172216,-103.1786880493,-10.6872701645,77.5113983154,-0.0614248812,-0.0526958108,-0.0180828720,-58.3697624207,84.7856750488,-120.9254989624,0.0188109279,0.0209253728,0.0257303417,43.2852439880,41.0283775330,-111.8842391968,0.0636593103,-0.0173290372,0.0010349751,
381.953,-3.2813086510,1.3866077662,43.7246780396,0.0603313223,0.0479442626,0.0073043704,-103.1350708008,-10.7047863007,77.3534164429,-0.0622135699,-0.0486748219,-0.0041757822,-58.4402580261,84.7842788696,-120.9944152832,0.0232032537,0.0200279355,0.0199574828,43.2879714966,41.0287590027,-111.8766708374,0.0729416609,-0.0105161667,-0.0087022185,
381.963,-3.2801387310,1.3855955601,43.7257690430,0.0656847581,0.0401114076,0.0043731332,-103.0938415527,-10.7220916748,77.1923522949,-0.0625103414,-0.0514985919,-0.0068308711,-58.4734115601,84.7839050293,-121.0267486572,0.0173432827,0.0200618804,0.0287892222,43.2866287231,41.0301513672,-111.8742141724,0.0656358004,-0.0158634186,-0.0018668771,
381.973,-3.2813601494,1.3843822479,43.7263641357,0.0602924898,0.0401327163,0.0170691609,-103.0525131226,-10.7330484390,77.0298995972,-0.0705107152,-0.0499087572,-0.0119231939,-58.5129280090,84.7844314575,-121.0685501099,0.0192972422,0.0230191052,0.0288476050,43.2911033630,41.0276794434,-111.8685150146,0.0695095658,-0.0061601400,-0.0150306225,
381.983,-3.2787532806,1.3851498365,43.7287063599,0.0598176010,0.0449701026,0.0073012114,-103.0116882324,-10.7412462234,76.8593444824,-0.0647919178,-0.0434287786,-0.0087061077,-58.5491104126,84.7821807861,-121.1052856445,0.0227116346,0.0269883573,0.0303431749,43.2950019836,41.0259857178,-111.8632125854,0.0694872737,-0.0159764886,-0.0076860189,
381.993,-3.2777874470,1.3848500252,43.7317199707,0.0593240932,0.0434884392,0.0053467751,-102.9711914063,-10.7372646332,76.6825332642,-0.0749775469,-0.0432603955,-0.0167039484,-58.5881156921,84.7811660767,-121.1461563110,0.0153858066,0.0275231302,0.0338076353,43.2998046875,41.0207290649,-111.8560180664,0.0699062943,-0.0048332810,-0.0057327151,
382.003,-3.2768204212,1.3807975054,43.7311668396,0.0675541610,0.0459130928,0.0082739592,-102.9279861450,-10.7324838638,76.5005874634,-0.0700127482,-0.0430793762,-0.0008210838,-58.6597518921,84.7810592651,-121.2169723511,0.0183153152,0.0266114473,0.0221856833,43.3049049377,41.0230712891,-111.8488769531,0.0557769537,-0.0136529803,-0.0090857744,
382.013,-3.2751183510,1.3775600195,43.7336158752,0.0674976707,0.0439304002,0.0092470646,-102.8848648071,-10.7221040726,76.3164215088,-0.0747175813,-0.0511822701,-0.0020229667,-58.7121238708,84.7816543579,-121.2685699463,0.0163631439,0.0217642784,0.0281235278,43.3045730591,41.0219841003,-111.8449249268,0.0689462423,-0.0185409784,-0.0090969801,
382.023,-3.2749941349,1.3798713684,43.7352561951,0.0563075319,0.0385570861,0.0033891201,-102.8455886841,-10.7114334106,76.1314163208,-0.0696517527,-0.0475805998,-0.0046253055,-58.7755165100,84.7842025757,-121.3301467896,0.0149023533,0.0256868303,0.0326290131,43.3074073792,41.0214576721,-111.8370513916,0.0694275498,-0.0127130747,-0.0061467886,
382.033,-3.2763447762,1.3812440634,43.7369232178,0.0597494543,0.0376040116,0.0082734823,-102.8071365356,-10.7019395828,75.9472198486,-0.0753483176,-0.0508223176,-0.0077031255,-58.7997627258,84.7886047363,-121.3497619629,0.0202804208,0.0236892998,0.0214720070,43.3098716736,41.0227737427,-111.8311767578,0.0660269260,-0.0127262473,-0.0046483874,
382.043,-3.2751300335,1.3788976669,43.7381401062,0.0660561621,0.0488133803,0.0038771033,-102.7738571167,-10.6936721802,75.7638244629,-0.0786245167,-0.0550644398,-0.0136250257,-58.8146209717,84.7905273438,-121.3625793457,0.0212600231,0.0236750841,0.0278564990,43.3102912903,41.0263366699,-111.8261260986,0.0670504570,-0.0175851583,-0.0119389892,
382.053,-3.2759389877,1.3803778887,43.7398796082,0.0572929345,0.0458977520,0.0102260709,-102.7343368530,-10.6894321442,75.5797729492,-0.0726923943,-0.0578312874,-0.0025644749,-58.8322753906,84.7951889038,-121.3787689209,0.0232205391,0.0270403922,0.0240156949,43.3112411499,41.0285415649,-111.8209838867,0.0680559874,-0.0102527142,-0.0109354854,
382.063,-3.2734477520,1.3793326616,43.7405509949,0.0572746992,0.0468309447,0.0087583065,-102.6943435669,-10.6819505692,75.3932647705,-0.0691461563,-0.0464263558,-0.0090879649,-58.8831596375,84.7989501953,-121.4305419922,0.0217616558,0.0226345658,0.0202129483,43.3123359680,41.0298118591,-111.8163375854,0.0656313300,-0.0156242847,-0.0040791035,
382.073,-3.2750277519,1.3792104721,43.7422485352,0.0626436621,0.0390459672,0.0029004812,-102.6536788940,-10.6708803177,75.2037811279,-0.0748156607,-0.0462386608,0.0029346794,-58.9443244934,84.7995605469,-121.4914474487,0.0110204220,0.0197485983,0.0261619687,43.3151779175,41.0280303955,-111.8121490479,0.0729320645,-0.0093178749,-0.0104159117,
382.083,-3.2769980431,1.3765089512,43.7452354431,0.0679676160,0.0395686403,0.0112019777,-102.6233749390,-10.6545228958,75.0109939575,-0.0759999156,-0.0470497608,-0.0151395798,-58.9962806702,84.8025741577,-121.5432891846,0.0168845654,0.0290242434,0.0257735550,43.3149452209,41.0265769958,-111.8074951172,0.0714481473,-0.0107918978,-0.0021293759,
382.093,-3.2762007713,1.3765375614,43.7469940186,0.0601556152,0.0429727174,0.0077831745,-102.5920333862,-10.6387443542,74.8173065186,-0.0757292807,-0.0527423620,-0.0083290339,-59.0071067810,84.8031082153,-121.5558013916,0.0193268061,0.0236566961,0.0306743681,43.3123092651,41.0273323059,-111.8053665161,0.0616924167,-0.0175967216,-0.0045884848,
382.103,-3.2745926380,1.3735181093,43.7488441467,0.0644974634,0.0414799340,0.0102217197,-102.5552444458,-10.6257114410,74.6241912842,-0.0774588287,-0.0628180504,-0.0055180341,-59.0033798218,84.8037033081,-121.5523376465,0.0183511972,0.0231539607,0.0238405168,43.3063125610,41.0296592712,-111.8057250977,0.0631878972,-0.0219154358,-0.0021817684,
382.113,-3.2746798992,1.3718090057,43.7500457764,0.0639793575,0.0463643111,0.0077797771,-102.5092620850,-10.6151027679,74.4333724976,-0.0841127932,-0.0684732199,-0.0072572827,-59.0350837708,84.8046798706,-121.5850067139,0.0212824345,0.0217037499,0.0263327956,43.3061828613,41.0306091309,-111.8035812378,0.0636887550,-0.0136058927,-0.0007098913,
382.123,-3.2751743793,1.3728808165,43.7493247986,0.0581386872,0.0429549292,0.0072925091,-102.4585418701,-10.6120309830,74.2447052002,-0.0801538527,-0.0619279146,-0.0071285069,-59.0819129944,84.8047561646,-121.6341476440,0.0149348974,0.0207648575,0.0298169553,43.3057250977,41.0283546448,-111.8013916016,0.0675652623,-0.0145959258,0.0046375990,
382.133,-3.2744498253,1.3718827963,43.7505302429,0.0615392439,0.0448954515,0.0092445612,-102.4018096924,-10.6161880493,74.0563659668,-0.0709478259,-0.0631963015,-0.0051527470,-59.1500511169,84.8027191162,-121.7020950317,0.0129785538,0.0198745430,0.0284295678,43.3079986572,41.0285186768,-111.7948913574,0.0534072518,-0.0121749043,-0.0002225041,
382.143,-3.2727320194,1.3704754114,43.7530059814,0.0610264018,0.0482835323,0.0077770352,-102.3465423584,-10.6199741364,73.8685226440,-0.0768721402,-0.0542162061,-0.0085229874,-59.2667503357,84.8000106812,-121.8198471069,0.0124859810,0.0244059265,0.0222211480,43.3116798401,41.0230522156,-111.7882003784,0.0660306215,-0.0083468556,-0.0002349615,
382.153,-3.2729740143,1.3699377775,43.7541770935,0.0600404628,0.0414518155,0.0126599669,-102.2954330444,-10.6237564087,73.6813278198,-0.0764487386,-0.0476934910,-0.0084059238,-59.3673934937,84.7948455811,-121.9218063354,0.0163840652,0.0245641768,0.0345248282,43.3195571899,41.0191040039,-111.7772140503,0.0571895838,-0.0133361220,-0.0065443516,
382.163,-3.2751550674,1.3711875677,43.7558288574,0.0600622669,0.0390483774,0.0048503876,-102.2514266968,-10.6245508194,73.4914550781,-0.0872045457,-0.0426530242,-0.0174447894,-59.4588356018,84.7908248901,-122.0140533447,0.0183308125,0.0315346718,0.0351064205,43.3243942261,41.0135574341,-111.7673034668,0.0615110397,-0.0109847784,-0.0045944452,
382.173,-3.2756056786,1.3706568480,43.7551307678,0.0615178496,0.0410093665,0.0048505664,-102.2058334351,-10.6280345917,73.3003692627,-0.0799401104,-0.0420104265,-0.0030747503,-59.6106643677,84.7925491333,-122.1653289795,0.0188218355,0.0296841562,0.0260552168,43.3287353516,41.0056915283,-111.7603759766,0.0804504156,-0.0086467266,-0.0080379248,
382.183,-3.2775065899,1.3722898960,43.7561874390,0.0586166568,0.0400658809,0.0053415298,-102.1610488892,-10.6316070557,73.1066284180,-0.0853724778,-0.0452773571,-0.0062702745,-59.7073059082,84.7909011841,-122.2617874146,0.0188192129,0.0234385133,0.0232485235,43.3295288086,40.9996910095,-111.7545623779,0.0784182549,-0.0101662874,-0.0071041584,
382.193,-3.2771978378,1.3726265430,43.7579078674,0.0610639378,0.0434784554,0.0033882260,-102.1176986694,-10.6419391632,72.9132156372,-0.0801786184,-0.0500363111,-0.0148171186,-59.7970542908,84.7925491333,-122.3487930298,0.0280991793,0.0220238864,0.0199702978,43.3308525085,41.0001335144,-111.7488861084,0.0725647211,-0.0189647079,-0.0163664818,
382.203,-3.2764358521,1.3727734089,43.7608718872,0.0620430633,0.0449300297,0.0053402185,-102.0717010498,-10.6564788818,72.7196807861,-0.0867756605,-0.0533350110,-0.0126689225,-59.8411483765,84.7952270508,-122.3926010132,0.0183377862,0.0210441351,0.0244497955,43.3289527893,41.0052299500,-111.7461700439,0.0589599609,-0.0135352015,-0.0104811192,
382.213,-3.2753453255,1.3720417023,43.7613868713,0.0625185743,0.0419813581,0.0063161850,-102.0205993652,-10.6780786514,72.5282821655,-0.0856813192,-0.0585916042,-0.0140291750,-59.8838386536,84.7990341187,-122.4370346069,0.0246914625,0.0244419575,0.0304011106,43.3289337158,41.0066413879,-111.7418975830,0.0628848076,-0.0086413026,-0.0104702115,
382.223,-3.2741668224,1.3709459305,43.7626342773,0.0595697686,0.0444022641,0.0043603182,-101.9660415649,-10.7050161362,72.3370971680,-0.0876081288,-0.0633653402,-0.0066623539,-59.9850044250,84.8055191040,-122.5405654907,0.0232368708,0.0205239952,0.0286446512,43.3297271729,41.0103797913,-111.7369079590,0.0570746660,-0.0100842714,-0.0065255165,
382.233,-3.2744400501,1.3709328175,43.7637596130,0.0600578226,0.0414773375,0.0043613911,-101.9195022583,-10.7355642319,72.1483383179,-0.0861788392,-0.0593911409,-0.0162527412,-60.0895233154,84.8050994873,-122.6480331421,0.0159119964,0.0269630551,0.0248816013,43.3287773132,41.0113716125,-111.7346038818,0.0565994978,-0.0169032812,0.0017752647,
382.243,-3.2734785080,1.3697909117,43.7649383545,0.0619910210,0.0414606072,0.0077773333,-101.8727874756,-10.7684030533,71.9582366943,-0.0803942680,-0.0593306422,-0.0121763349,-60.2548522949,84.8008346558,-122.8193359375,0.0115107298,0.0222768188,0.0221489370,43.3328552246,41.0102500916,-111.7274169922,0.0536549687,-0.0120683908,-0.0006388426,
382.253,-3.2751600742,1.3683729172,43.7648735046,0.0624545626,0.0410016552,0.0009433031,-101.8292541504,-10.7996368408,71.7682113647,-0.0887422860,-0.0529297590,-0.0231816322,-60.4373092651,84.7936477661,-123.0061645508,0.0183352828,0.0181353986,0.0326002240,43.3360595703,41.0062789917,-111.7194442749,0.0604386330,-0.0179896951,0.0017984509,
382.263,-3.2755689621,1.3671269417,43.7660140991,0.0643859506,0.0410088114,0.0048488975,-101.7877578735,-10.8268680573,71.5774612427,-0.0906739533,-0.0426175594,-0.0224317908,-60.6479187012,84.7903747559,-123.2241058350,0.0173535347,0.0290936232,0.0192005038,43.3406105042,41.0001602173,-111.7121963501,0.0549869537,-0.0175930858,-0.0055356026,
382.273,-3.2733972073,1.3689166307,43.7665519714,0.0561163910,0.0478068739,0.0151014328,-101.7456665039,-10.8557710648,71.3846969604,-0.0940991044,-0.0479346514,-0.0231575221,-60.8347549438,84.7832717896,-123.4177551270,0.0188071132,0.0234904289,0.0281945765,43.3470687866,40.9894866943,-111.7052459717,0.0655885339,-0.0045551658,0.0066411495,
382.283,-3.2762339115,1.3684326410,43.7670593262,0.0595259145,0.0346727073,0.0068033934,-101.6998901367,-10.8810977936,71.1899948120,-0.0969746113,-0.0434623957,-0.0215016305,-61.0227699280,84.7770004272,-123.6149826050,0.0207502842,0.0222653151,0.0269481838,43.3496971130,40.9812545776,-111.7001800537,0.0664566755,-0.0163637996,-0.0051224232,
382.293,-3.2776386738,1.3670250177,43.7682151794,0.0648724511,0.0439745560,0.0028979778,-101.6482467651,-10.9127159119,70.9927520752,-0.0901922882,-0.0531512499,-0.0175068676,-61.1645050049,84.7696533203,-123.7635116577,0.0202503204,0.0215128958,0.0324591994,43.3566513062,40.9721870422,-111.6911010742,0.0726847649,-0.0072243214,-0.0022052526,
382.303,-3.2754268646,1.3684561253,43.7692871094,0.0595263243,0.0414945818,0.0111967325,-101.5897140503,-10.9445199966,70.7941284180,-0.0946435630,-0.0510993600,-0.0224172771,-61.3277053833,84.7647094727,-123.9321746826,0.0168244839,0.0222004652,0.0243541896,43.3617324829,40.9636535645,-111.6845397949,0.0662246943,-0.0044103265,0.0021642447,
382.313,-3.2766158581,1.3710523844,43.7709960938,0.0532239713,0.0424917974,0.0048520565,-101.5259552002,-10.9760856628,70.5902023315,-0.0946961641,-0.0431710482,-0.0191140324,-61.5085830688,84.7611160278,-124.1191864014,0.0153539181,0.0243517160,0.0260477066,43.3666725159,40.9568367004,-111.6759185791,0.0656465888,-0.0074409246,-0.0032188296,
382.323,-3.2755711079,1.3713215590,43.7715568542,0.0590880401,0.0439384356,0.0082681179,-101.4624252319,-11.0053310394,70.3841629028,-0.0942206383,-0.0469555855,-0.0133649111,-61.6635932922,84.7576751709,-124.2803497314,0.0182781219,0.0259859264,0.0257572234,43.3738479614,40.9520492554,-111.6659164429,0.0665600300,-0.0085238218,-0.0090528131,
382.333,-3.2746214867,1.3697952032,43.7721366882,0.0610145368,0.0414805263,0.0063140392,-101.4027786255,-11.0355587006,70.1776275635,-0.0966916084,-0.0512467623,-0.0226873755,-61.8364982605,84.7561035156,-124.4580993652,0.0172990561,0.0256588161,0.0230617523,43.3751258850,40.9447021484,-111.6614379883,0.0635334253,-0.0154297948,0.0021280050,
382.343,-3.2762238979,1.3698292971,43.7750434875,0.0649213791,0.0429732837,0.0141282082,-101.3463363647,-11.0694465637,69.9728393555,-0.0884830356,-0.0462843180,-0.0143809170,-62.0137786865,84.7527465820,-124.6410293579,0.0133874416,0.0248670280,0.0301291049,43.3809928894,40.9425544739,-111.6529617310,0.0542278290,-0.0086669326,-0.0071141124,
382.353,-3.2754428387,1.3711441755,43.7754745483,0.0620146319,0.0429596417,0.0126630068,-101.2912139893,-11.0992174149,69.7708129883,-0.0977820158,-0.0520567894,-0.0143495798,-62.1955070496,84.7507324219,-124.8318939209,0.0192435980,0.0250393748,0.0215857625,43.3834457397,40.9386024475,-111.6480255127,0.0688241720,-0.0150691867,-0.0071247816,
382.363,-3.2740077972,1.3704352379,43.7778358459,0.0649319589,0.0473291911,0.0058254004,-101.2368774414,-11.1309099197,69.5681915283,-0.0997896194,-0.0505148172,-0.0177248120,-62.3859596252,84.7499847412,-125.0309753418,0.0168009996,0.0261715651,0.0252753794,43.3867759705,40.9333610535,-111.6405334473,0.0677784681,-0.0180718899,-0.0051848888,
382.373,-3.2727055550,1.3684930801,43.7784576416,0.0624566600,0.0448651500,0.0058233142,-101.1799468994,-11.1655521393,69.3664169312,-0.0984297097,-0.0558110476,-0.0133336037,-62.5920829773,84.7459945679,-125.2457199097,0.0192360282,0.0268765688,0.0235906243,43.3917579651,40.9274215698,-111.6348495483,0.0686767101,-0.0152366161,-0.0047007799,
382.383,-3.2737431526,1.3669495583,43.7814369202,0.0638945699,0.0385356024,0.0111949444,-101.1195449829,-11.1992626190,69.1630706787,-0.0999834538,-0.0557234287,-0.0226709843,-62.8027648926,84.7393188477,-125.4640960693,0.0226433277,0.0271365345,0.0345881283,43.3950653076,40.9231224060,-111.6280288696,0.0608075857,-0.0143254995,-0.0037300587,
382.393,-3.2745809555,1.3671448231,43.7807655334,0.0570620373,0.0395267531,0.0116841793,-101.0505447388,-11.2322978973,68.9561538696,-0.1020138562,-0.0521881580,-0.0155519694,-63.0135612488,84.7342529297,-125.6829986572,0.0148227215,0.0293252170,0.0260679126,43.4018287659,40.9156875610,-111.6178436279,0.0670571327,-0.0085893273,-0.0095897913,
382.403,-3.2747287750,1.3679828644,43.7818145752,0.0639126003,0.0439238399,0.0151022077,-100.9772796631,-11.2649784088,68.7462158203,-0.1025732756,-0.0481516719,-0.0197344869,-63.2080612183,84.7259292603,-125.8833160400,0.0192039013,0.0271547437,0.0336138010,43.4063949585,40.9047164917,-111.6092224121,0.0683772564,-0.0106723905,0.0035439730,
382.413,-3.2768023014,1.3705579042,43.7822341919,0.0576098785,0.0415184945,0.0136408806,-100.8959960938,-11.2960243225,68.5319595337,-0.1016398370,-0.0440858603,-0.0177030116,-63.3948822021,84.7194290161,-126.0728302002,0.0201700330,0.0283667743,0.0313990712,43.4109458923,40.8981704712,-111.6008911133,0.0658494830,-0.0127205253,-0.0037931204,
382.423,-3.2753889561,1.3694131374,43.7840690613,0.0600313060,0.0429587476,0.0092439651,-100.8121032715,-11.3228912354,68.3157424927,-0.0991699696,-0.0419530869,-0.0230368525,-63.6026420593,84.7149810791,-126.2863235474,0.0133269429,0.0281004012,0.0282535255,43.4135322571,40.8897857666,-111.5931854248,0.0672037601,-0.0152524710,0.0034850836,
382.433,-3.2772476673,1.3696780205,43.7863006592,0.0639421791,0.0356669016,0.0131530762,-100.7276153564,-11.3481121063,68.0943145752,-0.0991132557,-0.0359088182,-0.0259387344,-63.8309364319,84.7102355957,-126.5190048218,0.0245497823,0.0254107714,0.0241610110,43.4205818176,40.8829231262,-111.5799484253,0.0710194111,-0.0085380077,-0.0140861273,
382.443,-3.2750706673,1.3715193272,43.7874984741,0.0537203997,0.0478359647,0.0087560415,-100.6473464966,-11.3708105087,67.8703536987,-0.0970602632,-0.0396372080,-0.0263267159,-64.0045166016,84.7055358887,-126.6952056885,0.0089172125,0.0309796631,0.0287781954,43.4264717102,40.8739395142,-111.5689315796,0.0704125762,-0.0130595565,-0.0092245340,
382.453,-3.2752296925,1.3725858927,43.7898139954,0.0586218238,0.0439324528,0.0028980374,-100.5659942627,-11.3908452988,67.6465835571,-0.1027741432,-0.0399373174,-0.0111065358,-64.1931381226,84.7006149292,-126.8887786865,0.0264874101,0.0228894949,0.0246286094,43.4312324524,40.8674087524,-111.5605087280,0.0756974816,-0.0146212578,-0.0067939758,
382.463,-3.2750294209,1.3733878136,43.7903480530,0.0571709648,0.0409992598,0.0068043470,-100.4905014038,-11.4110374451,67.4267120361,-0.1026313305,-0.0461176038,-0.0245966762,-64.3540115356,84.6962890625,-127.0564117432,0.0235507488,0.0230755806,0.0277636051,43.4332008362,40.8632278442,-111.5555648804,0.0639235973,-0.0132080913,-0.0019279718,
382.473,-3.2782001495,1.3731650114,43.7908554077,0.0630264580,0.0420310646,0.0102249384,-100.4135971069,-11.4296693802,67.2074432373,-0.1024618149,-0.0449660420,-0.0302970856,-64.5119476318,84.6954421997,-127.2206954956,0.0181782842,0.0310111046,0.0294604003,43.4363098145,40.8587646484,-111.5488510132,0.0677709579,-0.0201088190,-0.0092608929,
382.483,-3.2793402672,1.3746083975,43.7930603027,0.0640282035,0.0425391719,0.0112040043,-100.3350372314,-11.4474716187,66.9878082275,-0.1022780538,-0.0428315401,-0.0150292367,-64.7257461548,84.6920013428,-127.4429779053,0.0176844597,0.0229155123,0.0185247660,43.4431838989,40.8556632996,-111.5418853760,0.0643119812,-0.0118983984,-0.0116657019,
382.493,-3.2816886902,1.3747426271,43.7948188782,0.0596360192,0.0406269543,0.0033928752,-100.2575988770,-11.4591665268,66.7653274536,-0.1117554605,-0.0416582823,-0.0212231576,-64.9465179443,84.6844787598,-127.6755294800,0.0157191753,0.0217229426,0.0275903642,43.4466362000,40.8505172729,-111.5367355347,0.0627792478,-0.0114835501,-0.0009348392,
382.503,-3.2830584049,1.3770334721,43.7957420349,0.0626056716,0.0377210714,0.0019311905,-100.1832962036,-11.4677553177,66.5396347046,-0.0987187922,-0.0482987165,-0.0322445035,-65.1814117432,84.6796188354,-127.9216384888,0.0191292763,0.0263571441,0.0254680514,43.4541625977,40.8447189331,-111.5298233032,0.0622143745,-0.0164840817,-0.0092154145,
382.513,-3.2831420898,1.3762569427,43.7963104248,0.0606390014,0.0421170704,0.0092546940,-100.1089324951,-11.4683475494,66.3097991943,-0.1109359562,-0.0295217633,-0.0378926545,-65.3980255127,84.6716613770,-128.1512145996,0.0137453079,0.0276067555,0.0242739320,43.4644546509,40.8388748169,-111.5208358765,0.0582309365,-0.0102810264,-0.0077055693,
382.523,-3.2826187611,1.3743066788,43.7975273132,0.0649994984,0.0484556668,0.0121834278,-100.0290679932,-11.4629516602,66.0763473511,-0.1127967834,-0.0331713557,-0.0255625248,-65.5835037231,84.6628494263,-128.3467864990,0.0225200653,0.0278726220,0.0327928662,43.4729957581,40.8302116394,-111.5118637085,0.0693470836,-0.0128721595,-0.0072112083,
382.533,-3.2830355167,1.3749092817,43.7974967957,0.0576857999,0.0474863462,0.0048594475,-99.9423828125,-11.4553976059,65.8410949707,-0.1155972183,-0.0363066196,-0.0201829970,-65.7385025024,84.6558074951,-128.5100708008,0.0210437775,0.0315068066,0.0334669948,43.4771499634,40.8203697205,-111.5057373047,0.0780060887,-0.0115243793,-0.0092080832,
382.543,-3.2827234268,1.3737314939,43.7974090576,0.0640129074,0.0435746871,0.0077888966,-99.8526077271,-11.4444971085,65.6022262573,-0.1178521812,-0.0330760479,-0.0309672505,-65.9016799927,84.6533126831,-128.6793518066,0.0190865993,0.0282373428,0.0210039020,43.4818229675,40.8144569397,-111.4975204468,0.0686506629,-0.0116156340,-0.0116559267,
382.553,-3.2820978165,1.3732881546,43.7979240417,0.0615637600,0.0381927043,0.0077875853,-99.7606201172,-11.4361047745,65.3599243164,-0.1103844047,-0.0479162931,-0.0256776363,-66.0970306396,84.6515808105,-128.8764343262,0.0195720792,0.0220516622,0.0203118324,43.4813117981,40.8057594299,-111.4908676147,0.0773248672,-0.0131437778,0.0014510155,
382.563,-3.2835085392,1.3756154776,43.7983360291,0.0562332794,0.0352875367,0.0107198358,-99.6631088257,-11.4294166565,65.1161117554,-0.1112465560,-0.0388233662,-0.0248770714,-66.2497634888,84.6491317749,-129.0316619873,0.0220094919,0.0202380717,0.0268771350,43.4837951660,40.8053932190,-111.4840774536,0.0597418547,-0.0151236653,-0.0112248659,
