Time(sec),Gyr1_X(deg/sec),Gyr1_Y(deg/sec),Gyr1_Z(deg/sec),Acc1_X(m/s^2),Acc1_Y(m/s^2),Acc1_Z(m/s^2),Gyr2_X(deg/sec),Gyr2_Y(deg/sec),Gyr2_Z(deg/sec),Acc2_X(m/s^2),Acc2_Y(m/s^2),Acc2_Z(m/s^2),Gyr_X(deg/sec),Gyr_Y(deg/sec),Gyr_Z(deg/sec),Acc_X(m/s^2),Acc_Y(m/s^2),Acc_Z(m/s^2),Gyr_X(deg/sec),Gyr_Y(deg/sec),Gyr_Z(deg/sec),Acc_X(m/s^2),Acc_Y(m/s^2),Acc_Z(m/s^2),
109.713,-3.2960515022,1.4016023874,12.3782520294,0.0605929494,0.0442944542,0.0063488483,-114.5423583984,72.4409103394,53.3143005371,0.0193243027,0.0696906745,0.0021544695,-10.9071092606,84.3267364502,80.2790451050,0.0243986845,0.0283967257,0.0252948403,42.4756813049,43.4269676208,68.4321136475,0.0653591156,-0.0095688403,-0.0054960251,
109.723,-3.2978343964,1.4022130966,12.3781213760,0.0620684512,0.0448137783,0.0087922812,-114.5452423096,72.4437789917,53.3159370422,0.0291050673,0.0657343864,0.0202149153,-10.8946962357,84.3300552368,80.3008880615,0.0214747190,0.0264122784,0.0165516734,42.4747772217,43.4280624390,68.4374313354,0.0629315376,-0.0110164285,0.0023183227,
109.733,-3.2980496883,1.4023522139,12.3804721832,0.0620708764,0.0457940958,0.0087926984,-114.5422515869,72.4459991455,53.3227119446,0.0252104402,0.0647311211,0.0172556639,-10.8968048096,84.3289489746,80.3079986572,0.0209845304,0.0254423916,0.0287444592,42.4711303711,43.4255294800,68.4418869019,0.0697354674,-0.0124675632,0.0027530193,
109.743,-3.2987723351,1.3998309374,12.3816661835,0.0644682944,0.0399473682,0.0024445057,-114.5492706299,72.4478607178,53.3206672668,0.0276616812,0.0681055486,0.0065342784,-10.8765735626,84.3272552490,80.3366165161,0.0263527036,0.0278546214,0.0282185674,42.4711189270,43.4255599976,68.4486770630,0.0672944188,-0.0100258589,-0.0040827990,
109.753,-3.2991487980,1.3997836113,12.3827943802,0.0625143424,0.0453250222,0.0097692609,-114.5599060059,72.4482879639,53.3153457642,0.0188748837,0.0651461780,0.0065823197,-10.8801155090,84.3278427124,80.3432540894,0.0283068419,0.0219992399,0.0204186440,42.4670257568,43.4246940613,68.4524307251,0.0750959516,-0.0148773789,-0.0002192259,
109.763,-3.2998909950,1.3985669613,12.3827800751,0.0620048344,0.0463145413,0.0078163147,-114.5651702881,72.4503021240,53.3160514832,0.0237683058,0.0685225129,0.0109883547,-10.8745985031,84.3293991089,80.3572158813,0.0214735866,0.0229611397,0.0228849053,42.4701881409,43.4257278442,68.4623870850,0.0712028146,-0.0109923482,-0.0036010742,
109.773,-3.3004543781,1.3984044790,12.3826904297,0.0605371520,0.0404649861,0.0102582574,-114.5561294556,72.4523162842,53.3313102722,0.0267085433,0.0670472682,0.0231382251,-10.8782100677,84.3285293579,80.3638153076,0.0258666277,0.0210170746,0.0258011818,42.4727439880,43.4265670776,68.4690704346,0.0658422709,-0.0090563297,-0.0084545612,
109.783,-3.3012599945,1.4000242949,12.3831710815,0.0566591658,0.0395024121,0.0136773586,-114.5558471680,72.4522552490,53.3362884521,0.0188957453,0.0592356026,0.0094652176,-10.8594579697,84.3283920288,80.3909378052,0.0214718580,0.0263561904,0.0253040791,42.4710998535,43.4240913391,68.4749679565,0.0706937313,-0.0124789476,0.0042050481,
109.793,-3.3032157421,1.4015222788,12.3836250305,0.0591267124,0.0419778489,0.0102626681,-114.5506896973,72.4559402466,53.3457641602,0.0198916793,0.0626100004,0.0191806555,-10.8549795151,84.3307113647,80.4044876099,0.0180578828,0.0253644884,0.0209464431,42.4701347351,43.4241065979,68.4799499512,0.0702056885,-0.0139346123,-0.0021508336,
109.803,-3.3048381805,1.3996591568,12.3854074478,0.0625121742,0.0366350673,0.0083098412,-114.5536727905,72.4565582275,53.3468666077,0.0277074575,0.0650349855,0.0099133849,-10.8292455673,84.3302612305,80.4379043579,0.0253813267,0.0282511711,0.0263009071,42.4663619995,43.4221954346,68.4828414917,0.0662751794,-0.0129382610,0.0041475296,
109.813,-3.3023066521,1.3982861042,12.3866100311,0.0649296194,0.0512394384,0.0073304176,-114.5601501465,72.4589157104,53.3438606262,0.0228370428,0.0688917637,0.0099282265,-10.8362817764,84.3295669556,80.4365997314,0.0200090408,0.0248473585,0.0272698402,42.4674835205,43.4241752625,68.4902954102,0.0628823042,-0.0114678741,-0.0060792565,
109.823,-3.3002719879,1.3976529837,12.3883943558,0.0624771640,0.0472977608,0.0078164339,-114.5712203979,72.4602432251,53.3361473083,0.0257737041,0.0664055049,0.0065543652,-10.8480587006,84.3295669556,80.4331893921,0.0278215408,0.0243795514,0.0262965560,42.4653930664,43.4210700989,68.4954833984,0.0760265589,-0.0104969144,-0.0022184253,
109.833,-3.3022444248,1.3994764090,12.3888158798,0.0600675717,0.0419609807,0.0083073974,-114.5829238892,72.4604492188,53.3296318054,0.0204036832,0.0610064566,-0.0012035370,-10.8219852448,84.3309555054,80.4682540894,0.0248942375,0.0257948637,0.0287522674,42.4650611877,43.4227828979,68.5002441406,0.0716537237,-0.0153627396,-0.0090419650,
109.843,-3.3017027378,1.3997250795,12.3881349564,0.0566539466,0.0380452946,0.0048888922,-114.5852661133,72.4630126953,53.3307838440,0.0223702788,0.0634039342,0.0163682699,-10.8063955307,84.3291549683,80.4914779663,0.0219614506,0.0282149315,0.0282291770,42.4667320251,43.4229583740,68.5086975098,0.0697028637,-0.0109824538,-0.0046316981,
109.853,-3.3024919033,1.3994550705,12.3892869949,0.0610437654,0.0439184159,0.0068426728,-114.5844421387,72.4643707275,53.3364830017,0.0223774314,0.0619202256,0.0168431401,-10.7866249084,84.3303298950,80.5194702148,0.0263580084,0.0315949917,0.0204295516,42.4677276611,43.4230079651,68.5162734985,0.0692151785,-0.0124562383,-0.0016930103,
109.863,-3.3008847237,1.3992640972,12.3904228210,0.0610404313,0.0414490215,0.0146536231,-114.5926742554,72.4669647217,53.3353767395,0.0228793621,0.0667458475,0.0100287199,-10.7589044571,84.3327484131,80.5566864014,0.0190379620,0.0334923863,0.0219258666,42.4689521790,43.4230003357,68.5242462158,0.0687267780,-0.0110028684,-0.0080300570,
109.873,-3.3035955429,1.4007823467,12.3909463882,0.0547192656,0.0414962061,0.0087976456,-114.6051330566,72.4685287476,53.3288726807,0.0243524313,0.0662066340,0.0056832433,-10.7555160522,84.3333053589,80.5691146851,0.0205037594,0.0217661560,0.0243747234,42.4696464539,43.4221725464,68.5318603516,0.0648100972,-0.0061332881,-0.0007077456,
109.883,-3.3042993546,1.4022054672,12.3914747238,0.0571855046,0.0463912375,0.0083103180,-114.6114425659,72.4702606201,53.3287734985,0.0209435821,0.0632368028,0.0052131414,-10.7532949448,84.3290481567,80.5773468018,0.0190315843,0.0173812509,0.0316271186,42.4698524475,43.4209632874,68.5379791260,0.0696775913,-0.0124925375,-0.0031573772,
109.893,-3.3076887131,1.4017671347,12.3925952911,0.0596192628,0.0347315446,0.0107553005,-114.6166076660,72.4707870483,53.3295822144,0.0253408551,0.0641942918,0.0091406107,-10.7197523117,84.3279113770,80.6203994751,0.0268421173,0.0290454328,0.0267146826,42.4695549011,43.4218368530,68.5436706543,0.0667589307,-0.0124827921,-0.0099887848,
109.903,-3.3093664646,1.4008719921,12.3950424194,0.0591153651,0.0450146943,0.0044088364,-114.6280975342,72.4698333740,53.3229255676,0.0316835046,0.0622303188,0.0028546453,-10.7327852249,84.3269042969,80.6164016724,0.0268403888,0.0173524916,0.0296316743,42.4688491821,43.4217987061,68.5495605469,0.0677350163,-0.0124764144,-0.0021820664,
109.913,-3.3093059063,1.3983459473,12.3968286514,0.0668837875,0.0425722934,0.0058724880,-114.6338043213,72.4703826904,53.3230667114,0.0214324594,0.0636745095,0.0102023482,-10.7424907684,84.3260803223,80.6156005859,0.0258623958,0.0227429569,0.0271800160,42.4689826965,43.4218444824,68.5574111938,0.0643176436,-0.0110124946,-0.0012041330,
109.923,-3.3105831146,1.3990290165,12.4003772736,0.0605480522,0.0440593772,0.0127101541,-114.6339569092,72.4711685181,53.3275260925,0.0297374129,0.0665916502,0.0136156082,-10.7458457947,84.3238067627,80.6193542480,0.0258584619,0.0212911367,0.0281196833,42.4665794373,43.4231567383,68.5616989136,0.0648225546,-0.0100027919,-0.0036543608,
109.933,-3.3101134300,1.4005806446,12.4026536942,0.0615516864,0.0460042804,0.0127102733,-114.6452636719,72.4730300903,53.3235664368,0.0238878131,0.0680038035,0.0063327551,-10.7556915283,84.3251800537,80.6191787720,0.0243960023,0.0242336392,0.0203326941,42.4674110413,43.4234733582,68.5688781738,0.0628734827,-0.0036604404,-0.0051100850,
109.943,-3.3127949238,1.3997136354,12.4043960571,0.0630014017,0.0416564718,0.0000171065,-114.6395416260,72.4741287231,53.3354148865,0.0258467197,0.0592105389,0.0185047388,-10.7643489838,84.3268051147,80.6171035767,0.0239105225,0.0237552524,0.0193858147,42.4688529968,43.4223823547,68.5778274536,0.0672541261,-0.0095420480,0.0007526875,
109.953,-3.3143267632,1.4002667665,12.4048595428,0.0620344914,0.0436362736,-0.0009574890,-114.6431579590,72.4742279053,53.3365936279,0.0238941312,0.0645718575,0.0087557435,-10.7745943069,84.3278427124,80.6157226563,0.0204943419,0.0237695277,0.0257554650,42.4683761597,43.4231948853,68.5847244263,0.0648230314,-0.0105076134,-0.0051035881,
109.963,-3.3143138885,1.3987423182,12.4066305161,0.0634727329,0.0402181111,0.0083188415,-114.6398391724,72.4760894775,53.3466606140,0.0239039063,0.0596691668,0.0111683607,-10.7854604721,84.3292922974,80.6134185791,0.0278210640,0.0193892121,0.0194354057,42.4685440063,43.4253234863,68.5924453735,0.0638734102,-0.0148864985,-0.0021538138,
109.973,-3.3138589859,1.3977510929,12.4089756012,0.0639437214,0.0416750610,0.0102717280,-114.6518630981,72.4776840210,53.3399391174,0.0263536572,0.0669422448,0.0058439970,-10.7733097076,84.3335800171,80.6340866089,0.0234339237,0.0247257650,0.0185257196,42.4670448303,43.4234580994,68.5979232788,0.0716623068,-0.0104930401,-0.0007182956,
109.983,-3.3167703152,1.3971844912,12.4094486237,0.0639338344,0.0387960933,0.0024610162,-114.6568222046,72.4810256958,53.3398513794,0.0229532719,0.0644395947,0.0077975392,-10.7978229523,84.3351669312,80.6167755127,0.0200186968,0.0228099525,0.0210019350,42.4726676941,43.4237403870,68.6080169678,0.0716658831,-0.0027307868,-0.0104329586,
109.993,-3.3162567616,1.3990778923,12.4111680984,0.0556660891,0.0441581979,0.0044150949,-114.6643905640,72.4833755493,53.3379745483,0.0283367038,0.0653643310,0.0117238164,-10.7773637772,84.3357925415,80.6449127197,0.0229494572,0.0271671414,0.0268648267,42.4759178162,43.4243202209,68.6165237427,0.0706966519,-0.0100808740,-0.0099123716,
110.003,-3.3164091110,1.3988242149,12.4116449356,0.0610327572,0.0353717990,0.0117394924,-114.6667556763,72.4858322144,53.3410644531,0.0244433284,0.0648337603,0.0097649693,-10.7811899185,84.3370437622,80.6464080811,0.0263695717,0.0247284174,0.0205391049,42.4767494202,43.4252815247,68.6238555908,0.0658259988,-0.0134986639,0.0013344288,
110.013,-3.3151535988,1.3993661404,12.4115095139,0.0644601807,0.0490217917,0.0088081360,-114.6688537598,72.4893493652,53.3423042297,0.0234852433,0.0686824024,0.0136569738,-10.7680358887,84.3360671997,80.6654815674,0.0200202465,0.0251970291,0.0234482884,42.4738082886,43.4237823486,68.6274795532,0.0692250133,-0.0115302801,0.0076429844,
110.023,-3.3142066002,1.4005392790,12.4107522964,0.0600861236,0.0436341688,0.0122264624,-114.6723022461,72.4914016724,53.3446235657,0.0283788443,0.0647378266,0.0131709576,-10.7582931519,84.3330917358,80.6841735840,0.0273393393,0.0217714608,0.0268143415,42.4758224487,43.4233970642,68.6358337402,0.0750795007,-0.0105755329,-0.0069909096,
110.033,-3.3160431385,1.4010984898,12.4125652313,0.0561896265,0.0465958342,0.0088100433,-114.6826553345,72.4921646118,53.3393135071,0.0288711190,0.0642153621,0.0019848347,-10.7504549026,84.3336791992,80.6995925903,0.0253872275,0.0290803015,0.0258448124,42.4743347168,43.4216461182,68.6408233643,0.0657799244,-0.0105759501,0.0051870346,
110.043,-3.3157832623,1.4004302025,12.4143533707,0.0605724975,0.0431733578,0.0112509727,-114.6934280396,72.4934768677,53.3337516785,0.0254600644,0.0631949306,0.0064218640,-10.7536592484,84.3327484131,80.7042007446,0.0278270245,0.0202997029,0.0297366977,42.4700508118,43.4215393066,68.6448898315,0.0594309568,-0.0076070428,0.0066147447,
110.053,-3.3135228157,1.3998394012,12.4149084091,0.0620270334,0.0460636839,0.0063657761,-114.7021713257,72.4944458008,53.3316192627,0.0244886279,0.0646256506,0.0069453120,-10.7635803223,84.3330917358,80.7029800415,0.0248979330,0.0168981552,0.0238841176,42.4677886963,43.4212188721,68.6484909058,0.0643097162,-0.0119829476,-0.0017082691,
110.063,-3.3129260540,1.4009790421,12.4153165817,0.0625351965,0.0401938818,0.0102717876,-114.7079086304,72.4957809448,53.3318901062,0.0225424767,0.0641054213,0.0094047189,-10.7463512421,84.3313674927,80.7288589478,0.0200121403,0.0251740813,0.0258062482,42.4687347412,43.4198570251,68.6555252075,0.0716166496,-0.0080965757,-0.0031771660,
110.073,-3.3126835823,1.4005699158,12.4164896011,0.0615514964,0.0475138910,0.0073418021,-114.7139663696,72.4949188232,53.3305702209,0.0230262280,0.0582448244,0.0113930702,-10.7388525009,84.3315048218,80.7474517822,0.0180592537,0.0276027322,0.0228719115,42.4680900574,43.4195480347,68.6611633301,0.0667299032,-0.0115109682,-0.0026968718,
110.083,-3.3141224384,1.3986926079,12.4164400101,0.0644484311,0.0416796245,0.0112486482,-114.7202758789,72.4962081909,53.3308906555,0.0230330229,0.0640716255,0.0094609261,-10.7254638672,84.3330917358,80.7683258057,0.0224565268,0.0275739431,0.0204565525,42.4693069458,43.4199523926,68.6681747437,0.0657584667,-0.0124956965,-0.0017063618,
110.093,-3.3146226406,1.3994747400,12.4187965393,0.0576261394,0.0426648855,0.0073430538,-114.7227706909,72.4948501587,53.3334197998,0.0259555578,0.0640864372,0.0060644746,-10.7076940536,84.3341979980,80.7947235107,0.0200170279,0.0246104300,0.0175366998,42.4690971375,43.4210968018,68.6747817993,0.0696792603,-0.0100430250,-0.0036510229,
110.103,-3.3148953915,1.3997001648,12.4198741913,0.0615363233,0.0392516553,0.0092968941,-114.7283630371,72.5009384155,53.3328247070,0.0250109434,0.0693536401,0.0158144832,-10.7249259949,84.3342742920,80.7852249146,0.0278296471,0.0182921886,0.0253573656,42.4694976807,43.4209785461,68.6815338135,0.0716308355,-0.0100477338,-0.0070667267,
110.113,-3.3157591820,1.4008036852,12.4198074341,0.0561844856,0.0436612032,0.0132039785,-114.7322540283,72.5014190674,53.3348236084,0.0240368843,0.0590834916,0.0080173016,-10.7197275162,84.3354492188,80.7989044189,0.0209957361,0.0246271789,0.0180506706,42.4707336426,43.4205818176,68.6878662109,0.0667430162,-0.0095742345,-0.0099894404,
110.123,-3.3157570362,1.4026180506,12.4208345413,0.0606106706,0.0421962813,0.0195530653,-114.7309951782,72.5030975342,53.3405227661,0.0284402370,0.0619915128,0.0158120990,-10.7184638977,84.3364868164,80.8098373413,0.0214858055,0.0236451924,0.0224618316,42.4687004089,43.4204559326,68.6916351318,0.0652766228,-0.0129742026,-0.0036602020,
110.133,-3.3166365623,1.4008393288,12.4220180511,0.0639976114,0.0436764918,0.0019745827,-114.7323608398,72.5033340454,53.3438110352,0.0245352387,0.0600310862,0.0089811087,-10.7263145447,84.3358688354,80.8103256226,0.0239261389,0.0212192833,0.0268489718,42.4653778076,43.4194374084,68.6945800781,0.0667285323,-0.0070919991,0.0036265254,
110.143,-3.3131923676,1.4029005766,12.4243564606,0.0576859154,0.0499641001,0.0151556730,-114.7313919067,72.5032653809,53.3501548767,0.0264880061,0.0580811799,0.0094651580,-10.7314968109,84.3334426880,80.8141403198,0.0180625916,0.0212358534,0.0253456831,42.4642601013,43.4197807312,68.6997222900,0.0721039176,-0.0129382014,0.0006903410,
110.153,-3.3121523857,1.4013075829,12.4243221283,0.0630292147,0.0440866426,0.0000174046,-114.7439346313,72.5052032471,53.3440818787,0.0221036077,0.0687665343,0.0085351467,-10.7302417755,84.3328552246,80.8238067627,0.0219678283,0.0222122371,0.0277760029,42.4665832520,43.4218444824,68.7085952759,0.0731066465,-0.0158728659,-0.0124551058,
110.163,-3.3116240501,1.4010099173,12.4254579544,0.0610708967,0.0421243310,0.0048995614,-114.7482910156,72.5056457520,53.3451690674,0.0284535885,0.0624027252,0.0075764060,-10.7305183411,84.3306045532,80.8330230713,0.0258702040,0.0231962502,0.0282276273,42.4664001465,43.4198112488,68.7132949829,0.0711277723,-0.0056337118,-0.0036857128,
110.173,-3.3082959652,1.4006549120,12.4278888702,0.0595998578,0.0474374592,0.0112432241,-114.7491149902,72.5102539063,53.3507232666,0.0245715380,0.0681916177,0.0173138380,-10.7074050903,84.3326110840,80.8657379150,0.0244088173,0.0294977129,0.0204401016,42.4680213928,43.4186210632,68.7196807861,0.0672063828,-0.0100529790,-0.0046585798,
110.183,-3.3083171844,1.4001518488,12.4308347702,0.0620324872,0.0401136242,0.0014781356,-114.7602615356,72.5111465454,53.3455963135,0.0289707780,0.0647344887,0.0046654940,-10.7004022598,84.3370437622,80.8812255859,0.0244164467,0.0231237411,0.0151421428,42.4678916931,43.4200248718,68.7263565063,0.0662477016,-0.0080873966,-0.0017182827,
110.193,-3.3091421127,1.4010215998,12.4319744110,0.0571648479,0.0415928140,0.0102675557,-114.7702178955,72.5152206421,53.3425292969,0.0206913352,0.0631864071,0.0100559592,-10.7100496292,84.3356170654,80.8795471191,0.0234374404,0.0177740753,0.0297682285,42.4687271118,43.4240646362,68.7336959839,0.0599512458,-0.0134335756,-0.0109522939,
110.203,-3.3095083237,1.4017934799,12.4331331253,0.0552251935,0.0411108956,0.0058745146,-114.7793579102,72.5164489746,53.3403472900,0.0294868350,0.0685195625,0.0056964755,-10.6852293015,84.3337860107,80.9124908447,0.0234342813,0.0294553936,0.0243601799,42.4679832458,43.4258842468,68.7389526367,0.0643688440,-0.0148766637,-0.0075246096,
110.213,-3.3095226288,1.4010931253,12.4343595505,0.0581426583,0.0445291251,0.0029439926,-114.7844924927,72.5181427002,53.3399391174,0.0241246223,0.0660409331,0.0096154213,-10.6750383377,84.3325042725,80.9305496216,0.0209906697,0.0245593190,0.0267745852,42.4668731689,43.4257736206,68.7427520752,0.0707151294,-0.0109608769,0.0007658601,
110.223,-3.3097426891,1.4002642632,12.4373340607,0.0634992868,0.0435564220,0.0102682710,-114.7909088135,72.5206756592,53.3392677307,0.0241379142,0.0645233691,0.0106051564,-10.6897954941,84.3344802856,80.9227828979,0.0229471922,0.0201834440,0.0150980949,42.4700355530,43.4259223938,68.7503280640,0.0702286959,-0.0075714588,-0.0026243925,
110.233,-3.3106431961,1.3992781639,12.4384860992,0.0615289584,0.0391775928,0.0102688074,-114.7919540405,72.5220870972,53.3425979614,0.0246335864,0.0654774010,0.0169479251,-10.6931571960,84.3351669312,80.9287109375,0.0224601030,0.0236057341,0.0238952637,42.4665908813,43.4260597229,68.7534790039,0.0712069869,-0.0138856471,-0.0021637082,
110.243,-3.3098120689,1.3986275196,12.4407739639,0.0668886974,0.0430693887,0.0063615441,-114.7800827026,72.5250625610,53.3595542908,0.0246492028,0.0625283718,0.0281010270,-10.7005071640,84.3343048096,80.9281539917,0.0234351754,0.0250853598,0.0248640776,42.4672813416,43.4270248413,68.7600479126,0.0609653592,-0.0090015531,-0.0045911074,
110.253,-3.3082551956,1.3951066732,12.4432964325,0.0643858612,0.0454837568,0.0141708851,-114.7780303955,72.5252838135,53.3692474365,0.0280683041,0.0620413721,0.0153943300,-10.6893653870,84.3342742920,80.9454650879,0.0200171471,0.0270200968,0.0253430009,42.4672164917,43.4268341064,68.7655181885,0.0702402592,-0.0060727298,-0.0055692196,
110.263,-3.3099076748,1.3950474262,12.4450159073,0.0604785830,0.0386766046,0.0083132386,-114.7801895142,72.5257110596,53.3756484985,0.0280705690,0.0620300770,0.0168665648,-10.6850805283,84.3318481445,80.9578857422,0.0209895372,0.0201837122,0.0311648250,42.4665107727,43.4266929626,68.7733078003,0.0643790364,-0.0075322688,-0.0002064109,
110.273,-3.3108747005,1.3960013390,12.4461822510,0.0546358489,0.0411348380,0.0073376298,-114.7854614258,72.5253677368,53.3792762756,0.0246508121,0.0600705147,0.0105463266,-10.6854534149,84.3317794800,80.9658966064,0.0209894180,0.0240908265,0.0238394737,42.4642677307,43.4259490967,68.7789764404,0.0668110847,-0.0099585056,0.0017217398,
110.283,-3.3112177849,1.3961210251,12.4484939575,0.0619621575,0.0411408134,0.0039204359,-114.7994537354,72.5317840576,53.3724327087,0.0281023383,0.0863104463,0.0086154342,-10.6977128983,84.3332366943,80.9643783569,0.0239216089,0.0280138850,0.0180075169,42.4565238953,43.4256515503,68.7818527222,0.0687603951,-0.0201425552,0.0021404028,
110.293,-3.3134582043,1.3953943253,12.4496707916,0.0604846328,0.0431329794,0.0063637495,-114.8096008301,72.5359268188,53.3692665100,0.0334951878,0.0789009333,0.0159592628,-10.7117967606,84.3319854736,80.9580535889,0.0190366507,0.0226711333,0.0228738785,42.4549217224,43.4244499207,68.7861785889,0.0687451959,-0.0074418187,0.0021167994,
110.303,-3.3157482147,1.3944971561,12.4514122009,0.0614455417,0.0363369510,0.0132017136,-114.8163452148,72.5389938354,53.3720932007,0.0271635652,0.0715159178,0.0149935484,-10.6956338882,84.3324737549,80.9813003540,0.0205023289,0.0275244117,0.0209237337,42.4544296265,43.4267425537,68.7921371460,0.0663328171,-0.0098601580,-0.0003092289,
110.313,-3.3150887489,1.3924556971,12.4519767761,0.0648278892,0.0426731743,0.0029459000,-114.8241882324,72.5411911011,53.3722839355,0.0325462222,0.0670709014,0.0076913238,-10.6925725937,84.3344802856,80.9915924072,0.0253885984,0.0260480344,0.0146080256,42.4561119080,43.4289054871,68.7998733521,0.0634305477,-0.0147411227,-0.0080875158,
110.323,-3.3138885498,1.3935947418,12.4536762238,0.0604532324,0.0465584807,0.0048988461,-114.8330535889,72.5423126221,53.3711585999,0.0252278447,0.0626398623,0.0082139969,-10.6818647385,84.3338546753,81.0100936890,0.0239226818,0.0231017768,0.0238713622,42.4572296143,43.4296150208,68.8073577881,0.0624629855,-0.0098629892,-0.0041654110,
110.333,-3.3163783550,1.3933757544,12.4548215866,0.0589845665,0.0378127992,0.0146660805,-114.8368377686,72.5420913696,53.3741874695,0.0276680589,0.0592170656,0.0126282573,-10.6791868210,84.3329544067,81.0218200684,0.0248976946,0.0206585526,0.0262970328,42.4554672241,43.4307441711,68.8111572266,0.0624773502,-0.0117906332,0.0002233982,
110.343,-3.3158929348,1.3938822746,12.4552211761,0.0648527816,0.0397574529,0.0127133131,-114.8300476074,72.5401535034,53.3871498108,0.0257048011,0.0534017384,0.0087030530,-10.6813106537,84.3334426880,81.0293426514,0.0263633728,0.0221256614,0.0214223862,42.4565963745,43.4332466125,68.8186721802,0.0703215003,-0.0127573609,-0.0114627481,
110.353,-3.3164041042,1.3915433884,12.4576158524,0.0662768185,0.0426961072,0.0039232969,-114.8323745728,72.5418014526,53.3910026550,0.0183892250,0.0626489520,0.0150502920,-10.6776485443,84.3358688354,81.0428009033,0.0263675451,0.0211351216,0.0195084214,42.4532508850,43.4316787720,68.8231887817,0.0727430582,-0.0146920085,0.0026540756,
110.363,-3.3175344467,1.3911495209,12.4581575394,0.0589457229,0.0407626852,-0.0009578466,-114.8357162476,72.5418167114,53.3945579529,0.0247369409,0.0611767173,0.0131129622,-10.6650676727,84.3351364136,81.0632247925,0.0273428559,0.0216039121,0.0238867998,42.4528617859,43.4339141846,68.8291168213,0.0644706488,-0.0175998211,-0.0139302015,
110.373,-3.3164870739,1.3899914026,12.4587488174,0.0618552044,0.0461155623,0.0058760047,-114.8352813721,72.5429611206,53.3996849060,0.0291374922,0.0670205951,0.0145677328,-10.6340541840,84.3353042603,81.1030960083,0.0209954977,0.0288735330,0.0204639435,42.4506034851,43.4360580444,68.8358154297,0.0644978285,-0.0151200294,-0.0031891465,
110.383,-3.3182487488,1.3905758858,12.4604969025,0.0560060292,0.0383337326,0.0058783293,-114.8445281982,72.5458679199,53.3998374939,0.0359886289,0.0742796063,0.0155681968,-10.6373586655,84.3338241577,81.1082229614,0.0283171535,0.0200950205,0.0233688951,42.4503288269,43.4392356873,68.8429031372,0.0645380616,-0.0116737485,-0.0109754801,
110.393,-3.3166408539,1.3927839994,12.4603824615,0.0565328375,0.0480712913,0.0107604861,-114.8562393188,72.5504760742,53.3989982605,0.0198994875,0.0678373873,0.0107089281,-10.6389932632,84.3346862793,81.1162643433,0.0273420811,0.0225365460,0.0199658871,42.4511795044,43.4430999756,68.8494796753,0.0631221533,-0.0111621320,-0.0080040693,
110.403,-3.3167972565,1.3947596550,12.4626960754,0.0555907451,0.0417263135,0.0073434711,-114.8568267822,72.5525360107,53.4088249207,0.0218633413,0.0599921942,0.0175333023,-10.6228895187,84.3330917358,81.1400451660,0.0209916830,0.0264200270,0.0257927775,42.4485664368,43.4448585510,68.8552856445,0.0670506954,-0.0121000707,-0.0016638041,
110.413,-3.3174228668,1.3948860168,12.4632072449,0.0594992004,0.0402723588,0.0058792830,-114.8542175293,72.5510711670,53.4191818237,0.0238088369,0.0575786233,0.0194842815,-10.6266736984,84.3321304321,81.1441268921,0.0224548578,0.0200819969,0.0243126750,42.4488105774,43.4465103149,68.8625335693,0.0607239604,-0.0091592073,-0.0026234388,
110.423,-3.3178172112,1.3955966234,12.4660854340,0.0643944144,0.0451620296,0.0063678026,-114.8454055786,72.5538482666,53.4321975708,0.0204054117,0.0604857206,0.0213759542,-10.6076936722,84.3311614990,81.1695327759,0.0263594389,0.0273762345,0.0291739106,42.4497795105,43.4481048584,68.8702468872,0.0709981322,-0.0096436739,-0.0060189962,
110.433,-3.3174524307,1.3958550692,12.4671545029,0.0634223595,0.0436908267,0.0053915977,-114.8429870605,72.5556793213,53.4357719421,0.0223681331,0.0599751472,0.0154923201,-10.5973634720,84.3261489868,81.1874618530,0.0258625150,0.0244444311,0.0339689851,42.4495773315,43.4455223083,68.8767929077,0.0743833780,-0.0072213113,0.0032337904,
110.443,-3.3159801960,1.3933970928,12.4677915573,0.0643560290,0.0475714952,0.0083183646,-114.8457870483,72.5553054810,53.4372291565,0.0174833536,0.0570456386,0.0052543879,-10.6315250397,84.3284606934,81.1592864990,0.0185422897,0.0215668082,0.0203462243,42.4465293884,43.4449272156,68.8797073364,0.0699812770,-0.0140334964,0.0022259355,
110.453,-3.3147568703,1.3939757347,12.4695310593,0.0604598820,0.0465736017,0.0102707148,-114.8391189575,72.5590667725,53.4507942200,0.0209209919,0.0677451491,0.0213096142,-10.6527757645,84.3261108398,81.1468811035,0.0209796429,0.0220991373,0.0256859660,42.4468765259,43.4445419312,68.8854293823,0.0660701394,-0.0106219649,-0.0080283284,
110.463,-3.3139481544,1.3938066959,12.4688386917,0.0624100566,0.0475360788,0.0053870082,-114.8371810913,72.5587997437,53.4611968994,0.0262906551,0.0618942082,0.0130015016,-10.6926641464,84.3275299072,81.1147766113,0.0239117742,0.0197224021,0.0223047137,42.4481544495,43.4455223083,68.8930206299,0.0626646280,-0.0106259584,-0.0055673718,
110.473,-3.3122260571,1.3944214582,12.4705944061,0.0580262467,0.0440880992,0.0053856373,-114.8353118896,72.5589370728,53.4694557190,0.0243383050,0.0594547987,0.0134798884,-10.6647596359,84.3299179077,81.1503524780,0.0209861994,0.0328502357,0.0154989958,42.4488525391,43.4454574585,68.9009475708,0.0690114498,-0.0140510499,-0.0080034733,
110.483,-3.3106658459,1.3940888643,12.4710960388,0.0633915439,0.0435726568,0.0097783208,-114.8358840942,72.5590896606,53.4711837769,0.0238507986,0.0579866469,0.0071339607,-10.6800584793,84.3300552368,81.1454315186,0.0239161253,0.0177394450,0.0155070424,42.4477157593,43.4432868958,68.9068450928,0.0704487562,-0.0072219968,0.0066159964,
110.493,-3.3118469715,1.3936610222,12.4716320038,0.0594778247,0.0382221453,0.0112442374,-114.8354415894,72.5627593994,53.4736862183,0.0228934288,0.0642794967,0.0129656792,-10.6724243164,84.3321304321,81.1591567993,0.0229431391,0.0230908990,0.0170033574,42.4511642456,43.4455871582,68.9157485962,0.0680365562,-0.0096769929,-0.0089590549,
110.503,-3.3110358715,1.3946400881,12.4733123779,0.0609597526,0.0430908017,0.0034313202,-114.8300094604,72.5633621216,53.4816856384,0.0238731503,0.0628190637,0.0114704967,-10.6648168564,84.3330917358,81.1733779907,0.0322221518,0.0225864351,0.0194582343,42.4512329102,43.4452819824,68.9214248657,0.0685208440,-0.0096801221,-0.0011485815,
110.513,-3.3117616177,1.3951282501,12.4756774902,0.0585268661,0.0440799966,0.0034322143,-114.8249816895,72.5684280396,53.4898796082,0.0219464898,0.0681236982,0.0182474256,-10.6582584381,84.3339920044,81.1871261597,0.0214815140,0.0245254040,0.0272834897,42.4471282959,43.4417648315,68.9232406616,0.0714060664,-0.0052757263,0.0056205988,
110.523,-3.3132212162,1.3947874308,12.4779729843,0.0658451319,0.0436171517,0.0073397756,-114.8268814087,72.5702514648,53.4916419983,0.0234208703,0.0632088184,0.0075015426,-10.6656751633,84.3383483887,81.1876296997,0.0239304304,0.0220832825,0.0190570951,42.4459609985,43.4419250488,68.9281845093,0.0626189709,-0.0086813569,0.0007300973,
110.533,-3.3141677380,1.3934899569,12.4803886414,0.0604514033,0.0411922559,0.0024573207,-114.8335037231,72.5738143921,53.4888458252,0.0258809328,0.0709539652,0.0079963207,-10.6181888580,84.3375930786,81.2422714233,0.0297884941,0.0268861949,0.0278186798,42.4476852417,43.4436225891,68.9348678589,0.0689881444,-0.0111253262,-0.0051006079,
110.543,-3.3152403831,1.3948032856,12.4815130234,0.0555915050,0.0407226346,0.0097833276,-114.8305969238,72.5767288208,53.4933509827,0.0268726945,0.0704271495,0.0143100023,-10.5935916901,84.3389816284,81.2766342163,0.0195369720,0.0234214365,0.0209973454,42.4488792419,43.4443206787,68.9434585571,0.0733915567,-0.0091775954,-0.0070365667,
110.553,-3.3171937466,1.3971915245,12.4819459915,0.0580745861,0.0441745669,0.0078331232,-114.8373413086,72.5797958374,53.4940795898,0.0278652906,0.0703668296,0.0172502398,-10.5746831894,84.3375930786,81.3055267334,0.0244174004,0.0263223350,0.0307362080,42.4466552734,43.4450569153,68.9476623535,0.0704711676,-0.0154985189,-0.0031428933,
110.563,-3.3170146942,1.3975746632,12.4825267792,0.0566164255,0.0451479927,0.0107627511,-114.8448410034,72.5813674927,53.4981498718,0.0234789848,0.0634900331,0.0158102512,-10.5896100998,84.3380813599,81.3015441895,0.0268596411,0.0243937969,0.0229347348,42.4457626343,43.4445648193,68.9556655884,0.0665587187,-0.0135409832,-0.0046195984,
110.573,-3.3166112900,1.3962445259,12.4830865860,0.0624525920,0.0417230427,0.0058789253,-114.8553466797,72.5803833008,53.4971237183,0.0176144838,0.0605522692,0.0085428357,-10.6044635773,84.3367919922,81.2954025269,0.0229511857,0.0249116123,0.0243843198,42.4488334656,43.4434623718,68.9641876221,0.0684978962,-0.0057661533,-0.0080211759,
110.583,-3.3176989555,1.3950798512,12.4836349487,0.0619439892,0.0407654494,0.0078327060,-114.8656463623,72.5803985596,53.4937705994,0.0185911059,0.0649240315,0.0100565553,-10.6033611298,84.3375930786,81.3043289185,0.0249056816,0.0268607140,0.0209768414,42.4515647888,43.4434890747,68.9729766846,0.0645920038,-0.0087211132,-0.0036028028,
110.593,-3.3192186356,1.3964511156,12.4841136932,0.0595265105,0.0456747003,0.0088115335,-114.8685150146,72.5801239014,53.4957122803,0.0317732692,0.0541796982,0.0120252371,-10.6070966721,84.3398056030,81.3089218140,0.0219798088,0.0244184136,0.0175997615,42.4495506287,43.4432334900,68.9772644043,0.0641004443,-0.0130990148,0.0027247667,
110.603,-3.3187718391,1.3969876766,12.4833679199,0.0600241497,0.0398075283,0.0078346729,-114.8722839355,72.5793380737,53.4951667786,0.0283511877,0.0634605587,0.0042362809,-10.6343736649,84.3401565552,81.2887725830,0.0249100924,0.0210466087,0.0244500041,42.4461441040,43.4410438538,68.9802169800,0.0709086657,-0.0155260861,-0.0051354766,
110.613,-3.3157837391,1.3973826170,12.4832992554,0.0610076077,0.0485445298,0.0180853009,-114.8829727173,72.5800933838,53.4873924255,0.0224957466,0.0658670664,0.0052583218,-10.6361312866,84.3388366699,81.2959823608,0.0307672024,0.0230069160,0.0224754214,42.4455375671,43.4389190674,68.9851531982,0.0757644773,-0.0111433566,-0.0017426014,
110.623,-3.3165392876,1.3945069313,12.4833307266,0.0633988380,0.0441632345,0.0044136047,-114.8890075684,72.5824966431,53.4829635620,0.0273911357,0.0643524230,0.0072234273,-10.6257038116,84.3362045288,81.3147735596,0.0205087662,0.0220204890,0.0287760496,42.4416580200,43.4368858337,68.9877471924,0.0742738843,-0.0164944530,-0.0047225952,
110.633,-3.3183565140,1.3946197033,12.4844217300,0.0619359612,0.0402886346,0.0092974305,-114.8875732422,72.5868453979,53.4885253906,0.0264372826,0.0677089691,0.0149986148,-10.6034088135,84.3355178833,81.3448181152,0.0214841366,0.0249138176,0.0336397290,42.4444694519,43.4380340576,68.9943618774,0.0684290528,-0.0062575340,-0.0115245581,
110.643,-3.3183534145,1.3938657045,12.4868040085,0.0609462410,0.0422417261,0.0097860694,-114.8934707642,72.5909194946,53.4896278381,0.0264585614,0.0627510846,0.0106036663,-10.6120967865,84.3338241577,81.3470458984,0.0283171535,0.0210282207,0.0282410979,42.4419250488,43.4411468506,69.0006484985,0.0626091361,-0.0208571553,-0.0012654662,
110.653,-3.3186042309,1.3931900263,12.4885616302,0.0604461692,0.0393164232,0.0068563819,-114.9039916992,72.5926513672,53.4855880737,0.0269559026,0.0661198497,0.0086884499,-10.6449728012,84.3341293335,81.3235473633,0.0253880024,0.0201068521,0.0233789682,42.4437637329,43.4398231506,69.0083084106,0.0728462934,-0.0106309652,-0.0090730190,
110.663,-3.3163690567,1.3938356638,12.4897031784,0.0599691533,0.0480665378,0.0063657165,-114.9075164795,72.5925750732,53.4868011475,0.0215843916,0.0612303913,0.0082174540,-10.6595468521,84.3333740234,81.3177261353,0.0273398161,0.0186705589,0.0233650208,42.4461746216,43.4379348755,69.0176544189,0.0645215511,-0.0067627132,-0.0007691383,
110.673,-3.3169620037,1.3916933537,12.4908876419,0.0653028712,0.0446589515,0.0029477477,-114.9006576538,72.5941314697,53.4988288879,0.0230573416,0.0661048889,0.0189161897,-10.6779203415,84.3325424194,81.3098983765,0.0307563543,0.0226105750,0.0233613849,42.4459266663,43.4390678406,69.0248718262,0.0655124784,-0.0111455917,-0.0017370582,
110.683,-3.3169174194,1.3908153772,12.4921083450,0.0589398928,0.0446581952,0.0083183646,-114.8961944580,72.5970840454,53.5081710815,0.0269790292,0.0660711229,0.0144797564,-10.6687994003,84.3329544067,81.3274307251,0.0234328508,0.0274767578,0.0272686481,42.4458618164,43.4408683777,69.0319366455,0.0626056194,-0.0116187930,-0.0041637421,
110.693,-3.3149628639,1.3897206783,12.4933156967,0.0598973557,0.0426710434,0.0141755342,-114.8955535889,72.6001434326,53.5133857727,0.0260184407,0.0640721917,0.0129904747,-10.6607627869,84.3350296021,81.3431854248,0.0249012709,0.0259911418,0.0185136795,42.4441375732,43.4397010803,69.0369262695,0.0723564625,-0.0116120577,-0.0027235150,
110.703,-3.3159523010,1.3897821903,12.4949941635,0.0642929599,0.0431765616,0.0068521500,-114.8908081055,72.6035842896,53.5193481445,0.0275012255,0.0586603880,0.0163618326,-10.6627635956,84.3377304077,81.3498535156,0.0219762325,0.0230568349,0.0107443929,42.4448547363,43.4403228760,69.0415802002,0.0679697990,-0.0121020079,-0.0046651363,
110.713,-3.3147366047,1.3899053335,12.4974479675,0.0555060469,0.0465733521,0.0024564862,-114.8942642212,72.6034469604,53.5196075439,0.0250591040,0.0645132363,0.0056371093,-10.6791009903,84.3396682739,81.3410797119,0.0200264454,0.0260083079,0.0200617313,42.4435424805,43.4412040710,69.0486450195,0.0645629764,-0.0130591691,-0.0056450367,
110.723,-3.3159418106,1.3882745504,12.4985980988,0.0657314956,0.0446412563,0.0048983097,-114.8928222656,72.6014709473,53.5238838196,0.0235839486,0.0562471449,0.0105266571,-10.6627664566,84.3412628174,81.3651809692,0.0249119997,0.0284165144,0.0210592747,42.4446868896,43.4416732788,69.0571670532,0.0694517493,-0.0116012692,-0.0056312084,
110.733,-3.3158409595,1.3897526264,12.4997367859,0.0550151020,0.0426863469,0.0097816586,-114.8901519775,72.6028060913,53.5309410095,0.0299385786,0.0630671680,0.0148993731,-10.6310567856,84.3416748047,81.4047775269,0.0244244337,0.0225010216,0.0259386897,42.4465827942,43.4418907166,69.0641860962,0.0650599599,-0.0081993043,0.0026876926,
110.743,-3.3153784275,1.3902637959,12.5008945465,0.0584419891,0.0460962392,0.0107581019,-114.8951263428,72.6046981812,53.5310363770,0.0201828480,0.0674232244,0.0075854063,-10.6427526474,84.3409881592,81.4001922607,0.0214935541,0.0215468109,0.0313022733,42.4483337402,43.4420433044,69.0732269287,0.0675033331,-0.0077261329,-0.0070614815,
110.753,-3.3146593571,1.3911253214,12.5013837814,0.0613867082,0.0470602550,0.0107573867,-114.8942108154,72.6021423340,53.5384826660,0.0211460590,0.0591625273,0.0105286837,-10.6286430359,84.3414382935,81.4228515625,0.0224708915,0.0229860842,0.0210497379,42.4487304688,43.4422416687,69.0801849365,0.0679941177,-0.0106579065,-0.0026618242,
110.763,-3.3156843185,1.3916709423,12.5030708313,0.0604196638,0.0387773141,0.0058760643,-114.8880920410,72.6005020142,53.5505332947,0.0245554447,0.0606658161,0.0144174099,-10.6252517700,84.3405380249,81.4356155396,0.0234459043,0.0273772478,0.0220122337,42.4483261108,43.4419746399,69.0872344971,0.0689672828,-0.0155391097,-0.0021793842,
110.773,-3.3158152103,1.3889259100,12.5030698776,0.0652545840,0.0441507585,0.0088047385,-114.8804550171,72.6015243530,53.5635719299,0.0226076841,0.0596905053,0.0212097764,-10.6522102356,84.3374557495,81.4169311523,0.0239288807,0.0215741992,0.0317349434,42.4505844116,43.4419784546,69.0934143066,0.0616431236,-0.0043296814,-0.0036247969,
110.783,-3.3153600693,1.3892731667,12.5010986328,0.0628192350,0.0441428199,0.0141756535,-114.8974609375,72.6037216187,53.5532989502,0.0260370970,0.0659672022,0.0012558699,-10.6473302841,84.3393249512,81.4290237427,0.0244203806,0.0244897306,0.0195566416,42.4520111084,43.4441337585,69.1000366211,0.0621587038,-0.0106734037,-0.0070120692,
110.793,-3.3150131702,1.3891606331,12.5004158020,0.0603758655,0.0436485000,0.0141751766,-114.9006576538,72.6053771973,53.5541763306,0.0260457397,0.0634938180,0.0173727274,-10.6429910660,84.3359375000,81.4416961670,0.0229496956,0.0215630829,0.0263350606,42.4496726990,43.4442138672,69.1044387817,0.0709488392,-0.0130921006,0.0012700558,
110.803,-3.3148303032,1.3893011808,12.5004081726,0.0550072230,0.0431570299,0.0044093132,-114.9040756226,72.6063461304,53.5567436218,0.0255625248,0.0668896139,0.0115227103,-10.6483058929,84.3325729370,81.4453125000,0.0234321952,0.0206062198,0.0277458429,42.4520797729,43.4444046021,69.1131057739,0.0660684109,-0.0077419877,-0.0050553083,
110.813,-3.3140513897,1.3904799223,12.5021877289,0.0564926341,0.0470496863,0.0195459127,-114.9128036499,72.6062240601,53.5533294678,0.0240970254,0.0615014434,0.0061939955,-10.6457281113,84.3339920044,81.4542922974,0.0248994827,0.0274330974,0.0204454064,42.4512519836,43.4464874268,69.1191864014,0.0646299124,-0.0135767758,-0.0016260147,
110.823,-3.3154332638,1.3910368681,12.5032339096,0.0623617247,0.0397495218,0.0048989654,-114.9143218994,72.6060104370,53.5567893982,0.0275139213,0.0590597093,0.0130385756,-10.6254091263,84.3326797485,81.4824447632,0.0258737803,0.0278908610,0.0292025208,42.4558944702,43.4492416382,69.1279830933,0.0656414032,-0.0067619681,-0.0142573714,
110.833,-3.3143889904,1.3895430565,12.5037832260,0.0652653500,0.0460790247,0.0083152652,-114.9177246094,72.6100387573,53.5568847656,0.0221638083,0.0638752580,0.0174210668,-10.6242494583,84.3331604004,81.4917144775,0.0219683647,0.0230037570,0.0253089070,42.4556083679,43.4483795166,69.1342010498,0.0617241859,-0.0072546005,0.0023341179,
110.843,-3.3152930737,1.3913887739,12.5054092407,0.0623678677,0.0456064455,0.0078287125,-114.9283599854,72.6099319458,53.5514678955,0.0255812407,0.0672702193,0.0003824234,-10.6123685837,84.3333740234,81.5123596191,0.0263632536,0.0220066607,0.0238390565,42.4556388855,43.4481430054,69.1404418945,0.0690454245,-0.0087215900,0.0028208494,
110.853,-3.3122887611,1.3898973465,12.5054273605,0.0608769991,0.0465307087,0.0092899799,-114.9350280762,72.6104202271,53.5501899719,0.0270485878,0.0609015822,0.0072466135,-10.6170415878,84.3308792114,81.5183334351,0.0268472433,0.0220222771,0.0306367278,42.4547576904,43.4467506409,69.1454849243,0.0704926848,-0.0092129707,0.0028002262,
110.863,-3.3117821217,1.3872592449,12.5067110062,0.0627840981,0.0484750755,0.0034288764,-114.9342803955,72.6119155884,53.5557785034,0.0280329585,0.0594151318,0.0155333877,-10.6116342545,84.3300552368,81.5302047729,0.0239161253,0.0249451995,0.0262266397,42.4521598816,43.4458122253,69.1494445801,0.0660862923,-0.0101727545,0.0042350888,
110.873,-3.3108408451,1.3860057592,12.5078935623,0.0603208207,0.0391813703,0.0102633834,-114.9276504517,72.6120910645,53.5671081543,0.0226628184,0.0599154234,0.0140357614,-10.6139078140,84.3317108154,81.5370483398,0.0224541426,0.0205493569,0.0199077129,42.4523200989,43.4455604553,69.1560058594,0.0695010424,-0.0052934885,-0.0011368990,
110.883,-3.3115861416,1.3837487698,12.5091114044,0.0636994094,0.0440772176,0.0063570142,-114.9235687256,72.6143112183,53.5747146606,0.0246275067,0.0598911941,0.0115594268,-10.6260137558,84.3304672241,81.5339889526,0.0209871531,0.0195976794,0.0228204131,42.4551734924,43.4444046021,69.1639175415,0.0738809109,-0.0082592070,-0.0079585314,
110.893,-3.3143758774,1.3832907677,12.5102376938,0.0617382899,0.0411961302,0.0078243017,-114.9154434204,72.6173095703,53.5862350464,0.0251314044,0.0564461052,0.0207774043,-10.6358098984,84.3348236084,81.5301589966,0.0229477882,0.0269251168,0.0165492296,42.4577293396,43.4440155029,69.1720733643,0.0694814324,-0.0068215728,-0.0074524283,
110.903,-3.3145840168,1.3841139078,12.5113315582,0.0593112484,0.0416880213,0.0053834319,-114.9216384888,72.6183242798,53.5837326050,0.0212304592,0.0598348975,0.0105457902,-10.6581697464,84.3359985352,81.5149612427,0.0253912210,0.0211009383,0.0199931264,42.4585342407,43.4434776306,69.1785125732,0.0680097342,-0.0097630024,-0.0108677149,
110.913,-3.3123404980,1.3842148781,12.5106983185,0.0573598817,0.0460434705,0.0107524991,-114.9181747437,72.6167373657,53.5897903442,0.0236635804,0.0569367409,0.0129817724,-10.6644659042,84.3377609253,81.5172576904,0.0268591046,0.0211063027,0.0146532655,42.4578590393,43.4436607361,69.1842041016,0.0709417462,-0.0102434754,-0.0050122738,
110.923,-3.3118090630,1.3840371370,12.5119028091,0.0563802198,0.0421279706,0.0048921704,-114.9175872803,72.6146316528,53.5927391052,0.0212112069,0.0540399849,0.0046930313,-10.6757106781,84.3383483887,81.5149993896,0.0234421492,0.0230770111,0.0185731649,42.4603424072,43.4454498291,69.1916351318,0.0665699840,-0.0078107715,-0.0113228559,
110.933,-3.3115944862,1.3821582794,12.5136919022,0.0626950935,0.0387063064,0.0117274523,-114.9258193970,72.6145248413,53.5864791870,0.0251169205,0.0589061975,-0.0006383061,-10.6721096039,84.3422317505,81.5276412964,0.0200308561,0.0259882510,0.0196134448,42.4634284973,43.4461898804,69.2001647949,0.0631613135,-0.0078336596,-0.0103133917,
110.943,-3.3116369247,1.3812197447,12.5129823685,0.0651201233,0.0445664451,0.0058673024,-114.9336929321,72.6141738892,53.5788803101,0.0246267915,0.0628002882,0.0062373877,-10.6501731873,84.3382797241,81.5578231812,0.0244185925,0.0230328441,0.0332134962,42.4663162231,43.4460334778,69.2072906494,0.0695070028,-0.0103034377,-0.0058962703,
110.953,-3.3107752800,1.3813030720,12.5134963989,0.0597504824,0.0411334634,0.0087965131,-114.9360656738,72.6160964966,53.5802040100,0.0270782113,0.0622777343,0.0140477419,-10.6514015198,84.3361358643,81.5627212524,0.0249031782,0.0215772986,0.0199915767,42.4642677307,43.4440803528,69.2117767334,0.0645994544,-0.0073702931,0.0018823147,
110.963,-3.3115596771,1.3812881708,12.5140552521,0.0582853816,0.0416354090,0.0190511346,-114.9432830811,72.6152648926,53.5773162842,0.0236558914,0.0588574409,0.0033455491,-10.6477727890,84.3358688354,81.5739059448,0.0219730139,0.0210828483,0.0258499980,42.4647941589,43.4462814331,69.2171325684,0.0656039119,-0.0107755363,-0.0068839788,
110.973,-3.3102042675,1.3803343773,12.5134782791,0.0587570220,0.0494243205,0.0058658123,-114.9393615723,72.6134796143,53.5849304199,0.0255997181,0.0584033430,0.0145699382,-10.6161794662,84.3357925415,81.6123352051,0.0166018009,0.0278652906,0.0189965367,42.4636383057,43.4493904114,69.2223892212,0.0636901855,-0.0185519457,-0.0088185668,
110.983,-3.3102855682,1.3809902668,12.5133075714,0.0616981499,0.0401483774,0.0029364824,-114.9375839233,72.6139907837,53.5907020569,0.0280438066,0.0623069704,0.0140696168,-10.6206989288,84.3353042603,81.6152038574,0.0195306540,0.0244559050,0.0263191462,42.4650192261,43.4482574463,69.2304382324,0.0700234771,-0.0049021542,-0.0019809604,
110.993,-3.3117580414,1.3802443743,12.5137948990,0.0646148250,0.0416388921,0.0039142966,-114.9417190552,72.6137847900,53.5929183960,0.0290192962,0.0642532706,0.0121375918,-10.6278114319,84.3365554810,81.6156845093,0.0239273310,0.0220236480,0.0195013285,42.4643669128,43.4480133057,69.2372970581,0.0666024089,-0.0112456679,0.0033825040,
111.003,-3.3113343716,1.3809328079,12.5148506165,0.0641385540,0.0460260212,0.0073317885,-114.9461593628,72.6131896973,53.5947532654,0.0216919780,0.0613237917,0.0058150887,-10.6321535110,84.3366928101,81.6205825806,0.0268572569,0.0254480243,0.0214626193,42.4671478271,43.4479637146,69.2449035645,0.0685548782,-0.0117605329,-0.0127081275,
111.013,-3.3131968975,1.3795670271,12.5153942108,0.0626498759,0.0401991233,0.0078215599,-114.9432144165,72.6119461060,53.6025466919,0.0246151686,0.0618362427,0.0175285935,-10.6291427612,84.3373870850,81.6315765381,0.0219756365,0.0273945630,0.0243977308,42.4659996033,43.4499702454,69.2506713867,0.0671154857,-0.0190576017,-0.0029338598,
111.023,-3.3125076294,1.3812638521,12.5158843994,0.0563318282,0.0426284820,0.0117279291,-114.9356307983,72.6099853516,53.6099929810,0.0299760103,0.0565122962,0.0101821423,-10.6230688095,84.3386993408,81.6451721191,0.0253958702,0.0249378085,0.0224692822,42.4679946899,43.4520530701,69.2594375610,0.0666536093,-0.0112469196,-0.0097342730,
111.033,-3.3104107380,1.3820410967,12.5175590515,0.0641578883,0.0474747494,0.0127027035,-114.9321594238,72.6105957031,53.6093521118,0.0294909477,0.0618809462,0.0106496811,-10.6075201035,84.3371734619,81.6695632935,0.0190455914,0.0288218856,0.0278100371,42.4670066833,43.4515724182,69.2642440796,0.0642061234,-0.0112415254,-0.0038877726,
111.043,-3.3071234226,1.3818951845,12.5200948715,0.0543897226,0.0537651479,0.0048868656,-114.9298782349,72.6109542847,53.6102828979,0.0280279517,0.0599275231,0.0072184801,-10.6361570358,84.3374557495,81.6484375000,0.0205109119,0.0142226517,0.0214730501,42.4659080505,43.4498481750,69.2690429688,0.0705319047,-0.0058741570,-0.0014709234,
111.053,-3.3082480431,1.3819003105,12.5218067169,0.0626905933,0.0425542705,0.0161183476,-114.9422836304,72.6116485596,53.6021156311,0.0270550251,0.0667264462,0.0053191781,-10.6495933533,84.3366928101,81.6419677734,0.0263689756,0.0230369270,0.0219556093,42.4667587280,43.4502449036,69.2768249512,0.0744431615,-0.0112499595,-0.0107375979,
111.063,-3.3082931042,1.3802374601,12.5241231918,0.0685209557,0.0420668162,0.0117232800,-114.9475860596,72.6128997803,53.5990104675,0.0231552720,0.0613243580,0.0063123107,-10.6624727249,84.3389816284,81.6362762451,0.0253963470,0.0250052214,0.0210210085,42.4683074951,43.4465408325,69.2837905884,0.0729314089,-0.0073882341,0.0014500022,
111.073,-3.3088855743,1.3798525333,12.5252723694,0.0616782978,0.0445185527,0.0131885409,-114.9477462769,72.6133880615,53.6046142578,0.0251109600,0.0618050694,0.0136339068,-10.6642694473,84.3404312134,81.6421585083,0.0258871317,0.0284217596,0.0181159973,42.4677886963,43.4477081299,69.2882614136,0.0656219721,-0.0127450526,-0.0102628469,
111.083,-3.3092536926,1.3788824081,12.5270795822,0.0592199638,0.0411070175,0.0034227371,-114.9568176270,72.6123962402,53.6024971008,0.0236409903,0.0603347421,0.0083127022,-10.6615953445,84.3457031250,81.6520690918,0.0249196291,0.0279122889,0.0142968297,42.4689064026,43.4472961426,69.2960433960,0.0646402240,-0.0068994164,0.0004853010,
111.093,-3.3090991974,1.3797698021,12.5281095505,0.0631417036,0.0430574305,-0.0004832149,-114.9651489258,72.6094970703,53.6053237915,0.0255789757,0.0588955283,0.0039781928,-10.6678304672,84.3459091187,81.6555252075,0.0239434242,0.0205982327,0.0265091062,42.4701652527,43.4447441101,69.3051757813,0.0753500462,-0.0044904351,-0.0039210916,
111.103,-3.3106901646,1.3786972761,12.5286626816,0.0616581440,0.0411320440,0.0087954402,-114.9769973755,72.6100006104,53.6047554016,0.0241167545,0.0622795522,0.0098900795,-10.6698102951,84.3450012207,81.6637725830,0.0200356245,0.0215809643,0.0245419741,42.4685707092,43.4434089661,69.3097457886,0.0699620247,-0.0132753849,0.0009363890,
111.113,-3.3102920055,1.3787478209,12.5310554504,0.0601941757,0.0479610413,0.0073297620,-114.9898605347,72.6082839966,53.6011238098,0.0275257230,0.0637421608,0.0041037798,-10.6756057739,84.3457717896,81.6669387817,0.0249197483,0.0250066221,0.0245562196,42.4713249207,43.4433898926,69.3189697266,0.0645906925,-0.0074419379,-0.0044114590,
111.123,-3.3112301826,1.3791983128,12.5314826965,0.0626434460,0.0391883105,0.0058667660,-114.9979934692,72.6050415039,53.6034240723,0.0343447924,0.0559605062,0.0041650534,-10.6774883270,84.3459396362,81.6769943237,0.0273614526,0.0269625485,0.0245591998,42.4718017578,43.4421920776,69.3271560669,0.0670168996,-0.0050147176,0.0004647970,
111.133,-3.3099730015,1.3820425272,12.5332059860,0.0543922931,0.0489319749,0.0009828806,-115.0024566650,72.6032943726,53.6046333313,0.0294528604,0.0598832071,0.0110345483,-10.6933088303,84.3438644409,81.6688308716,0.0244281888,0.0216251016,0.0245311260,42.4691238403,43.4420356750,69.3321380615,0.0635969639,-0.0142682195,0.0009288788,
111.143,-3.3100702763,1.3833550215,12.5348453522,0.0641808212,0.0484453477,0.0063554645,-114.9927978516,72.6011962891,53.6196861267,0.0250473619,0.0560293794,0.0124683380,-10.7104263306,84.3456344604,81.6601486206,0.0254077911,0.0236026645,0.0250518322,42.4659767151,43.4444961548,69.3347854614,0.0577687621,-0.0127540827,-0.0010294318,
111.153,-3.3097810745,1.3833386898,12.5359268188,0.0622274093,0.0391629711,0.0048897862,-114.9841537476,72.6027145386,53.6284942627,0.0318912268,0.0609087348,0.0168111324,-10.7006063461,84.3434829712,81.6763610840,0.0224744081,0.0235921443,0.0264797211,42.4665260315,43.4445648193,69.3409194946,0.0665587187,-0.0083641410,-0.0049304366,
111.163,-3.3120157719,1.3841305971,12.5370721817,0.0554052889,0.0387135930,0.0141699910,-114.9894104004,72.6064224243,53.6273193359,0.0250746608,0.0706067681,0.0119273067,-10.7050809860,84.3441390991,81.6799468994,0.0205224156,0.0187153220,0.0216071606,42.4647369385,43.4476470947,69.3454895020,0.0656211972,-0.0127170086,-0.0054067969,
111.173,-3.3118801117,1.3851346970,12.5381584167,0.0588407777,0.0406643264,0.0102640390,-114.9946594238,72.6122741699,53.6326179504,0.0280348659,0.0666009188,0.0172821283,-10.7059860229,84.3409576416,81.6878814697,0.0185638070,0.0201914310,0.0298573375,42.4663352966,43.4474830627,69.3524551392,0.0651308894,-0.0102917850,-0.0019764900,
111.183,-3.3116517067,1.3851923943,12.5393295288,0.0598183461,0.0474962927,0.0044044256,-115.0034942627,72.6088027954,53.6370544434,0.0255753398,0.0563798547,0.0153952837,-10.6639823914,84.3390502930,81.7386550903,0.0214902163,0.0333083570,0.0283471942,42.4679412842,43.4481277466,69.3597946167,0.0695335865,-0.0093250275,-0.0034219027,
111.193,-3.3101348877,1.3861178160,12.5392646790,0.0588579327,0.0499112532,0.0097743869,-115.0114212036,72.6078948975,53.6415824890,0.0201995373,0.0568638742,0.0100682378,-10.6708688736,84.3377609253,81.7424545288,0.0268591046,0.0240468681,0.0288168192,42.4695205688,43.4493408203,69.3690261841,0.0656426549,-0.0093300045,-0.0068155527,
111.203,-3.3095552921,1.3857730627,12.5410718918,0.0593401976,0.0464831963,0.0083088279,-115.0269088745,72.6057434082,53.6398277283,0.0299538970,0.0597932935,0.0096683502,-10.6961660385,84.3360671997,81.7267913818,0.0258796215,0.0192132294,0.0229369998,42.4699821472,43.4509811401,69.3768386841,0.0661516786,-0.0088327527,-0.0053322911,
111.213,-3.3087332249,1.3873142004,12.5421705246,0.0588788055,0.0474454015,0.0034260154,-115.0282211304,72.6053314209,53.6501159668,0.0255572200,0.0593072474,0.0170018673,-10.7103366852,84.3344802856,81.7236099243,0.0253885984,0.0192430913,0.0258426666,42.4712257385,43.4491615295,69.3873291016,0.0734528303,-0.0078826249,-0.0053379536,
111.223,-3.3075711727,1.3880468607,12.5438737869,0.0618212745,0.0464485809,0.0034251809,-115.0362396240,72.6059722900,53.6516914368,0.0299550891,0.0651392341,0.0106877685,-10.6785039902,84.3351669312,81.7641372681,0.0200186968,0.0274859071,0.0248718262,42.4689483643,43.4514999390,69.3919982910,0.0607872009,-0.0093071461,-0.0019186139,
111.233,-3.3071854115,1.3856498003,12.5462265015,0.0686153919,0.0415591076,0.0039116144,-115.0452423096,72.6078414917,53.6512145996,0.0265468955,0.0606966615,0.0058344603,-10.6586551666,84.3362731934,81.7921447754,0.0239268541,0.0250074863,0.0239018798,42.4638252258,43.4521980286,69.3953170776,0.0725147724,-0.0160895586,0.0034148097,
111.243,-3.3078274727,1.3834662437,12.5467643738,0.0676007271,0.0445000343,0.0063530803,-115.0482330322,72.6070327759,53.6541824341,0.0226364136,0.0563074946,0.0068308115,-10.6414966583,84.3374252319,81.8180007935,0.0200225711,0.0269266665,0.0224548578,42.4616394043,43.4518013000,69.3992767334,0.0681152344,-0.0136309862,-0.0024666786,
111.253,-3.3093099594,1.3839401007,12.5471868515,0.0627261847,0.0372016244,0.0102609992,-115.0441513062,72.6073303223,53.6615295410,0.0236145258,0.0558241010,0.0126688480,-10.6204643250,84.3359985352,81.8463058472,0.0263677835,0.0278717279,0.0273041129,42.4611816406,43.4523200989,69.4051132202,0.0661686659,-0.0072748065,-0.0024662018,
111.263,-3.3089582920,1.3860039711,12.5471067429,0.0549496934,0.0479376353,0.0127029419,-115.0425643921,72.6092224121,53.6660690308,0.0265541077,0.0606816709,0.0170423985,-10.6055469513,84.3323364258,81.8673706055,0.0263614655,0.0244388580,0.0331011415,42.4603538513,43.4534873962,69.4105072021,0.0603241324,-0.0121404231,0.0009550452,
111.273,-3.3092894554,1.3857326508,12.5488433838,0.0632457361,0.0455020033,0.0048903227,-115.0381393433,72.6080932617,53.6745872498,0.0231302381,0.0592437685,0.0116584897,-10.5971012115,84.3342742920,81.8850479126,0.0224585533,0.0283251405,0.0184775591,42.4589576721,43.4527282715,69.4148483276,0.0661738515,-0.0067623556,0.0058193207,
111.283,-3.3098008633,1.3865209818,12.5487041473,0.0613063723,0.0450226106,0.0048914552,-115.0385208130,72.6062850952,53.6797065735,0.0255622268,0.0592699647,0.0077666640,-10.6002302170,84.3350296021,81.8913726807,0.0224598646,0.0200268328,0.0243545175,42.4619598389,43.4546051025,69.4224624634,0.0608265400,-0.0092166066,-0.0073219538,
111.293,-3.3112704754,1.3853342533,12.5487575531,0.0554262884,0.0416302755,0.0063573718,-115.0363464355,72.6036834717,53.6867675781,0.0235955119,0.0554077029,0.0146105289,-10.6067543030,84.3354110718,81.8947219849,0.0229488015,0.0205256045,0.0243603587,42.4612464905,43.4551773071,69.4299468994,0.0622986555,-0.0092054307,-0.0034173727,
111.303,-3.3125090599,1.3850330114,12.5499467850,0.0568858758,0.0401870087,0.0073350072,-115.0395202637,72.6027832031,53.6912994385,0.0274970531,0.0563908517,0.0087726712,-10.5920858383,84.3323364258,81.9162826538,0.0234317780,0.0249039531,0.0296778679,42.4642868042,43.4568099976,69.4384689331,0.0652490258,-0.0092205405,-0.0033761263,
111.313,-3.3130726814,1.3845081329,12.5504741669,0.0617595352,0.0426382534,0.0053822994,-115.0418548584,72.6051788330,53.6935844421,0.0284861326,0.0656277537,0.0136495829,-10.6071863174,84.3335113525,81.9114761353,0.0288048983,0.0224852562,0.0223767757,42.4676475525,43.4568519592,69.4478454590,0.0618315935,-0.0082750618,-0.0087183118,
111.323,-3.3138434887,1.3848905563,12.5509433746,0.0627427623,0.0441165119,0.0019648671,-115.0433807373,72.6065979004,53.6972122192,0.0201927423,0.0646255016,0.0126703978,-10.6097316742,84.3343734741,81.9184799194,0.0229470134,0.0263932049,0.0204389095,42.4670524597,43.4547691345,69.4529190063,0.0720591545,-0.0112160444,-0.0053236485,
111.333,-3.3118395805,1.3843938112,12.5527391434,0.0598044097,0.0450581796,0.0063574314,-115.0478363037,72.6042556763,53.6968269348,0.0240867734,0.0617217720,0.0014774203,-10.6154670715,84.3326797485,81.9205169678,0.0253854990,0.0210374892,0.0326185822,42.4677886963,43.4573020935,69.4602966309,0.0657435060,-0.0097375512,-0.0101779699,
111.343,-3.3116679192,1.3841251135,12.5526599884,0.0607762858,0.0431020707,0.0063570738,-115.0395278931,72.6028671265,53.7115516663,0.0323802829,0.0559008121,0.0141433477,-10.6240005493,84.3324050903,81.9186019897,0.0278264284,0.0205648243,0.0208981633,42.4666137695,43.4573783875,69.4658432007,0.0716038346,-0.0136322975,-0.0018866062,
111.353,-3.3116757870,1.3835352659,12.5531654358,0.0641839653,0.0445670597,0.0068451762,-115.0396957397,72.6048049927,53.7163238525,0.0226247907,0.0617320836,0.0102239251,-10.6145305634,84.3322677612,81.9362564087,0.0244082212,0.0273845792,0.0282182693,42.4677047729,43.4552116394,69.4722900391,0.0681584477,-0.0073123872,-0.0018965006,
111.363,-3.3106553555,1.3834098577,12.5532131195,0.0539278686,0.0460141413,0.0087972283,-115.0397644043,72.6053771973,53.7188339233,0.0270223022,0.0597693622,0.0111970305,-10.5867347717,84.3289489746,81.9734878540,0.0248907804,0.0278352499,0.0340122581,42.4668884277,43.4544792175,69.4777832031,0.0666843653,-0.0073106885,0.0024846792,
111.373,-3.3111164570,1.3818745613,12.5544347763,0.0612253025,0.0450456403,0.0078205466,-115.0451736450,72.6030349731,53.7163543701,0.0270100832,0.0612574220,0.0063561797,-10.5777711868,84.3286666870,81.9909133911,0.0263551474,0.0229377151,0.0222862363,42.4663238525,43.4530067444,69.4837799072,0.0695953369,-0.0087821186,0.0014901161,
111.383,-3.3095939159,1.3829851151,12.5574359894,0.0568501465,0.0474605002,0.0151433349,-115.0341186523,72.6047363281,53.7298965454,0.0226244330,0.0593038499,0.0204519033,-10.5902156830,84.3269424438,81.9861145020,0.0204927921,0.0229645669,0.0305627584,42.4651336670,43.4531631470,69.4875793457,0.0632496476,-0.0121876895,0.0000166893,
111.393,-3.3084051609,1.3835273981,12.5591325760,0.0627189800,0.0464632213,0.0097719431,-115.0243530273,72.6056671143,53.7425575256,0.0245823860,0.0558924079,0.0189343095,-10.5685482025,84.3237609863,82.0160980225,0.0209755898,0.0234251916,0.0334323645,42.4655723572,43.4532356262,69.4945373535,0.0656920075,-0.0053552985,0.0029507875,
111.403,-3.3074605465,1.3841118813,12.5608539581,0.0602877736,0.0435170680,0.0058645010,-115.0205535889,72.6053924561,53.7491149902,0.0270223618,0.0593238473,0.0135470033,-10.5681257248,84.3232116699,82.0248947144,0.0253691673,0.0219613910,0.0270751119,42.4657821655,43.4503288269,69.5021362305,0.0734676719,-0.0087987781,-0.0004911423,
111.413,-3.3112363815,1.3848669529,12.5631198883,0.0622540750,0.0396765657,0.0141695738,-115.0265426636,72.6030731201,53.7471122742,0.0250571370,0.0608092546,0.0067558885,-10.5905952454,84.3241424561,82.0115661621,0.0273239017,0.0215094090,0.0207486749,42.4643211365,43.4493255615,69.5084762573,0.0705252290,-0.0102581084,-0.0049071312,
111.423,-3.3127577305,1.3860700130,12.5635995865,0.0583688132,0.0411678776,0.0210076571,-115.0306396484,72.6008605957,53.7488059998,0.0182096958,0.0598575771,0.0028845072,-10.5972757339,84.3227996826,82.0128936768,0.0248801708,0.0254308581,0.0285447836,42.4635009766,43.4473419189,69.5144119263,0.0690352917,-0.0068484545,0.0009276867,
111.433,-3.3125805855,1.3849568367,12.5659751892,0.0642087683,0.0450710654,0.0058699250,-115.0337905884,72.6029891968,53.7529792786,0.0226153135,0.0627482235,0.0165563822,-10.6127605438,84.3258361816,82.0074234009,0.0312330723,0.0210546255,0.0188288689,42.4619636536,43.4472732544,69.5218505859,0.0656164885,-0.0156236589,-0.0010389090,
111.443,-3.3124330044,1.3873491287,12.5664472580,0.0559497252,0.0450684465,0.0088006258,-115.0436172485,72.6035766602,53.7496261597,0.0250597596,0.0597875118,0.0053686500,-10.5995035172,84.3221740723,82.0268859863,0.0214611292,0.0239720047,0.0334167480,42.4614105225,43.4488525391,69.5291519165,0.0705192685,-0.0131644607,-0.0015188456,
111.453,-3.3124191761,1.3870065212,12.5669918060,0.0613148436,0.0445799269,0.0107536316,-115.0411529541,72.6083526611,53.7589302063,0.0182487965,0.0655810535,0.0204598308,-10.6239843369,84.3208694458,82.0109481812,0.0287830830,0.0171829164,0.0236353278,42.4622688293,43.4507789612,69.5360870361,0.0637077689,-0.0102271140,-0.0053999424,
111.463,-3.3116683960,1.3868944645,12.5693054199,0.0652191341,0.0470082648,0.0117294192,-115.0405273438,72.6099014282,53.7648010254,0.0241162181,0.0606755316,0.0111687779,-10.6170005798,84.3215255737,82.0262374878,0.0209717155,0.0249810517,0.0216922164,42.4590263367,43.4509086609,69.5397109985,0.0641976595,-0.0101957321,0.0028741360,
111.473,-3.3130927086,1.3858219385,12.5704698563,0.0617824569,0.0416620113,0.0088008642,-115.0363616943,72.6120376587,53.7736282349,0.0314515829,0.0626066625,0.0155284405,-10.6020555496,84.3214187622,82.0508804321,0.0239012241,0.0254440010,0.0270548463,42.4582557678,43.4504928589,69.5449600220,0.0685868859,-0.0136098564,-0.0059250593,
111.483,-3.3151223660,1.3825236559,12.5705089569,0.0627014637,0.0397443138,0.0034303665,-115.0326156616,72.6141967773,53.7826232910,0.0256034732,0.0572110415,0.0194017887,-10.5978288651,84.3193054199,82.0631713867,0.0292686820,0.0244661272,0.0270220041,42.4575538635,43.4526977539,69.5502243042,0.0656851530,-0.0140738487,-0.0068889260,
111.493,-3.3153886795,1.3849585056,12.5720911026,0.0603025481,0.0392606184,0.0078257918,-115.0223846436,72.6154479980,53.7966308594,0.0241451263,0.0581911802,0.0183680058,-10.6057138443,84.3175506592,82.0645065308,0.0243828297,0.0205796957,0.0313854218,42.4547920227,43.4534492493,69.5546646118,0.0705775619,-0.0179480314,-0.0010459423,
111.503,-3.3135507107,1.3857614994,12.5720548630,0.0549454615,0.0445996635,0.0083131790,-115.0201721191,72.6152114868,53.8038825989,0.0246322155,0.0586884618,0.0076168180,-10.6079387665,84.3176193237,82.0704650879,0.0263360739,0.0215593278,0.0177193880,42.4542655945,43.4535522461,69.5617370605,0.0661842823,-0.0115947127,-0.0010496378,
111.513,-3.3143594265,1.3851649761,12.5737962723,0.0622592717,0.0416840799,0.0053834915,-115.0333938599,72.6171035767,53.7965507507,0.0178061128,0.0640012622,0.0047366619,-10.6124954224,84.3160705566,82.0734634399,0.0224271417,0.0191314220,0.0269674063,42.4511032104,43.4533729553,69.5656280518,0.0661820769,-0.0159609914,0.0013635159,
111.523,-3.3134183884,1.3836767673,12.5762405396,0.0612567440,0.0455739833,0.0063588023,-115.0400619507,72.6152267456,53.7928237915,0.0260971189,0.0630380809,0.0057579875,-10.6069936752,84.3147277832,82.0876541138,0.0248662233,0.0235199928,0.0230410695,42.4516563416,43.4549026489,69.5714416504,0.0652248859,-0.0100944042,-0.0083838701,
111.533,-3.3150484562,1.3833795786,12.5779533386,0.0632046834,0.0431609713,0.0014774203,-115.0400466919,72.6168136597,53.7975311279,0.0285468102,0.0620386302,0.0125826001,-10.5914144516,84.3173141479,82.1105575562,0.0278003812,0.0264149010,0.0177056789,42.4514083862,43.4517822266,69.5774841309,0.0759275556,-0.0081642866,-0.0040190816,
111.543,-3.3135299683,1.3825601339,12.5809841156,0.0612372570,0.0475290716,0.0078232288,-115.0376052856,72.6189041138,53.8046493530,0.0187920928,0.0649408996,0.0125565529,-10.5769805908,84.3162078857,82.1330718994,0.0258453488,0.0244395137,0.0289173126,42.4539451599,43.4513130188,69.5840759277,0.0617613792,-0.0077036023,-0.0030257106,
111.553,-3.3139383793,1.3812662363,12.5815830231,0.0602381229,0.0431416892,0.0073348880,-115.0376586914,72.6216964722,53.8132286072,0.0227128863,0.0648997724,0.0130251646,-10.5692186356,84.3190383911,82.1495666504,0.0224322677,0.0263710916,0.0196797252,42.4537239075,43.4484024048,69.5906524658,0.0705136061,-0.0091898143,0.0013419390,
111.563,-3.3143527508,1.3828963041,12.5832309723,0.0588017181,0.0387543328,0.0068476796,-115.0382080078,72.6205368042,53.8200111389,0.0314958692,0.0639390647,0.0174307227,-10.5764799118,84.3174133301,82.1510467529,0.0199880600,0.0190638900,0.0279601216,42.4538040161,43.4467277527,69.5970916748,0.0700041056,-0.0072510242,0.0008394718,
111.573,-3.3117678165,1.3834408522,12.5831995010,0.0558815375,0.0450569503,0.0092868805,-115.0473327637,72.6212692261,53.8168754578,0.0168513060,0.0668372512,0.0003788471,-10.5974969864,84.3195571899,82.1395034790,0.0190151930,0.0205593407,0.0143254399,42.4503822327,43.4471588135,69.6007919312,0.0656149983,-0.0150279999,0.0032553673,
111.583,-3.3119819164,1.3843362331,12.5842618942,0.0612682477,0.0416426957,0.0073338747,-115.0465393066,72.6230163574,53.8235054016,0.0276025534,0.0614427328,0.0145228505,-10.5975351334,84.3197937012,82.1464309692,0.0204804540,0.0220227540,0.0177522302,42.4518547058,43.4491539001,69.6087875366,0.0636871457,-0.0106312335,-0.0050156713,
111.593,-3.3134429455,1.3842617273,12.5865859985,0.0627317950,0.0436212644,0.0063591599,-115.0494918823,72.6233901978,53.8254928589,0.0310224891,0.0624060929,0.0130695701,-10.5862760544,84.3176193237,82.1661758423,0.0248712301,0.0224987268,0.0294282436,42.4501838684,43.4489631653,69.6141128540,0.0705206990,-0.0125701427,-0.0025894046,
111.603,-3.3144061565,1.3821945190,12.5877466202,0.0651371330,0.0411966890,0.0053825378,-115.0489807129,72.6233444214,53.8294830322,0.0280925632,0.0614321232,0.0116024613,-10.6066169739,84.3165130615,82.1548233032,0.0243810415,0.0210725963,0.0255104303,42.4501571655,43.4494895935,69.6182708740,0.0685742497,-0.0135422945,-0.0035623312,
111.613,-3.3150641918,1.3808010817,12.5888805389,0.0651128218,0.0421847440,0.0102654099,-115.0488510132,72.6216735840,53.8316192627,0.0310135484,0.0580390692,0.0101489425,-10.5883083344,84.3194885254,82.1801681519,0.0195033550,0.0298203528,0.0148134828,42.4458732605,43.4513359070,69.6218795776,0.0642030835,-0.0159285665,-0.0006521940,
111.623,-3.3161809444,1.3808809519,12.5881414413,0.0616962425,0.0407393463,0.0097782612,-115.0434799194,72.6202850342,53.8391532898,0.0280765891,0.0600250065,0.0130629539,-10.6030998230,84.3204498291,82.1732864380,0.0253643990,0.0195892453,0.0211811662,42.4469032288,43.4523200989,69.6292800903,0.0690984130,-0.0130006671,-0.0074712038,
111.633,-3.3163149357,1.3802216053,12.5899066925,0.0626613051,0.0461127944,0.0102665424,-115.0593261719,72.6218948364,53.8256454468,0.0329678059,0.0628951192,0.0004312992,-10.6116552353,84.3212051392,82.1718673706,0.0209711790,0.0235078931,0.0246149898,42.4499664307,43.4539184570,69.6374359131,0.0676537752,-0.0091100931,-0.0132900476,
111.643,-3.3166670799,1.3798737526,12.5923347473,0.0572841391,0.0431892499,0.0068487525,-115.0552139282,72.6212005615,53.8340225220,0.0197806358,0.0619388819,0.0116471648,-10.6196937561,84.3214874268,82.1723327637,0.0190185308,0.0196147561,0.0182744265,42.4498252869,43.4516677856,69.6419525146,0.0690901279,-0.0066855252,0.0023138523,
111.653,-3.3160655499,1.3807569742,12.5934591293,0.0592526719,0.0465967245,0.0097783804,-115.0500488281,72.6215057373,53.8439750671,0.0280829668,0.0580384433,0.0179682374,-10.6077451706,84.3194198608,82.1925430298,0.0195032358,0.0249715745,0.0314196348,42.4504890442,43.4536094666,69.6491851807,0.0676498413,-0.0125354528,-0.0093818903,
111.663,-3.3155028820,1.3807426691,12.5958089828,0.0602289848,0.0421923958,0.0019652843,-115.0476455688,72.6235580444,53.8519973755,0.0241874456,0.0609440207,0.0179422498,-10.6050834656,84.3204498291,82.2030639648,0.0234112740,0.0234988928,0.0221585631,42.4498367310,43.4536895752,69.6560974121,0.0710688829,-0.0095988810,0.0013554096,
111.673,-3.3152580261,1.3802906275,12.5975961685,0.0597328208,0.0431646965,0.0088003278,-115.0464324951,72.6231002808,53.8591194153,0.0256499052,0.0585109890,0.0096390843,-10.6054878235,84.3198318481,82.2122344971,0.0282930136,0.0220368207,0.0270304084,42.4540328979,43.4532318115,69.6649551392,0.0700864792,-0.0052475035,-0.0093555450,
111.683,-3.3144598007,1.3804451227,12.5993537903,0.0597355142,0.0451039225,0.0083115101,-115.0509796143,72.6241378784,53.8610420227,0.0222373605,0.0623915493,0.0106298923,-10.6019859314,84.3193511963,82.2265777588,0.0268273354,0.0259385109,0.0206734538,42.4547767639,43.4559898376,69.6731338501,0.0662152171,-0.0115796626,-0.0044414401,
111.693,-3.3134460449,1.3801271915,12.6011753082,0.0572885573,0.0436214246,0.0141697526,-115.0548858643,72.6240310669,53.8618392944,0.0251664519,0.0599433482,0.0082077384,-10.5996713638,84.3186264038,82.2371826172,0.0219432712,0.0225187838,0.0260318518,42.4535140991,43.4551467896,69.6787567139,0.0666927695,-0.0096215904,-0.0005536079,
111.703,-3.3112657070,1.3800803423,12.6036128998,0.0582643040,0.0499310941,0.0034253597,-115.0538330078,72.6252059937,53.8681182861,0.0246843100,0.0613930821,0.0130773187,-10.6041154861,84.3203125000,82.2428665161,0.0224344730,0.0244739950,0.0236222744,42.4497299194,43.4540176392,69.6836700439,0.0700964332,-0.0130132139,0.0052636862,
111.713,-3.3136825562,1.3806347847,12.6040754318,0.0602271035,0.0382544324,0.0083107948,-115.0488357544,72.6270828247,53.8778228760,0.0242058039,0.0599110425,0.0130404234,-10.6040802002,84.3219757080,82.2502899170,0.0263435841,0.0186094940,0.0280436873,42.4480323792,43.4559707642,69.6889190674,0.0681680441,-0.0120050311,-0.0020579100,
111.723,-3.3130829334,1.3800189495,12.6064205170,0.0646108910,0.0465447903,0.0058686137,-115.0621414185,72.6266632080,53.8693847656,0.0256684422,0.0652592480,0.0033407807,-10.5927839279,84.3216934204,82.2706604004,0.0219485760,0.0239618719,0.0168047547,42.4520568848,43.4557838440,69.6988143921,0.0715836883,-0.0135090053,-0.0083726645,
111.733,-3.3134822845,1.3783804178,12.6069793701,0.0655588657,0.0475283414,0.0029386282,-115.0585174561,72.6259384155,53.8787193298,0.0217584372,0.0599066913,0.0150474310,-10.5936975479,84.3199691772,82.2775497437,0.0214573145,0.0205511451,0.0294699073,42.4512901306,43.4565696716,69.7042007446,0.0711053610,-0.0130073130,-0.0005604029,
111.743,-3.3115284443,1.3787696362,12.6063394547,0.0562883131,0.0450528897,0.0087962151,-115.0661544800,72.6272888184,53.8758583069,0.0227420330,0.0676820278,0.0087264180,-10.5902338028,84.3190002441,82.2892684937,0.0234087706,0.0268957615,0.0245701075,42.4526634216,43.4574890137,69.7112121582,0.0647693872,-0.0105711222,-0.0088405609,
111.753,-3.3117902279,1.3791733980,12.6074790955,0.0587367639,0.0435926020,0.0083085299,-115.0676269531,72.6275939941,53.8801269531,0.0246967673,0.0618141890,0.0121493936,-10.5867528915,84.3220443726,82.3023986816,0.0239022970,0.0215088725,0.0153442621,42.4514427185,43.4564666748,69.7182006836,0.0715923309,-0.0091033280,0.0018814802,
111.763,-3.3103623390,1.3818136454,12.6079044342,0.0573179871,0.0430793762,0.0117259622,-115.0639419556,72.6294097900,53.8884429932,0.0237296224,0.0578900278,0.0135838985,-10.5565347672,84.3175201416,82.3392333984,0.0253593326,0.0268421769,0.0425987244,42.4545516968,43.4563064575,69.7254486084,0.0671957731,-0.0081569552,-0.0044402480,
111.773,-3.3109521866,1.3830981255,12.6101713181,0.0602700859,0.0401599370,0.0107505918,-115.0577697754,72.6311874390,53.8988342285,0.0266686082,0.0642233789,0.0203781724,-10.5400314331,84.3189010620,82.3648757935,0.0238968730,0.0312030911,0.0211366415,42.4517555237,43.4558906555,69.7298126221,0.0720733404,-0.0125288963,-0.0034923553,
111.783,-3.3099377155,1.3858793974,12.6124925613,0.0549475178,0.0479547009,0.0083092451,-115.0478744507,72.6342391968,53.9135398865,0.0286376476,0.0642008483,0.0261689425,-10.5215969086,84.3223495483,82.3921203613,0.0282973647,0.0282313824,0.0133711696,42.4523277283,43.4571647644,69.7368392944,0.0686715245,-0.0115472078,-0.0044518709,
111.793,-3.3116874695,1.3862496614,12.6141958237,0.0588602312,0.0362664238,0.0048932433,-115.0490493774,72.6350708008,53.9178199768,0.0276653767,0.0641847551,0.0090789795,-10.5243186951,84.3198318481,82.3967132568,0.0170625448,0.0238486528,0.0314012170,42.4563827515,43.4556694031,69.7460250854,0.0725587606,-0.0028083920,-0.0083373785,
111.803,-3.3123083115,1.3821816444,12.6148824692,0.0636720657,0.0401835889,0.0112398863,-115.0455703735,72.6344757080,53.9251480103,0.0227794647,0.0593180954,0.0134613514,-10.5204811096,84.3159027100,82.4084167480,0.0214502811,0.0228780806,0.0288898349,42.4523429871,43.4554634094,69.7470550537,0.0647436976,-0.0164439082,-0.0025136471,
111.813,-3.3121225834,1.3823570013,12.6172533035,0.0597688742,0.0450631604,0.0078217983,-115.0373764038,72.6365966797,53.9376602173,0.0286499262,0.0602817535,0.0207317472,-10.5279169083,84.3159713745,82.4073028564,0.0282863379,0.0253317952,0.0235248208,42.4564094543,43.4553146362,69.7550659180,0.0710894465,-0.0062294304,-0.0093168020,
111.823,-3.3129394054,1.3805496693,12.6184511185,0.0621787421,0.0416594632,0.0078219175,-115.0387115479,72.6372375488,53.9426155090,0.0252352357,0.0627096295,0.0134095550,-10.5422019958,84.3136291504,82.3996429443,0.0243760347,0.0214579701,0.0239764452,42.4563636780,43.4541587830,69.7597656250,0.0686333776,-0.0096561909,-0.0049321055,
111.833,-3.3107841015,1.3829022646,12.6195325851,0.0583135411,0.0499226451,0.0073324442,-115.0514602661,72.6369323730,53.9348831177,0.0262102485,0.0568281412,-0.0002001524,-10.5401916504,84.3137664795,82.4098281860,0.0209583044,0.0209652483,0.0269113183,42.4560165405,43.4526748657,69.7650833130,0.0710560083,-0.0057588220,-0.0039722919,
111.843,-3.3105635643,1.3825681210,12.6200981140,0.0592842735,0.0430828668,0.0151444674,-115.0519332886,72.6371154785,53.9396705627,0.0237697959,0.0568234324,0.0081017613,-10.5288887024,84.3137283325,82.4316940308,0.0253527761,0.0243644714,0.0249487162,42.4569549561,43.4529953003,69.7725296021,0.0652006865,-0.0077180862,-0.0049375296,
111.853,-3.3094551563,1.3836809397,12.6212453842,0.0563740022,0.0440400913,0.0122141242,-115.0563507080,72.6381912231,53.9402580261,0.0262168050,0.0597272515,0.0120212436,-10.5067558289,84.3106994629,82.4587631226,0.0268123746,0.0248230696,0.0312427282,42.4538230896,43.4539413452,69.7768554688,0.0666775703,-0.0159818828,-0.0010498166,
111.863,-3.3083796501,1.3838118315,12.6229648590,0.0617473833,0.0440213606,0.0024475455,-115.0644760132,72.6398315430,53.9347457886,0.0198776722,0.0670086741,0.0105833411,-10.5248193741,84.3097610474,82.4485702515,0.0233927965,0.0214396715,0.0234186053,42.4528160095,43.4527053833,69.7814331055,0.0710563660,-0.0174472630,-0.0035105944,
111.873,-3.3085200787,1.3842656612,12.6234550476,0.0602904558,0.0420706682,0.0000061393,-115.0672912598,72.6403656006,53.9378395081,0.0247632861,0.0586939454,0.0091280937,-10.5397911072,84.3088684082,82.4425201416,0.0233912468,0.0209799111,0.0229220390,42.4541053772,43.4505996704,69.7871704102,0.0661468506,-0.0077109337,0.0013637543,
111.883,-3.3110172749,1.3859423399,12.6227455139,0.0539720543,0.0401610062,0.0107522011,-115.0676040649,72.6405944824,53.9435386658,0.0237879157,0.0586886704,0.0154756904,-10.5540409088,84.3078308105,82.4361114502,0.0238777399,0.0185666084,0.0258384347,42.4498176575,43.4510002136,69.7905120850,0.0617574453,-0.0130385160,0.0013314486,
111.893,-3.3109550476,1.3876627684,12.6238174438,0.0583966076,0.0426012874,0.0078222752,-115.0699539185,72.6408004761,53.9452896118,0.0218358636,0.0616118312,0.0110905766,-10.5581121445,84.3082504272,82.4410095215,0.0243667364,0.0254083276,0.0194990635,42.4486274719,43.4486694336,69.7958679199,0.0729583502,-0.0071868896,0.0003240108,
111.903,-3.3093717098,1.3867734671,12.6232156754,0.0583810881,0.0459916964,0.0014732480,-115.0766220093,72.6402359009,53.9452171326,0.0252509117,0.0591628253,0.0047786236,-10.5701284409,84.3051528931,82.4379348755,0.0189902782,0.0205562413,0.0336103439,42.4483070374,43.4486427307,69.8015899658,0.0724697709,-0.0135318339,-0.0026093721,
111.913,-3.3099286556,1.3867024183,12.6255102158,0.0627743751,0.0381889008,0.0078209639,-115.0761413574,72.6417617798,53.9503555298,0.0218408704,0.0601184368,0.0120897293,-10.5623741150,84.3011932373,82.4550704956,0.0224013925,0.0249494612,0.0306129456,42.4509925842,43.4502716064,69.8103179932,0.0612599254,-0.0086608827,-0.0035475492,
111.923,-3.3099868298,1.3862129450,12.6248283386,0.0613009930,0.0445375778,0.0029386878,-115.0691986084,72.6419448853,53.9611663818,0.0257480741,0.0567122996,0.0140088201,-10.5687208176,84.3007431030,82.4554519653,0.0224006176,0.0191026628,0.0203527808,42.4494323730,43.4501228333,69.8156280518,0.0671173930,-0.0130421817,0.0003433228,
111.933,-3.3082251549,1.3878314495,12.6259641647,0.0564464256,0.0464599803,0.0024483204,-115.0730819702,72.6430358887,53.9624786377,0.0247771740,0.0654763579,0.0125546455,-10.5568933487,84.2990264893,82.4749221802,0.0277687311,0.0249466598,0.0310631990,42.4445648193,43.4505653381,69.8176879883,0.0651698709,-0.0129929781,0.0076301098,
111.943,-3.3090951443,1.3907476664,12.6269960403,0.0564973094,0.0435453728,0.0127052069,-115.0835418701,72.6430358887,53.9569740295,0.0325896740,0.0625243783,0.0033267736,-10.5446271896,84.3009490967,82.4956512451,0.0243541002,0.0254077017,0.0198602080,42.4430847168,43.4494972229,69.8248291016,0.0675977468,-0.0115228593,0.0017489195,
111.953,-3.3087229729,1.3908073902,12.6268987656,0.0594280362,0.0396326408,0.0004974008,-115.0825576782,72.6410217285,53.9633331299,0.0257432461,0.0581616461,0.0087074637,-10.5631408691,84.3021240234,82.4852828979,0.0233795643,0.0249477625,0.0242819786,42.4434623718,43.4490356445,69.8317718506,0.0675919652,-0.0081122518,0.0002825260,
111.963,-3.3080275059,1.3908852339,12.6292896271,0.0579645485,0.0425502136,0.0078212619,-115.0798568726,72.6396942139,53.9722023010,0.0286660194,0.0596531928,0.0101687908,-10.5435895920,84.3026046753,82.5123443604,0.0224038363,0.0244245827,0.0237910748,42.4420089722,43.4475669861,69.8374404907,0.0690381527,-0.0090869665,0.0056289434,
111.973,-3.3087482452,1.3901253939,12.6291751862,0.0647872314,0.0420745015,0.0102627277,-115.0778656006,72.6434555054,53.9778976440,0.0277090669,0.0683891177,0.0189220309,-10.5380735397,84.3043212891,82.5253906250,0.0219185352,0.0229440928,0.0194281936,42.4419975281,43.4464454651,69.8425674438,0.0719535947,-0.0139790177,0.0002471209,
111.983,-3.3089838028,1.3905955553,12.6314973831,0.0628423095,0.0479379743,0.0029392242,-115.0822372437,72.6439590454,53.9782485962,0.0262468457,0.0581178665,0.0067319870,-10.5488491058,84.3054199219,82.5238113403,0.0268032551,0.0234481692,0.0233532786,42.4416198730,43.4472541809,69.8468933105,0.0690342188,-0.0144570172,-0.0056077838,
111.993,-3.3090384007,1.3910652399,12.6338176727,0.0608973801,0.0420795307,0.0083101988,-115.0746078491,72.6428833008,53.9915962219,0.0262412429,0.0537565053,0.0145161152,-10.5451946259,84.3037033081,82.5356979370,0.0204526186,0.0224702060,0.0291851759,42.4407615662,43.4490928650,69.8530960083,0.0651512146,-0.0158990026,-0.0075521469,
112.003,-3.3104879856,1.3906885386,12.6343345642,0.0613790862,0.0416165106,0.0092888474,-115.0798873901,72.6430435181,53.9916801453,0.0272186399,0.0615550876,0.0081921816,-10.5440282822,84.3058395386,82.5459823608,0.0277805328,0.0219732821,0.0179898143,42.4411849976,43.4496650696,69.8597030640,0.0710178614,-0.0090623498,-0.0026605129,
112.013,-3.3109619617,1.3892771006,12.6360712051,0.0652607083,0.0406482406,0.0092881918,-115.0764846802,72.6419830322,53.9996643066,0.0208654404,0.0591374040,0.0130664706,-10.5303068161,84.3078994751,82.5698318481,0.0243661404,0.0307322741,0.0238780379,42.4437866211,43.4476814270,69.8682022095,0.0685513020,-0.0027551353,-0.0016794205,
112.023,-3.3099384308,1.3895307779,12.6366567612,0.0569643565,0.0460015014,0.0073344707,-115.0762329102,72.6427154541,54.0052490234,0.0272169113,0.0630332828,0.0120835304,-10.5397405624,84.3090438843,82.5694580078,0.0263212323,0.0219559669,0.0185296535,42.4459075928,43.4467277527,69.8764419556,0.0670744181,-0.0086419880,0.0022368431,
112.033,-3.3106148243,1.3911643028,12.6377124786,0.0584577024,0.0401538610,0.0004990697,-115.0800094604,72.6435623169,54.0074424744,0.0238033533,0.0620354414,0.0086776018,-10.5493278503,84.3115234375,82.5690612793,0.0204661489,0.0185470283,0.0171089172,42.4453849792,43.4496917725,69.8830184937,0.0568580627,-0.0125194788,-0.0084843040,
112.043,-3.3101379871,1.3919924498,12.6395006180,0.0550541803,0.0440517925,0.0024529099,-115.0767974854,72.6431045532,54.0154228210,0.0242892504,0.0576547682,0.0101304054,-10.5745601654,84.3150329590,82.5518417358,0.0243784785,0.0176034272,0.0142457485,42.4432258606,43.4508247375,69.8884048462,0.0617552400,-0.0100485682,-0.0001912713,
112.053,-3.3083891869,1.3935434818,12.6412534714,0.0570343658,0.0484158210,0.0097759366,-115.0783538818,72.6427459717,54.0198554993,0.0291702151,0.0605865717,0.0096520185,-10.6067409515,84.3159713745,82.5288162231,0.0214504004,0.0161916018,0.0206192136,42.4439048767,43.4511184692,69.8952941895,0.0612706542,-0.0090761483,-0.0031131506,
112.063,-3.3101699352,1.3940566778,12.6423568726,0.0604612902,0.0425874554,0.0073366165,-115.0812377930,72.6425247192,54.0215911865,0.0267276764,0.0596066117,0.0091788769,-10.6366090775,84.3154830933,82.5080413818,0.0234026909,0.0181981325,0.0230621099,42.4469680786,43.4507446289,69.9040069580,0.0715198517,-0.0130139291,-0.0109022856,
112.073,-3.3097763062,1.3959431648,12.6422395706,0.0556113943,0.0416039862,0.0141725540,-115.0794982910,72.6438217163,54.0299301147,0.0247812867,0.0630091131,0.0130677819,-10.6364603043,84.3135528564,82.5171966553,0.0233993530,0.0191804171,0.0254716277,42.4478111267,43.4475822449,69.9116210938,0.0719680786,-0.0066997707,0.0017721653,
112.083,-3.3098971844,1.3953988552,12.6434230804,0.0599964298,0.0440475158,0.0107546449,-115.0826568604,72.6450119019,54.0313491821,0.0203929543,0.0605427623,0.0101446509,-10.6213264465,84.3138961792,82.5407028198,0.0273061991,0.0274539888,0.0186356306,42.4449768066,43.4440116882,69.9172515869,0.0733876228,-0.0115849972,0.0036695004,
112.093,-3.3115544319,1.3973327875,12.6443939209,0.0619832985,0.0387052447,0.0092924237,-115.0873413086,72.6460494995,54.0318336487,0.0257694721,0.0595403910,0.0096712112,-10.6315240860,84.3120346069,82.5388488770,0.0263264179,0.0196649432,0.0220264792,42.4440078735,43.4439773560,69.9230575562,0.0670395494,-0.0091348290,-0.0012220144,
112.103,-3.3086974621,1.3997918367,12.6436586380,0.0576316714,0.0503741615,0.0092901587,-115.0751724243,72.6485290527,54.0479698181,0.0233409405,0.0629480183,0.0198500752,-10.6376447678,84.3114166260,82.5424118042,0.0209542513,0.0201657116,0.0273896456,42.4400787354,43.4437217712,69.9269638062,0.0626417994,-0.0130062997,0.0016719699,
112.113,-3.3089363575,1.3992891312,12.6460561752,0.0600643083,0.0435424000,0.0097787380,-115.0753097534,72.6496887207,54.0527496338,0.0287180543,0.0629301667,0.0164245963,-10.6298913956,84.3120727539,82.5586471558,0.0292561650,0.0230799913,0.0210497379,42.4388847351,43.4445304871,69.9322052002,0.0689997077,-0.0149417520,-0.0046787858,
112.123,-3.3098242283,1.3988132477,12.6471700668,0.0639622509,0.0435578749,0.0083146691,-115.0698013306,72.6484680176,54.0627288818,0.0262703300,0.0590543449,0.0154306293,-10.6192979813,84.3136291504,82.5788421631,0.0243760347,0.0250100195,0.0274188519,42.4414939880,43.4437980652,69.9396209717,0.0753380656,-0.0091127157,-0.0095458031,
112.133,-3.3106026649,1.4001863003,12.6482200623,0.0595916808,0.0396651514,0.0073393583,-115.0665206909,72.6507720947,54.0720748901,0.0248174667,0.0614684224,0.0197933316,-10.6250171661,84.3150711060,82.5813446045,0.0204722881,0.0274563432,0.0201235414,42.4389915466,43.4445419312,69.9456100464,0.0719295740,-0.0178723335,0.0002051592,
112.143,-3.3117640018,1.3991854191,12.6481618881,0.0610390604,0.0406619720,0.0019690394,-115.0733032227,72.6515808105,54.0716133118,0.0174974203,0.0594882369,0.0095658302,-10.6497182846,84.3164443970,82.5656280518,0.0229160786,0.0231006444,0.0196648836,42.4390563965,43.4445419312,69.9513168335,0.0567928553,-0.0046893358,0.0046000481,
112.153,-3.3128337860,1.4018162489,12.6503190994,0.0596201196,0.0343328826,0.0044127107,-115.0730972290,72.6518402100,54.0769729614,0.0297058225,0.0580199361,0.0115161538,-10.6405143738,84.3135147095,82.5842895508,0.0199813247,0.0260235071,0.0298669934,42.4412612915,43.4432220459,69.9597396851,0.0704479218,-0.0096035004,-0.0027168989,
112.163,-3.3131208420,1.4020328522,12.6508569717,0.0591356196,0.0436152183,0.0044130087,-115.0765914917,72.6540298462,54.0790939331,0.0262992382,0.0604206920,0.0129821301,-10.6512098312,84.3123855591,82.5844955444,0.0199793577,0.0187213719,0.0332697630,42.4385681152,43.4432640076,69.9649810791,0.0660539865,-0.0129958987,0.0036081076,
112.173,-3.3118774891,1.4042118788,12.6518707275,0.0611267611,0.0445700660,0.0092955828,-115.0747756958,72.6518402100,54.0861053467,0.0262878537,0.0531332493,0.0090827942,-10.6634130478,84.3122100830,82.5813293457,0.0233970284,0.0202079713,0.0210638046,42.4405364990,43.4396400452,69.9730987549,0.0684494376,-0.0042545795,-0.0008017421,
112.183,-3.3120284081,1.4050816298,12.6534929276,0.0635833442,0.0396898612,0.0063663721,-115.0799255371,72.6488952637,54.0842132568,0.0218780041,0.0536546707,-0.0011260509,-10.6477088928,84.3147277832,82.6060714722,0.0234013796,0.0250557363,0.0162172318,42.4427146912,43.4358406067,69.9791412354,0.0737723708,-0.0072354376,-0.0027697682,
112.193,-3.3123569489,1.4040602446,12.6539735794,0.0679600537,0.0455549881,0.0097842813,-115.0797042847,72.6498489380,54.0891990662,0.0301837325,0.0604766607,0.0100965500,-10.6634712219,84.3146591187,82.5993499756,0.0253543854,0.0211770236,0.0264754295,42.4437980652,43.4348030090,69.9872589111,0.0693646669,-0.0136016607,-0.0052111149,
112.203,-3.3120610714,1.4014576674,12.6552076340,0.0649849549,0.0455498956,0.0083175898,-115.0822906494,72.6527633667,54.0905418396,0.0209215879,0.0618914664,0.0105766654,-10.6572751999,84.3147277832,82.6132354736,0.0277959108,0.0240956247,0.0269634128,42.4465484619,43.4336013794,69.9939804077,0.0713025331,-0.0092427433,-0.0056872368,
112.213,-3.3111593723,1.4026789665,12.6562948227,0.0601234548,0.0455341600,0.0073413253,-115.0848388672,72.6528244019,54.0920143127,0.0306875110,0.0570036471,0.0096115470,-10.6850385666,84.3138961792,82.5952301025,0.0219351053,0.0168223381,0.0225634575,42.4428062439,43.4356994629,69.9980697632,0.0596103668,-0.0179796815,0.0040657520,
112.223,-3.3085241318,1.4018665552,12.6575946808,0.0566913113,0.0493945293,0.0122202635,-115.0881347656,72.6522598267,54.0929450989,0.0287314653,0.0594451129,0.0125609040,-10.7090635300,84.3131408691,82.5795440674,0.0219337940,0.0197962224,0.0308590531,42.4402961731,43.4351806641,70.0025329590,0.0683929324,-0.0121010542,-0.0003553629,
112.233,-3.3063275814,1.4031982422,12.6581249237,0.0576911047,0.0478913896,0.0141724944,-115.0883789063,72.6512756348,54.0968551636,0.0238435268,0.0555528402,0.0140339136,-10.7142629623,84.3130722046,82.5802154541,0.0229102373,0.0237116516,0.0230475664,42.4417533875,43.4352111816,70.0085220337,0.0674167275,-0.0121143162,0.0006346107,
112.243,-3.3064990044,1.4030109644,12.6592750549,0.0606175289,0.0439881347,0.0029420257,-115.0824508667,72.6537322998,54.1055297852,0.0243445635,0.0599243641,0.0149651170,-10.7105731964,84.3142395020,82.5918884277,0.0209591389,0.0197952986,0.0220892429,42.4411888123,43.4310531616,70.0135269165,0.0732234120,-0.0082365274,0.0015689135,
112.253,-3.3066210747,1.4045346975,12.6597690582,0.0567378663,0.0420370921,0.0053842664,-115.0779724121,72.6544189453,54.1152076721,0.0277661085,0.0613876581,0.0139626265,-10.7172412872,84.3158264160,82.5930709839,0.0234032869,0.0227316320,0.0177228451,42.4423103333,43.4315299988,70.0190963745,0.0678583980,-0.0121493936,-0.0032997131,
112.263,-3.3068921566,1.4052414894,12.6614599228,0.0621212944,0.0435066372,0.0092906356,-115.0778732300,72.6552963257,54.1188812256,0.0238644481,0.0633294582,0.0120026469,-10.7047214508,84.3134460449,82.6125869751,0.0219343305,0.0266236961,0.0279327035,42.4411315918,43.4329376221,70.0235977173,0.0634816885,-0.0116387308,-0.0003677011,
112.273,-3.3059415817,1.4045737982,12.6619939804,0.0645510405,0.0478846356,0.0092896223,-115.0826721191,72.6547622681,54.1169662476,0.0292327404,0.0608845651,0.0056815147,-10.6976785660,84.3128585815,82.6268463135,0.0199801922,0.0217303932,0.0259680152,42.4423065186,43.4307289124,70.0285568237,0.0732192993,-0.0058081448,0.0005995035,
112.283,-3.3053741455,1.4015692472,12.6645545959,0.0601040907,0.0464099795,0.0053816438,-115.0906219482,72.6568603516,54.1135826111,0.0287553668,0.0652298927,0.0100988150,-10.6851329803,84.3116226196,82.6465225220,0.0263257027,0.0231772959,0.0235021710,42.4400253296,43.4305191040,70.0337753296,0.0697986484,-0.0121362805,0.0015541315,
112.293,-3.3024566174,1.4020955563,12.6663455963,0.0581601486,0.0483122766,0.0000077486,-115.0891418457,72.6589736938,54.1199226379,0.0292546749,0.0695953667,0.0130068064,-10.6890258789,84.3112411499,82.6509933472,0.0229070783,0.0226970613,0.0244732499,42.4393043518,43.4323158264,70.0399475098,0.0615206957,-0.0130913258,-0.0013650656,
112.303,-3.3026745319,1.4010827541,12.6687002182,0.0640018508,0.0414801612,0.0097733140,-115.0947723389,72.6604232788,54.1205635071,0.0175434351,0.0651675761,0.0071637034,-10.6810693741,84.3118286133,82.6673583984,0.0253494978,0.0231695771,0.0215513110,42.4387779236,43.4338531494,70.0463562012,0.0673995018,-0.0130740404,-0.0057506561,
112.313,-3.3016071320,1.4024940729,12.6703891754,0.0596319474,0.0439029299,0.0087962151,-115.0954132080,72.6639099121,54.1256713867,0.0258623958,0.0631598532,0.0134898424,-10.6866044998,84.3106994629,82.6694869995,0.0229061246,0.0256241858,0.0288583040,42.4414405823,43.4352722168,70.0549926758,0.0649760962,-0.0082046688,-0.0115747452,
112.323,-3.3023440838,1.4039756060,12.6708488464,0.0591695160,0.0419626161,0.0097741485,-115.0997848511,72.6625976563,54.1264190674,0.0243906975,0.0602403283,0.0105900168,-10.6918458939,84.3115539551,82.6732559204,0.0258373022,0.0231892169,0.0220382214,42.4425354004,43.4378585815,70.0636825562,0.0620791912,-0.0096588731,-0.0105658770,
112.333,-3.3028333187,1.4012640715,12.6726865768,0.0654698610,0.0449008867,0.0078204870,-115.0996932983,72.6649932861,54.1323623657,0.0248914361,0.0631351471,0.0144789219,-10.7173309326,84.3127212524,82.6574020386,0.0243744850,0.0188352168,0.0240195394,42.4413032532,43.4376983643,70.0701065063,0.0654951930,-0.0150197148,-0.0071600080,
112.343,-3.3029770851,1.4044821262,12.6731557846,0.0552721024,0.0483212769,0.0112398863,-115.0977783203,72.6663436890,54.1375122070,0.0253867507,0.0606764853,0.0125073195,-10.7220344543,84.3126602173,82.6610641479,0.0224212408,0.0247029364,0.0191373825,42.4408378601,43.4393501282,70.0754470825,0.0591683984,-0.0130488276,-0.0027548671,
112.353,-3.3047277927,1.4040534496,12.6736755371,0.0616122782,0.0405392796,0.0107532740,-115.0960006714,72.6668548584,54.1460609436,0.0253894329,0.0562789142,0.0164013505,-10.7360467911,84.3114166260,82.6553955078,0.0185128450,0.0208249092,0.0313284993,42.4368362427,43.4390716553,70.0788726807,0.0689305067,-0.0159433782,0.0006262660,
112.363,-3.3043270111,1.4024078846,12.6748418808,0.0659780949,0.0459034368,0.0097755194,-115.0909881592,72.6696472168,54.1567153931,0.0229625106,0.0621067286,0.0173346996,-10.7248582840,84.3104476929,82.6754455566,0.0238822699,0.0276444852,0.0230078101,42.4367561340,43.4381866455,70.0837020874,0.0713607073,-0.0091138482,0.0006178021,
112.373,-3.3062059879,1.4040932655,12.6763992310,0.0650309473,0.0400767513,0.0068484545,-115.0895309448,72.6671524048,54.1623649597,0.0336917043,0.0523819923,0.0061149001,-10.7409830093,84.3087997437,82.6676788330,0.0209497213,0.0198652148,0.0322629809,42.4388427734,43.4385261536,70.0907669067,0.0689235926,-0.0086423457,-0.0071737766,
112.383,-3.3052179813,1.4033406973,12.6763467789,0.0625764057,0.0459189340,0.0092884898,-115.0924224854,72.6677551270,54.1647453308,0.0244175196,0.0592022836,0.0085658431,-10.7364988327,84.3079681396,82.6792449951,0.0263193846,0.0227895677,0.0215066075,42.4387207031,43.4386482239,70.0960311890,0.0650188923,-0.0096167922,-0.0018025041,
112.393,-3.3049380779,1.4038829803,12.6793718338,0.0562382117,0.0454257615,0.0004993081,-115.0948028564,72.6704254150,54.1672554016,0.0210134387,0.0625756681,0.0090464354,-10.7515840530,84.3059082031,82.6715774536,0.0243626833,0.0194050670,0.0297732949,42.4444694519,43.4407997131,70.1065597534,0.0674875379,-0.0106297731,-0.0178477168,
112.403,-3.3050611019,1.4041773081,12.6811685562,0.0572199076,0.0439630561,0.0122182965,-115.1027374268,72.6711273193,54.1663131714,0.0263881683,0.0615697503,0.0081025362,-10.7482862473,84.3020935059,82.6822662354,0.0228912234,0.0208756030,0.0375253558,42.4448318481,43.4399414063,70.1133193970,0.0679649711,-0.0077104568,-0.0041809678,
112.413,-3.3068206310,1.4045765400,12.6815824509,0.0650393739,0.0405757241,0.0078259110,-115.1106033325,72.6713180542,54.1648216248,0.0259009004,0.0576442778,0.0086265802,-10.7648715973,84.3012313843,82.6747817993,0.0263077021,0.0223723352,0.0209128261,42.4440345764,43.4392814636,70.1185379028,0.0669800043,-0.0116144419,-0.0037045479,
112.423,-3.3073902130,1.4049187899,12.6827583313,0.0567445680,0.0425387658,0.0063616037,-115.1071929932,72.6695175171,54.1735725403,0.0288212299,0.0542599559,0.0159474611,-10.7692146301,84.2995071411,82.6782455444,0.0267930031,0.0194556415,0.0282099843,42.4437370300,43.4386711121,70.1243057251,0.0674605966,-0.0106401443,0.0006814599,
112.433,-3.3060712814,1.4027664661,12.6839847565,0.0630546659,0.0449572541,-0.0009646416,-115.1059722900,72.6712112427,54.1787796021,0.0268769264,0.0596093237,0.0129998922,-10.7671508789,84.3010940552,82.6880035400,0.0204480886,0.0257944763,0.0267720819,42.4449043274,43.4393806458,70.1303253174,0.0689344406,-0.0125983655,-0.0061378479,
112.443,-3.3054888248,1.4024564028,12.6839904785,0.0586547293,0.0488533601,0.0024521351,-115.0969619751,72.6704711914,54.1915435791,0.0234550834,0.0567095578,0.0163805485,-10.7894172668,84.3000259399,82.6727142334,0.0248407722,0.0238836706,0.0252958536,42.4443016052,43.4404106140,70.1349105835,0.0640646219,-0.0106313229,-0.0027158260,
112.453,-3.3067300320,1.4029368162,12.6863317490,0.0586631075,0.0400859043,0.0068485737,-115.1038284302,72.6692886353,54.1888656616,0.0229606628,0.0615966618,0.0071439147,-10.7733993530,84.2976531982,82.6969375610,0.0243483782,0.0282576978,0.0276932120,42.4425354004,43.4391479492,70.1405029297,0.0684431791,-0.0096483827,0.0026288033,
112.463,-3.3070924282,1.4024816751,12.6862783432,0.0615848564,0.0454633236,0.0107545853,-115.1164398193,72.6671218872,54.1801986694,0.0214845538,0.0591587424,0.0023360848,-10.7910346985,84.3010253906,82.6884841919,0.0277721882,0.0185120404,0.0189664364,42.4393653870,43.4382171631,70.1461715698,0.0679430962,-0.0130443275,0.0045465231,
112.473,-3.3059988022,1.4032224417,12.6880340576,0.0576915294,0.0439794175,0.0088012218,-115.1173553467,72.6682128906,54.1855964661,0.0214902163,0.0649998486,0.0160045624,-10.7742767334,84.3013000488,82.7152862549,0.0253312588,0.0306891501,0.0214062333,42.4408111572,43.4406929016,70.1532211304,0.0665096641,-0.0140143037,-0.0129970312,
112.483,-3.3074381351,1.4016880989,12.6898164749,0.0635241345,0.0415631160,0.0088016391,-115.1247558594,72.6654815674,54.1864852905,0.0248939991,0.0601415932,0.0087345243,-10.7744894028,84.3027420044,82.7252578735,0.0219157934,0.0277553797,0.0189882517,42.4441566467,43.4431266785,70.1632080078,0.0621459484,-0.0057251155,-0.0070874691,
112.493,-3.3048362732,1.4018837214,12.6897373199,0.0610861406,0.0473771654,0.0004983544,-115.1233215332,72.6675567627,54.1979370117,0.0234398842,0.0615786910,0.0170140266,-10.7954101563,84.3020553589,82.7149963379,0.0214263201,0.0238873065,0.0263102651,42.4456634521,43.4420013428,70.1709823608,0.0660379529,-0.0086780190,-0.0041549206,
112.503,-3.3033289909,1.4027529955,12.6915025711,0.0591481812,0.0497922972,0.0014738441,-115.1222000122,72.6668548584,54.2054290771,0.0283191204,0.0601266623,0.0140838623,-10.8026180267,84.2992019653,82.7185363770,0.0233744979,0.0229324996,0.0262642503,42.4463233948,43.4397087097,70.1787872314,0.0738213658,-0.0135855675,-0.0036814213,
112.513,-3.3053758144,1.4054919481,12.6924476624,0.0611490980,0.0395739749,0.0048950911,-115.1144332886,72.6681671143,54.2191848755,0.0283259153,0.0635423362,0.0164793134,-10.7982769012,84.2985458374,82.7307205200,0.0219085217,0.0209739208,0.0301579237,42.4412536621,43.4389266968,70.1833953857,0.0699052215,-0.0179389715,-0.0012902617,
112.523,-3.3087141514,1.4043618441,12.6917123795,0.0635707825,0.0352376215,0.0039213300,-115.0985870361,72.6702651978,54.2391586304,0.0244305730,0.0581746995,0.0251788497,-10.8158092499,84.2998809814,82.7228622437,0.0243522525,0.0195354223,0.0199317336,42.4431076050,43.4384307861,70.1911392212,0.0723403692,-0.0067299008,-0.0086029768,
112.533,-3.3080518246,1.4053275585,12.6934604645,0.0567516983,0.0425502807,0.0039212108,-115.1013565063,72.6730041504,54.2405166626,0.0239565372,0.0620331764,0.0085710287,-10.8285655975,84.2978591919,82.7178268433,0.0253252983,0.0205406547,0.0330856442,42.4441642761,43.4378280640,70.1989898682,0.0654968023,-0.0067446828,-0.0027400255,
112.543,-3.3088495731,1.4052021503,12.6939430237,0.0626088828,0.0396344960,0.0083160400,-115.1023178101,72.6763610840,54.2447357178,0.0273919702,0.0590516031,0.0124579668,-10.8272266388,84.2974472046,82.7256240845,0.0258128643,0.0259106755,0.0242895484,42.4429092407,43.4394989014,70.2030181885,0.0708890557,-0.0194146931,-0.0066418648,
112.553,-3.3074910641,1.4054642916,12.6950950623,0.0591954924,0.0449819155,0.0073388815,-115.1062469482,72.6769638062,54.2443885803,0.0215356946,0.0556147695,0.0100311041,-10.8390502930,84.2979278564,82.7202529907,0.0253254175,0.0220232904,0.0203965306,42.4448623657,43.4380531311,70.2107086182,0.0733121634,-0.0043079853,-0.0027319193,
112.563,-3.3066606522,1.4041078091,12.6956653595,0.0650312006,0.0474088900,0.0146610737,-115.1034469604,72.6800765991,54.2528190613,0.0249698758,0.0599702001,0.0178082585,-10.8260364532,84.2977905273,82.7405929565,0.0214189291,0.0239546001,0.0252701640,42.4473495483,43.4368095398,70.2184906006,0.0718315244,-0.0067826807,-0.0085810423,
112.573,-3.3075625896,1.4027316570,12.6968784332,0.0606126562,0.0435183831,0.0063613653,-115.1130523682,72.6794281006,54.2480697632,0.0332672596,0.0584929287,0.0012567043,-10.8116474152,84.2964172363,82.7596054077,0.0204399824,0.0229570866,0.0223145485,42.4472846985,43.4339675903,70.2235183716,0.0708189011,-0.0077817142,-0.0012824535,
112.583,-3.3082001209,1.4014383554,12.6991930008,0.0669377446,0.0401115529,0.0048956275,-115.1202468872,72.6831283569,54.2456665039,0.0259622335,0.0628159344,0.0066357255,-10.7946300507,84.2970352173,82.7843475342,0.0219058990,0.0302496254,0.0203664303,42.4442558289,43.4338035583,70.2276153564,0.0688636899,-0.0145906210,-0.0013099909,
112.593,-3.3077766895,1.3994663954,12.6984758377,0.0688564628,0.0440104753,0.0088012218,-115.1224517822,72.6854400635,54.2476615906,0.0240211487,0.0603347123,0.0149306059,-10.8072309494,84.2958679199,82.7788009644,0.0248335600,0.0229511857,0.0262098312,42.4428596497,43.4333496094,70.2329025269,0.0698344707,-0.0140929818,0.0020920038,
112.603,-3.3066656590,1.4000432491,12.7002029419,0.0605657473,0.0439911000,0.0131948590,-115.1278076172,72.6850509644,54.2464981079,0.0269488096,0.0603287816,0.0061694384,-10.8174886703,84.2966842651,82.7768707275,0.0248349905,0.0254079401,0.0198787451,42.4430885315,43.4371070862,70.2378616333,0.0557220578,-0.0155294538,-0.0037318468,
112.613,-3.3067228794,1.4018765688,12.7006816864,0.0557149239,0.0400858112,0.0073363185,-115.1308364868,72.6825256348,54.2477722168,0.0240060091,0.0540127158,0.0027836561,-10.8059997559,84.2968978882,82.7980499268,0.0258119106,0.0224577188,0.0232955813,42.4438934326,43.4361572266,70.2442550659,0.0718232393,-0.0111501813,-0.0003156066,
112.623,-3.3076624870,1.4000518322,12.7030324936,0.0669135526,0.0410787798,0.0112426281,-115.1220703125,72.6804046631,54.2612991333,0.0293660760,0.0574820638,0.0134993792,-10.8084344864,84.2984085083,82.8039932251,0.0214200020,0.0244101286,0.0203926563,42.4438323975,43.4327087402,70.2499923706,0.0727561116,-0.0053181648,0.0006299615,
112.633,-3.3063519001,1.4009264708,12.7042016983,0.0571631864,0.0469153076,0.0107535720,-115.1268920898,72.6797561646,54.2617034912,0.0259447694,0.0565045476,0.0071790218,-10.8113546371,84.2984771729,82.8096313477,0.0243498087,0.0170907974,0.0228360891,42.4426994324,43.4329223633,70.2548446655,0.0698291063,-0.0145831704,-0.0023075938,
112.643,-3.3083434105,1.4013000727,12.7041587830,0.0561931431,0.0420671776,0.0000131130,-115.1368484497,72.6802062988,54.2575263977,0.0293650627,0.0647764802,0.0091759562,-10.7930297852,84.2978591919,82.8375167847,0.0243487358,0.0263382196,0.0223313570,42.4427947998,43.4313316345,70.2605819702,0.0722503662,-0.0111790299,-0.0028092265,
112.653,-3.3057916164,1.4020140171,12.7059736252,0.0557173193,0.0469055250,0.0112416744,-115.1373367310,72.6789245605,54.2638511658,0.0269169807,0.0584469736,0.0140703321,-10.7705469131,84.2999496460,82.8677978516,0.0219109654,0.0267806947,0.0243120790,42.4455986023,43.4335136414,70.2680282593,0.0610475540,-0.0077696145,-0.0052072406,
112.663,-3.3064193726,1.4031021595,12.7076711655,0.0586659946,0.0400804989,0.0102661848,-115.1327743530,72.6764831543,54.2748451233,0.0317870975,0.0560523868,0.0130894184,-10.7870578766,84.3009872437,82.8607940674,0.0277721286,0.0238762796,0.0223827362,42.4446907043,43.4347457886,70.2756271362,0.0664342642,-0.0111690760,-0.0037390590,
112.673,-3.3046257496,1.4023681879,12.7088394165,0.0630477220,0.0463969260,0.0171001554,-115.1427078247,72.6762924194,54.2702026367,0.0229970217,0.0594513416,0.0048369169,-10.7681674957,84.2989959717,82.8867950439,0.0272803903,0.0248264074,0.0306433439,42.4461669922,43.4349555969,70.2832031250,0.0732728839,-0.0131342411,-0.0056778193,
112.683,-3.3070285320,1.4024978876,12.7093029022,0.0640265495,0.0425325222,0.0127080083,-115.1463165283,72.6777954102,54.2724037170,0.0190986395,0.0608854890,0.0111907125,-10.7786417007,84.2989273071,82.8845672607,0.0214208961,0.0248447657,0.0272282958,42.4464912415,43.4346656799,70.2887725830,0.0654567480,-0.0077686012,-0.0012836456,
112.693,-3.3075134754,1.4021180868,12.7104530334,0.0591371059,0.0386347324,0.0024544597,-115.1462173462,72.6760635376,54.2758903503,0.0269021392,0.0604234338,0.0107142925,-10.8096055984,84.3019180298,82.8615036011,0.0209378004,0.0195181668,0.0160572529,42.4441261292,43.4353713989,70.2923278809,0.0635125041,-0.0116470456,0.0074917674,
112.703,-3.3073139191,1.4030197859,12.7121009827,0.0635473728,0.0430257581,0.0083139539,-115.1429138184,72.6779937744,54.2836608887,0.0259355903,0.0569840372,0.0136148930,-10.8141307831,84.3002700806,82.8659973145,0.0204466581,0.0219725370,0.0287273526,42.4419403076,43.4323616028,70.2969284058,0.0732399821,-0.0131157041,0.0010989904,
112.713,-3.3083891869,1.4029158354,12.7132587433,0.0606158674,0.0449976213,0.0112446547,-115.1364135742,72.6767501831,54.2937088013,0.0215345621,0.0535990000,0.0170108080,-10.8246679306,84.2975845337,82.8606643677,0.0248365402,0.0200463533,0.0311272740,42.4418220520,43.4349021912,70.3032913208,0.0654597282,-0.0121174753,-0.0076684952,
112.723,-3.3090763092,1.4026690722,12.7156190872,0.0591467209,0.0376853831,0.0092921257,-115.1456451416,72.6769866943,54.2898750305,0.0249537826,0.0608991683,0.0043575764,-10.8196372986,84.2948684692,82.8731536865,0.0214138627,0.0303003490,0.0330323577,42.4408264160,43.4367218018,70.3086624146,0.0625531077,-0.0130700171,-0.0032663941,
112.733,-3.3092730045,1.4029914141,12.7191190720,0.0635468736,0.0415950492,0.0014799237,-115.1462707520,72.6777267456,54.2943077087,0.0190982819,0.0574687123,0.0121677518,-10.8051462173,84.2925033569,82.8953247070,0.0223863125,0.0234463811,0.0276189446,42.4410362244,43.4352874756,70.3133926392,0.0727887750,-0.0086891055,-0.0013242960,
112.743,-3.3081929684,1.4042267799,12.7196617126,0.0557559282,0.0440176055,0.0102683306,-115.1469268799,72.6784439087,54.2986984253,0.0234965086,0.0584329367,0.0126540065,-10.7909765244,84.2949752808,82.9188232422,0.0262968540,0.0224376917,0.0183753967,42.4422836304,43.4365539551,70.3198547363,0.0649923682,-0.0072256625,-0.0027671456,
112.753,-3.3074331284,1.4036232233,12.7213935852,0.0645344555,0.0449809507,0.0083141327,-115.1479415894,72.6785583496,54.3017311096,0.0269150734,0.0579406023,0.0087518096,-10.7934913635,84.2963485718,82.9245223999,0.0248343945,0.0263437629,0.0203536153,42.4421386719,43.4338607788,70.3276290894,0.0786300898,-0.0131054819,-0.0062103868,
112.763,-3.3078262806,1.4069789648,12.7217741013,0.0567805097,0.0410814658,0.0063629746,-115.1549606323,72.6834564209,54.3013191223,0.0254756808,0.0676171780,0.0102152228,-10.7774219513,84.2953491211,82.9482955933,0.0248326659,0.0268073082,0.0296084881,42.4460525513,43.4317779541,70.3356704712,0.0712794662,-0.0029050112,-0.0086363554,
112.773,-3.3054509163,1.4048156738,12.7248182297,0.0660201088,0.0483643636,0.0097777843,-115.1473770142,72.6797485352,54.3117523193,0.0269212723,0.0427873433,0.0058109760,-10.7705917358,84.2944869995,82.9653778076,0.0238546133,0.0204504728,0.0266622305,42.4425048828,43.4342880249,70.3403244019,0.0630105138,-0.0174999833,0.0016087294,
112.783,-3.3070197105,1.4031763077,12.7253618240,0.0635500997,0.0391143784,0.0063607097,-115.1501541138,72.6838378906,54.3153991699,0.0303604603,0.0685986876,0.0155607462,-10.7831182480,84.2954483032,82.9637451172,0.0253211260,0.0214457512,0.0213115811,42.4445228577,43.4351692200,70.3472137451,0.0693693161,-0.0111640990,-0.0061783791,
112.793,-3.3082487583,1.4018874168,12.7253217697,0.0620627664,0.0425537974,0.0024546981,-115.1486358643,72.6882400513,54.3263397217,0.0245239735,0.0651176870,0.0179640055,-10.7744522095,84.2947006226,82.9800872803,0.0262963772,0.0224093795,0.0256921649,42.4432182312,43.4346618652,70.3533325195,0.0688745975,-0.0082263649,-0.0047297478,
112.803,-3.3103551865,1.4049892426,12.7275810242,0.0557692349,0.0435669683,0.0019701719,-115.1665344238,72.6904678345,54.3167076111,0.0191644430,0.0640682280,0.0053374171,-10.7675933838,84.2947006226,82.9954681396,0.0214135647,0.0223977566,0.0286175013,42.4426002502,43.4349670410,70.3585662842,0.0635073781,-0.0121242404,-0.0013136268,
112.813,-3.3094153404,1.4080997705,12.7298898697,0.0538703799,0.0455036536,0.0112479925,-115.1710510254,72.6898574829,54.3188934326,0.0264855027,0.0601612329,0.0068278909,-10.7635059357,84.2950439453,83.0078506470,0.0189727545,0.0238541663,0.0227640271,42.4447059631,43.4389991760,70.3653335571,0.0601405501,-0.0121113956,-0.0124911070,
112.823,-3.3099675179,1.4068970680,12.7303915024,0.0665447116,0.0425836109,0.0122241378,-115.1850585938,72.6869201660,54.3127098083,0.0303764939,0.0596856475,0.0025202036,-10.7653102875,84.2956542969,83.0149993896,0.0253214836,0.0262967348,0.0188687444,42.4442100525,43.4379768372,70.3721694946,0.0674517751,-0.0033258796,0.0026330948,
112.833,-3.3116843700,1.4070187807,12.7321233749,0.0597108901,0.0406603813,0.0044140816,-115.1875839233,72.6874465942,54.3141555786,0.0245198607,0.0591846704,0.0181532502,-10.7589111328,84.2962799072,83.0297393799,0.0277639627,0.0267719328,0.0232712626,42.4423484802,43.4364433289,70.3792648315,0.0747565627,-0.0096687078,-0.0022798777,
112.843,-3.3138811588,1.4056910276,12.7338876724,0.0631056949,0.0387455672,0.0171105266,-115.1896286011,72.6880569458,54.3180885315,0.0254995823,0.0630760789,0.0166939497,-10.7671775818,84.2969665527,83.0310363770,0.0292299986,0.0243427455,0.0198675990,42.4416007996,43.4344100952,70.3844604492,0.0688714385,-0.0145608485,-0.0032804608,
112.853,-3.3124811649,1.4063303471,12.7350091934,0.0601871610,0.0450688154,0.0122267008,-115.1886367798,72.6871185303,54.3196372986,0.0279361010,0.0552814603,0.0142542720,-10.7722330093,84.2963104248,83.0343093872,0.0175101161,0.0263068676,0.0218107104,42.4384384155,43.4328842163,70.3871078491,0.0717817545,-0.0130787492,-0.0013675690,
112.863,-3.3121020794,1.4063133001,12.7354974747,0.0621399879,0.0416442454,0.0058788657,-115.1943740845,72.6854476929,54.3115234375,0.0289040208,0.0557811558,0.0045275688,-10.7667083740,84.2938766479,83.0470352173,0.0287363529,0.0180041194,0.0266514421,42.4379768372,43.4314270020,70.3921203613,0.0737164021,-0.0116213858,-0.0028493404,
112.873,-3.3115785122,1.4079024792,12.7371730804,0.0587497503,0.0421233661,0.0009962320,-115.1989746094,72.6889572144,54.3025360107,0.0250160098,0.0669487417,0.0128251910,-10.7484483719,84.2936019897,83.0738525391,0.0267827511,0.0199262798,0.0207815766,42.4379806519,43.4328231812,70.3972778320,0.0722692609,-0.0135632157,-0.0033252835,
112.883,-3.3101074696,1.4044978619,12.7396450043,0.0660145655,0.0430743918,0.0112467408,-115.2003936768,72.6922912598,54.2975883484,0.0235684514,0.0600596070,0.0162263513,-10.7039709091,84.2917785645,83.1249237061,0.0184788108,0.0252256095,0.0285490155,42.4352722168,43.4343643188,70.3995437622,0.0732653737,-0.0135253966,-0.0067526698,
112.893,-3.3091771603,1.4038188457,12.7395381927,0.0645378754,0.0435464755,0.0112458467,-115.2119827271,72.6943969727,54.2820625305,0.0230910778,0.0565844178,0.0065003633,-10.6651048660,84.2903671265,83.1697463989,0.0218943357,0.0212559700,0.0304662585,42.4335746765,43.4340820313,70.4030227661,0.0732617974,-0.0100938380,0.0000661612,
112.903,-3.3092210293,1.4062564373,12.7405920029,0.0557913445,0.0401292145,0.0048993230,-115.2170867920,72.6983795166,54.2730979919,0.0284828544,0.0628609061,0.0118673444,-10.6349849701,84.2913360596,83.2077255249,0.0218960047,0.0265716016,0.0202181339,42.4325256348,43.4322700500,70.4060745239,0.0712857246,-0.0047277212,-0.0004478693,
112.913,-3.3095283508,1.4032235146,12.7424688339,0.0645274818,0.0455057323,0.0097811818,-115.2399444580,72.7052459717,54.2507972717,0.0231474042,0.0680780411,0.0050904751,-10.6172027588,84.2917404175,83.2333068848,0.0267795324,0.0240978599,0.0163131952,42.4362640381,43.4337348938,70.4141082764,0.0713042617,-0.0086569786,-0.0096794963,
112.923,-3.3115167618,1.4050751925,12.7440919876,0.0601652637,0.0396809503,0.0068541169,-115.2629852295,72.7107696533,54.2345199585,0.0226877928,0.0674556494,0.0066246986,-10.5970478058,84.2896881104,83.2611389160,0.0199400187,0.0255338848,0.0275033116,42.4298591614,43.4343566895,70.4165725708,0.0664293170,-0.0164045393,0.0078492165,
112.933,-3.3114993572,1.4057134390,12.7465009689,0.0557818674,0.0445634499,0.0005067587,-115.2836532593,72.7136230469,54.2270317078,0.0270971060,0.0605305135,0.0115845799,-10.6044025421,84.2873840332,83.2626419067,0.0228657126,0.0226244032,0.0328373909,42.4326171875,43.4336776733,70.4255065918,0.0698387027,-0.0100882649,-0.0087353587,
112.943,-3.3109011650,1.4060574770,12.7476539612,0.0587175637,0.0445530154,0.0014829040,-115.2997589111,72.7187728882,54.2278022766,0.0281003714,0.0662769377,0.0121120214,-10.6264457703,84.2863845825,83.2482681274,0.0213991404,0.0221776664,0.0274571180,42.4348449707,43.4336624146,70.4343948364,0.0673971176,-0.0135271251,-0.0092043281,
112.953,-3.3096494675,1.4046589136,12.7488451004,0.0630876869,0.0445312522,0.0131999254,-115.3090057373,72.7201385498,54.2355537415,0.0256660581,0.0593999326,0.0106809735,-10.6319417953,84.2859115601,83.2523880005,0.0272576809,0.0265836418,0.0245189667,42.4340133667,43.4323921204,70.4421386719,0.0639629960,-0.0096234083,-0.0018984079,
112.963,-3.3100752831,1.4034403563,12.7499589920,0.0645312667,0.0386793204,0.0112466216,-115.3226165771,72.7173614502,54.2376289368,0.0344406962,0.0594117641,0.0088115931,-10.6206169128,84.2840270996,83.2747802734,0.0253012776,0.0260807872,0.0357187390,42.4372749329,43.4323730469,70.4500656128,0.0654277205,-0.0086773634,-0.0111476779,
112.973,-3.3109550476,1.4030719995,12.7516155243,0.0659896880,0.0391829386,0.0117355585,-115.3270034790,72.7130126953,54.2449645996,0.0222111344,0.0516545475,0.0034919977,-10.6440315247,84.2865219116,83.2620849609,0.0243290663,0.0183020830,0.0186732411,42.4356422424,43.4326248169,70.4568634033,0.0693370700,-0.0091485381,-0.0004179478,
112.983,-3.3104088306,1.4028847218,12.7539396286,0.0611036047,0.0377085805,0.0097818375,-115.3253097534,72.7088394165,54.2534790039,0.0309785604,0.0536741614,0.0059551001,-10.6514844894,84.2878952026,83.2627639771,0.0184720755,0.0227047205,0.0245619416,42.4359741211,43.4361152649,70.4642639160,0.0640102029,-0.0144942999,-0.0125903487,
112.993,-3.3094427586,1.4057288170,12.7562007904,0.0567586944,0.0435510576,0.0048992038,-115.3133010864,72.7071304321,54.2661895752,0.0187626481,0.0566563606,0.0098170042,-10.6456470490,84.2880020142,83.2767715454,0.0179839730,0.0305067599,0.0240731239,42.4349822998,43.4347686768,70.4696731567,0.0693642497,-0.0105898380,-0.0004044771,
113.003,-3.3094911575,1.4074140787,12.7565832138,0.0650888830,0.0464815535,0.0146658421,-115.2841720581,72.7059631348,54.2951164246,0.0265691280,0.0508792698,0.0204303265,-10.6379833221,84.2865219116,83.2926559448,0.0248173475,0.0280565619,0.0284407735,42.4362106323,43.4378089905,70.4785308838,0.0625668168,-0.0139945149,-0.0072022676,
113.013,-3.3112533092,1.4058619738,12.7571411133,0.0611555539,0.0362583771,0.0078309178,-115.2685775757,72.7050170898,54.3129119873,0.0250993371,0.0582524538,0.0101097822,-10.6620922089,84.2849426270,83.2750854492,0.0179786682,0.0227328241,0.0279319286,42.4390220642,43.4374885559,70.4866027832,0.0708635449,-0.0081641078,-0.0027866364,
113.023,-3.3094615936,1.4067023993,12.7570781708,0.0567756817,0.0445279218,0.0024583936,-115.2525100708,72.7041397095,54.3321762085,0.0260713696,0.0602537990,0.0139467120,-10.6664867401,84.2844009399,83.2775802612,0.0228605270,0.0242065191,0.0284160376,42.4427413940,43.4376945496,70.4959487915,0.0625653863,-0.0062441230,-0.0007998943,
113.033,-3.3104152679,1.4074044228,12.7582111359,0.0577645004,0.0411265492,0.0107604265,-115.2437438965,72.7030868530,54.3461265564,0.0285072923,0.0602899492,0.0109829903,-10.6793670654,84.2854995728,83.2739944458,0.0267686844,0.0247147083,0.0215969086,42.4460906982,43.4372062683,70.5048141479,0.0767194033,-0.0101856887,-0.0090763569,
113.043,-3.3108334541,1.4083625078,12.7592487335,0.0631523132,0.0430869423,0.0063667297,-115.2422637939,72.7010498047,54.3561477661,0.0309381485,0.0617885292,0.0041545630,-10.7048625946,84.2841949463,83.2571334839,0.0228601694,0.0213447213,0.0274469852,42.4469490051,43.4357948303,70.5111007690,0.0674241185,-0.0097168088,-0.0037105680,
113.053,-3.3115720749,1.4077868462,12.7597923279,0.0621656999,0.0440763794,0.0117384195,-115.2377166748,72.6963577271,54.3674545288,0.0270075202,0.0584505498,0.0095375776,-10.7096271515,84.2852249146,83.2615737915,0.0223736763,0.0213501155,0.0264869928,42.4490165710,43.4345970154,70.5204238892,0.0683855414,-0.0092576742,-0.0095635056,
113.063,-3.3092370033,1.4091721773,12.7620916367,0.0597484671,0.0440356731,0.0058771372,-115.2304916382,72.6977005005,54.3775672913,0.0348269939,0.0603996515,0.0138884783,-10.7127876282,84.2859802246,83.2643280029,0.0209101439,0.0228181183,0.0186881423,42.4464035034,43.4362602234,70.5257415771,0.0630354881,-0.0189852715,-0.0032228231,
113.073,-3.3074719906,1.4075384140,12.7620086670,0.0680207461,0.0464463755,0.0141753554,-115.2249145508,72.6953125000,54.3846130371,0.0294435024,0.0594714284,0.0133909583,-10.6983842850,84.2845382690,83.2876586914,0.0238373280,0.0223090053,0.0245202780,42.4449691772,43.4353561401,70.5304870605,0.0693717003,-0.0077486932,0.0026164055,
113.083,-3.3090658188,1.4088101387,12.7631053925,0.0577890202,0.0411030129,0.0068534017,-115.2275924683,72.6975936890,54.3809623718,0.0279905200,0.0613850951,0.0099692345,-10.6607656479,84.2836456299,83.3336410522,0.0233474970,0.0261524022,0.0244930983,42.4471092224,43.4390106201,70.5383071899,0.0616055131,-0.0121337175,-0.0119813681,
113.093,-3.3105986118,1.4088051319,12.7641830444,0.0641365945,0.0435711220,0.0000189543,-115.2355270386,72.7033538818,54.3743286133,0.0246024132,0.0666508973,0.0099661350,-10.6373100281,84.2816619873,83.3649139404,0.0233440399,0.0266062915,0.0254265666,42.4453392029,43.4380607605,70.5431442261,0.0747771263,-0.0145661533,-0.0022392869,
113.103,-3.3081598282,1.4093809128,12.7659940720,0.0563341379,0.0464583151,0.0156418681,-115.2410354614,72.7080612183,54.3752326965,0.0246268511,0.0660804212,0.0216771364,-10.6146688461,84.2814865112,83.3982467651,0.0252968669,0.0265668631,0.0268837214,42.4474029541,43.4384918213,70.5501098633,0.0669700503,-0.0106758177,-0.0056358576,
113.113,-3.3056137562,1.4099702835,12.7677021027,0.0602506697,0.0405545719,0.0053852201,-115.2542572021,72.7127990723,54.3716735840,0.0241631269,0.0640261769,0.0134052038,-10.6193828583,84.2842941284,83.4014053345,0.0228603482,0.0241250396,0.0181422830,42.4518394470,43.4397277832,70.5597305298,0.0655208230,-0.0053363442,-0.0075407624,
113.123,-3.3048319817,1.4094877243,12.7687797546,0.0641485006,0.0385878421,0.0127086639,-115.2610168457,72.7182388306,54.3758583069,0.0183320045,0.0634418130,0.0187693834,-10.6364154816,84.2859802246,83.3946228027,0.0199335814,0.0221963823,0.0235469341,42.4507217407,43.4409790039,70.5660781860,0.0567476153,-0.0101984143,0.0012505054,
113.133,-3.3030896187,1.4118721485,12.7710428238,0.0607721396,0.0483230576,0.0127079487,-115.2797622681,72.7225570679,54.3683052063,0.0251902938,0.0647991002,0.0071083307,-10.6376829147,84.2873535156,83.4040603638,0.0272601843,0.0275652707,0.0245475173,42.4499893188,43.4409599304,70.5711593628,0.0630950332,-0.0140981376,0.0007550120,
113.143,-3.3030674458,1.4138169289,12.7721509933,0.0554349758,0.0424632467,0.0068493485,-115.2947235107,72.7277984619,54.3661499023,0.0266823173,0.0651772916,0.0090944171,-10.6322689056,84.2913970947,83.4204711914,0.0233609676,0.0231487453,0.0148469210,42.4494552612,43.4412574768,70.5778350830,0.0630988479,-0.0170202255,-0.0046172142,
113.153,-3.3031749725,1.4162970781,12.7731885910,0.0579196550,0.0419767797,0.0092919469,-115.3034210205,72.7306747437,54.3670272827,0.0262089372,0.0568128824,0.0130213499,-10.6519231796,84.2908782959,83.4105148315,0.0267780423,0.0197666883,0.0192391276,42.4448204041,43.4395980835,70.5822067261,0.0699137449,-0.0096661448,-0.0002771616,
113.163,-3.3045971394,1.4162051678,12.7730875015,0.0623125844,0.0439546742,0.0068520904,-115.3093338013,72.7319488525,54.3700065613,0.0296335220,0.0558040738,0.0086454749,-10.6610927582,84.2913360596,83.4105300903,0.0204311609,0.0153867602,0.0216909051,42.4419746399,43.4392738342,70.5860824585,0.0728392601,-0.0115954280,-0.0003051162,
113.173,-3.3021790981,1.4166169167,12.7730598450,0.0584135205,0.0487953648,0.0068498850,-115.3229675293,72.7322845459,54.3596534729,0.0315883756,0.0528393984,0.0013829470,-10.6624212265,84.2894744873,83.4170684814,0.0262873173,0.0183245838,0.0226369500,42.4366455078,43.4373664856,70.5884933472,0.0693972111,-0.0105842352,0.0025629997,
113.183,-3.2991421223,1.4171643257,12.7736787796,0.0559816621,0.0487424470,0.0087996721,-115.3287506104,72.7362289429,54.3511962891,0.0257494450,0.0556963980,0.0013820529,-10.6668167114,84.2884826660,83.4204635620,0.0218910575,0.0178468525,0.0240882039,42.4347686768,43.4414863586,70.5936126709,0.0582188964,-0.0119982064,-0.0013228655,
113.193,-3.2960743904,1.4164016247,12.7748146057,0.0647574216,0.0467358977,0.0029375553,-115.3302078247,72.7461242676,54.3476295471,0.0238475204,0.0628697872,0.0101074576,-10.6370267868,84.2881088257,83.4574584961,0.0218904018,0.0295152962,0.0250456929,42.4304122925,43.4412727356,70.5944671631,0.0645638704,-0.0075646639,0.0044974089,
113.203,-3.2962059975,1.4174607992,12.7771100998,0.0608696491,0.0418553576,0.0053789020,-115.3296508789,72.7636260986,54.3471565247,0.0278443694,0.0694426596,0.0143750310,-10.5918712616,84.2857360840,83.5096130371,0.0213980079,0.0274903476,0.0274354815,42.4337081909,43.4428215027,70.6016921997,0.0694662929,-0.0036768019,-0.0091333389,
113.213,-3.2974827290,1.4160494804,12.7758855820,0.0603567436,0.0423659086,0.0097748041,-115.3380661011,72.7809829712,54.3411369324,0.0171918869,0.0686766505,0.0094081163,-10.5411090851,84.2859115601,83.5670547485,0.0223748684,0.0264250040,0.0264428854,42.4323883057,43.4426231384,70.6044921875,0.0704403520,-0.0070838928,-0.0023096800,
113.223,-3.2967615128,1.4142832756,12.7777318954,0.0622790530,0.0447948016,0.0112376213,-115.3532943726,72.8056411743,54.3287849426,0.0222020149,0.0702245235,0.0132102370,-10.5288991928,84.2837524414,83.5882720947,0.0233476758,0.0190858543,0.0224986672,42.4324417114,43.4434356689,70.6093444824,0.0650795102,-0.0070779622,-0.0062090158,
113.233,-3.2966709137,1.4164595604,12.7775897980,0.0564576462,0.0428400412,0.0048909783,-115.3857498169,72.8306274414,54.3011817932,0.0257487893,0.0658711493,0.0019535422,-10.5049886703,84.2802886963,83.6210479736,0.0238299370,0.0263790190,0.0278043151,42.4310150146,43.4466476440,70.6134033203,0.0656085014,-0.0114330649,-0.0047272444,
113.243,-3.2971177101,1.4160388708,12.7780456543,0.0657276511,0.0408947058,0.0068445206,-115.4142761230,72.8605346680,54.2774963379,0.0298089981,0.0697525442,0.0135920644,-10.4701280594,84.2802200317,83.6643066406,0.0243180990,0.0277831554,0.0214440823,42.4275703430,43.4471206665,70.6173553467,0.0719621778,-0.0104204118,-0.0027993321,
113.253,-3.2985856533,1.4140011072,12.7798662186,0.0632506907,0.0414086096,0.0117276311,-115.4366226196,72.8904190063,54.2638664246,0.0211735368,0.0609544516,0.0217834115,-10.4267911911,84.2767944336,83.7173080444,0.0282183886,0.0228352249,0.0243020058,42.4289474487,43.4490432739,70.6243972778,0.0734513998,-0.0084646344,-0.0105830431,
