Time(sec),Gyr1_X(deg/sec),Gyr1_Y(deg/sec),Gyr1_Z(deg/sec),Acc1_X(m/s^2),Acc1_Y(m/s^2),Acc1_Z(m/s^2),Gyr2_X(deg/sec),Gyr2_Y(deg/sec),Gyr2_Z(deg/sec),Acc2_X(m/s^2),Acc2_Y(m/s^2),Acc2_Z(m/s^2),Gyr_X(deg/sec),Gyr_Y(deg/sec),Gyr_Z(deg/sec),Acc_X(m/s^2),Acc_Y(m/s^2),Acc_Z(m/s^2),Gyr_X(deg/sec),Gyr_Y(deg/sec),Gyr_Z(deg/sec),Acc_X(m/s^2),Acc_Y(m/s^2),Acc_Z(m/s^2),
227.183,-3.3296680450,1.4151349068,25.9297065735,0.0544814095,0.0380437523,0.0137127638,-114.3277740479,72.7277374268,80.4997482300,0.0242406130,0.0648417473,0.0162497163,-11.6548433304,84.3337860107,173.7056579590,0.0244108438,0.0194125772,0.0207830667,42.4584083557,43.4063491821,144.7003936768,0.0685157180,-0.0115272999,-0.0180336833,
227.193,-3.3296000957,1.4137976170,25.9313640594,0.0691065192,0.0404840074,0.0049231052,-114.3324966431,72.7274551392,80.4981460571,0.0296102166,0.0614178777,0.0104148388,-11.6383476257,84.3356857300,173.7305450439,0.0209961534,0.0227955356,0.0227620602,42.4562759399,43.4063072205,144.7058105469,0.0631440878,-0.0071130395,0.0029445291,
227.203,-3.3308818340,1.4143699408,25.9330596924,0.0603274368,0.0400180370,0.0059012175,-114.3404617310,72.7278442383,80.4952163696,0.0252177119,0.0589530468,0.0075201988,-11.6257791519,84.3352737427,173.7520294189,0.0263665318,0.0242402367,0.0295860767,42.4594650269,43.4063339233,144.7153015137,0.0694921017,-0.0076310933,-0.0063060522,
227.213,-3.3311090469,1.4139933586,25.9347553253,0.0656919628,0.0458813794,0.0034599304,-114.3410186768,72.7300186157,80.4990463257,0.0222992897,0.0608724356,0.0138554573,-11.5837821960,84.3379058838,173.8035278320,0.0283241868,0.0280649550,0.0149671435,42.4611015320,43.4052810669,144.7236785889,0.0670373440,-0.0052133799,-0.0067889690,
227.223,-3.3323109150,1.4148721695,25.9346733093,0.0588713549,0.0468788557,0.0054141283,-114.3484191895,72.7320327759,80.4963302612,0.0306105018,0.0671737194,0.0085057020,-11.5930948257,84.3362426758,173.8050689697,0.0302744508,0.0188092478,0.0315449834,42.4593849182,43.4038085938,144.7301635742,0.0645772219,-0.0066741109,0.0014840364,
227.233,-3.3333845139,1.4146728516,25.9351711273,0.0608210042,0.0385967828,0.0112748146,-114.3482055664,72.7303466797,80.5018615723,0.0266955495,0.0554805994,0.0148638487,-11.6115102768,84.3362731934,173.7980804443,0.0185557604,0.0232357085,0.0252026916,42.4574279785,43.4028587341,144.7367248535,0.0635886192,-0.0076401234,-0.0058660507,
227.243,-3.3331248760,1.4165707827,25.9356193542,0.0579244308,0.0410336182,0.0166465640,-114.3523712158,72.7298049927,80.5044403076,0.0252278447,0.0598748028,0.0134224296,-11.6050767899,84.3400497437,173.8133850098,0.0214919448,0.0271177478,0.0198935270,42.4579849243,43.4032707214,144.7454833984,0.0626173019,-0.0115481019,-0.0004856586,
227.253,-3.3326554298,1.4157221317,25.9362220764,0.0608393140,0.0483496748,0.0078565478,-114.3435211182,72.7299423218,80.5193939209,0.0296230912,0.0598917603,0.0202155113,-11.6120424271,84.3403244019,173.8166046143,0.0200275779,0.0227342732,0.0267365575,42.4563446045,43.4023208618,144.7514953613,0.0689529181,-0.0130054653,-0.0000205636,
227.263,-3.3327417374,1.4166126251,25.9366950989,0.0589017235,0.0400503762,0.0039509535,-114.3400955200,72.7291564941,80.5290679932,0.0232713819,0.0599111021,0.0153219700,-11.6150283813,84.3401184082,173.8237915039,0.0253983140,0.0237167627,0.0238040090,42.4554557800,43.4043922424,144.7581481934,0.0562838316,-0.0149333775,-0.0083098412,
227.273,-3.3316972256,1.4162241220,25.9390563965,0.0613363534,0.0439384431,-0.0033745170,-114.3358993530,72.7280654907,80.5391159058,0.0261954069,0.0574946105,0.0114033818,-11.6096582413,84.3367919922,173.8379974365,0.0302754045,0.0261599347,0.0271666646,42.4587707520,43.4048233032,144.7673339844,0.0704494715,-0.0105665922,-0.0077904463,
227.283,-3.3297700882,1.4153473377,25.9414062500,0.0657155812,0.0468345881,0.0107833147,-114.3370742798,72.7292175293,80.5434265137,0.0296193361,0.0633346438,0.0094477534,-11.6176223755,84.3371734619,173.8384704590,0.0205104351,0.0217781626,0.0222910047,42.4596099854,43.4065818787,144.7750854492,0.0631475449,-0.0071420968,-0.0063021779,
227.293,-3.3297228813,1.4172003269,25.9431171417,0.0559822954,0.0424391888,0.0102956891,-114.3325805664,72.7298049927,80.5527496338,0.0276692510,0.0569877028,0.0089341998,-11.5955562592,84.3360671997,173.8681182861,0.0244147778,0.0266264789,0.0281255841,42.4604301453,43.4057426453,144.7816467285,0.0694845915,-0.0125275850,-0.0053259134,
227.303,-3.3282794952,1.4161211252,25.9430561066,0.0637759566,0.0453437641,0.0107821822,-114.3340301514,72.7297592163,80.5563812256,0.0262042284,0.0550317466,0.0089412928,-11.5916223526,84.3346176147,173.8810272217,0.0229474306,0.0227185860,0.0266339779,42.4623870850,43.4058418274,144.7890777588,0.0665561557,-0.0081506371,-0.0082379580,
227.313,-3.3266496658,1.4131553173,25.9437446594,0.0617710873,0.0438506007,0.0063842535,-114.3294219971,72.7298583984,80.5648117065,0.0237632990,0.0569933653,0.0133134127,-11.5862550735,84.3318862915,173.8958587646,0.0297786593,0.0246716030,0.0275643468,42.4589576721,43.4041824341,144.7932434082,0.0670233965,-0.0139912963,0.0024601817,
227.323,-3.3266694546,1.4121874571,25.9460315704,0.0681018531,0.0443392508,0.0088260174,-114.3318557739,72.7325820923,80.5658035278,0.0320782065,0.0618298948,0.0089118481,-11.5674314499,84.3315734863,173.9218444824,0.0190359354,0.0217103548,0.0260881782,42.4599647522,43.4015655518,144.7993164063,0.0699199438,-0.0081626177,-0.0039026737,
227.333,-3.3259780407,1.4106159210,25.9465885162,0.0656330287,0.0448155217,0.0107768178,-114.3430328369,72.7327117920,80.5600433350,0.0320788622,0.0608276427,0.0031043887,-11.5615444183,84.3350982666,173.9344024658,0.0195302963,0.0216884501,0.0149129033,42.4584884644,43.4019584656,144.8034362793,0.0630888939,-0.0149814487,0.0043898821,
227.343,-3.3230745792,1.4115850925,25.9477539063,0.0568608791,0.0481829010,0.0117516518,-114.3564147949,72.7343521118,80.5508193970,0.0291576982,0.0622386336,0.0016915798,-11.5500116348,84.3366928101,173.9549560547,0.0297869444,0.0231281035,0.0183526278,42.4573707581,43.4004821777,144.8077850342,0.0684412718,-0.0061940551,0.0004602075,
227.353,-3.3218073845,1.4123740196,25.9495067596,0.0598043315,0.0466959625,0.0127267838,-114.3649063110,72.7328567505,80.5448379517,0.0267085433,0.0524775386,0.0041835308,-11.5438728333,84.3363494873,173.9682006836,0.0278332233,0.0236069001,0.0242043734,42.4587173462,43.4039382935,144.8153839111,0.0621374846,-0.0125262141,-0.0082859993,
227.363,-3.3212015629,1.4151073694,25.9511775970,0.0549692102,0.0422908068,0.0078448653,-114.3680343628,72.7314224243,80.5446014404,0.0281659365,0.0568871200,0.0120208263,-11.5482969284,84.3367919922,173.9721374512,0.0234394670,0.0231244266,0.0212854743,42.4556121826,43.4040527344,144.8188323975,0.0758108497,-0.0164025426,0.0024298429,
227.373,-3.3220589161,1.4160516262,25.9510421753,0.0588919371,0.0393760279,0.0132172108,-114.3729629517,72.7273559570,80.5433044434,0.0271683335,0.0510783792,0.0071891546,-11.5341939926,84.3385314941,173.9933319092,0.0239307284,0.0255358331,0.0208199024,42.4562911987,43.4070854187,144.8245849609,0.0597360134,-0.0110131502,-0.0063261390,
227.383,-3.3214623928,1.4160767794,25.9522151947,0.0579158142,0.0422953330,0.0083338022,-114.3737258911,72.7256240845,80.5453186035,0.0256944895,0.0564745665,0.0155053735,-11.5282087326,84.3365554810,174.0082702637,0.0234390497,0.0230908468,0.0261557698,42.4601249695,43.4089012146,144.8341369629,0.0578058958,-0.0076164007,-0.0062772632,
227.393,-3.3212137222,1.4153040648,25.9533634186,0.0627851412,0.0432675779,0.0063799620,-114.3847732544,72.7249374390,80.5389785767,0.0286206007,0.0662264824,0.0053085685,-11.5178813934,84.3365859985,174.0281372070,0.0224625468,0.0240493491,0.0261533260,42.4596290588,43.4083786011,144.8412322998,0.0719594359,-0.0139636397,-0.0038447380,
227.403,-3.3186395168,1.4143966436,25.9557666779,0.0637458712,0.0490821376,0.0127246976,-114.3864517212,72.7229614258,80.5426940918,0.0256806612,0.0613702834,0.0082598925,-11.5027656555,84.3359375000,174.0514221191,0.0214848518,0.0289084353,0.0290660858,42.4611129761,43.4090957642,144.8488922119,0.0744098425,-0.0125069022,-0.0087084770,
227.413,-3.3194139004,1.4150649309,25.9581184387,0.0578981563,0.0417713895,0.0034484863,-114.3905639648,72.7226181030,80.5436401367,0.0247023702,0.0633195043,0.0121877193,-11.4680709839,84.3367919922,174.0961303711,0.0224629045,0.0288455524,0.0251626968,42.4582595825,43.4084129333,144.8525085449,0.0665887594,-0.0124857426,-0.0023911595,
227.423,-3.3177711964,1.4171496630,25.9579658508,0.0569579676,0.0417427197,0.0107718706,-114.3928527832,72.7212219238,80.5478439331,0.0193240047,0.0594296753,0.0087903738,-11.4875164032,84.3404006958,174.0852355957,0.0219808221,0.0200779103,0.0125337839,42.4577636719,43.4094123840,144.8604431152,0.0636717081,-0.0105198920,-0.0043398142,
227.433,-3.3158144951,1.4187936783,25.9584941864,0.0564983748,0.0470796935,0.0112588406,-114.3955993652,72.7213821411,80.5519943237,0.0212779641,0.0584448576,0.0112437010,-11.4634008408,84.3362731934,174.1192779541,0.0200206041,0.0303042419,0.0329639316,42.4585189819,43.4087333679,144.8669586182,0.0661045313,-0.0105324388,-0.0028746128,
227.443,-3.3156678677,1.4172036648,25.9602336884,0.0657479763,0.0407295227,0.0058869720,-114.3839187622,72.7205276489,80.5690917969,0.0202969909,0.0579945147,0.0219362378,-11.4574670792,84.3347625732,174.1347961426,0.0214828253,0.0215101391,0.0270768404,42.4563560486,43.4098052979,144.8710327148,0.0617235303,-0.0192925930,0.0000463128,
227.453,-3.3169033527,1.4152847528,25.9619827271,0.0671793371,0.0422159322,0.0127233267,-114.3851547241,72.7182006836,80.5736541748,0.0285856724,0.0521678329,0.0068215132,-11.4592103958,84.3371047974,174.1401367188,0.0244165659,0.0268762335,0.0173513889,42.4557151794,43.4070510864,144.8773040771,0.0719425678,-0.0085666776,0.0034344196,
227.463,-3.3174531460,1.4175959826,25.9636783600,0.0564774759,0.0446668640,0.0088186860,-114.3796234131,72.7196655273,80.5842285156,0.0310347080,0.0599698424,0.0160625577,-11.4725704193,84.3365554810,174.1351470947,0.0253921747,0.0215297565,0.0236963034,42.4567718506,43.4076042175,144.8851928711,0.0626722574,-0.0115018189,-0.0077826977,
227.473,-3.3210458755,1.4180624485,25.9635639191,0.0603918657,0.0427763052,0.0078459382,-114.3857192993,72.7173004150,80.5843200684,0.0276044607,0.0580392480,0.0024356842,-11.4855852127,84.3367919922,174.1312866211,0.0283222795,0.0181336813,0.0193087459,42.4577331543,43.4033927917,144.8923034668,0.0718961954,-0.0076385736,-0.0024398565,
227.483,-3.3196942806,1.4184206724,25.9647026062,0.0608863980,0.0471472815,0.0039384961,-114.3817062378,72.7173767090,80.5935974121,0.0295580029,0.0600000024,0.0126700997,-11.4929618835,84.3384628296,174.1317901611,0.0234423280,0.0205822252,0.0173857212,42.4558219910,43.4047660828,144.8975524902,0.0684956312,-0.0134689808,-0.0063505173,
227.493,-3.3214218616,1.4210784435,25.9675369263,0.0575148016,0.0383882411,0.0044295788,-114.3825988770,72.7177124023,80.5971374512,0.0285831690,0.0609697104,0.0053477287,-11.4820747375,84.3373870850,174.1514892578,0.0283232927,0.0274028815,0.0227358937,42.4575805664,43.4043350220,144.9046478271,0.0670253038,-0.0105592012,-0.0029212236,
227.503,-3.3211493492,1.4217183590,25.9692916870,0.0580142476,0.0432662889,0.0078474283,-114.3765640259,72.7186203003,80.6070022583,0.0256581903,0.0614572763,0.0160552263,-11.4668292999,84.3353042603,174.1738281250,0.0229486227,0.0234772712,0.0290440917,42.4579429626,43.4033088684,144.9121093750,0.0704302788,-0.0071530342,-0.0043927431,
227.513,-3.3205008507,1.4199837446,25.9704780579,0.0638433546,0.0447198860,0.0019869804,-114.3817138672,72.7216567993,80.6052398682,0.0227442384,0.0618886054,0.0077579618,-11.4610824585,84.3338241577,174.1880035400,0.0200163722,0.0210311599,0.0251097679,42.4585342407,43.4056777954,144.9188690186,0.0621595383,-0.0110455453,-0.0053426027,
227.523,-3.3206417561,1.4200378656,25.9704189301,0.0594497658,0.0442340635,0.0005220175,-114.3830566406,72.7209548950,80.6061553955,0.0295765400,0.0570133030,0.0058159828,-11.4563064575,84.3326110840,174.1999664307,0.0278267860,0.0205385424,0.0226477981,42.4563560486,43.4053268433,144.9220123291,0.0597136617,-0.0124930143,0.0034240484,
227.533,-3.3202204704,1.4219146967,25.9720344543,0.0624122061,0.0437383950,0.0122413039,-114.3919982910,72.7219696045,80.6003723145,0.0295817852,0.0608852804,0.0082927942,-11.4563760757,84.3304672241,174.2076873779,0.0283113718,0.0205458924,0.0255417228,42.4588584900,43.4097557068,144.9290924072,0.0587933064,-0.0115038157,-0.0048152208,
227.543,-3.3189032078,1.4231456518,25.9725131989,0.0604805574,0.0446919762,0.0224943161,-114.3892898560,72.7206954956,80.6061019897,0.0281103253,0.0570038855,0.0136598945,-11.4700326920,84.3323669434,174.2024078369,0.0239201188,0.0230043605,0.0202076435,42.4588356018,43.4078178406,144.9346466064,0.0773233771,-0.0085897744,-0.0082513094,
227.553,-3.3190579414,1.4247851372,25.9747600555,0.0609974451,0.0417649448,0.0058935881,-114.3969039917,72.7214660645,80.6028289795,0.0295791626,0.0633237362,0.0039249659,-11.4463491440,84.3321304321,174.2331542969,0.0253845453,0.0254057869,0.0255659223,42.4592170715,43.4064598083,144.9406433105,0.0738881826,-0.0095807910,-0.0058178902,
227.563,-3.3168671131,1.4250963926,25.9746551514,0.0610028729,0.0436799005,0.0097980499,-114.4040069580,72.7215118408,80.5993881226,0.0212786198,0.0613545477,0.0103060007,-11.4334840775,84.3309555054,174.2518920898,0.0229411125,0.0248993561,0.0260294080,42.4599571228,43.4047851563,144.9470214844,0.0684958696,-0.0003240705,-0.0004564524,
227.573,-3.3168284893,1.4249855280,25.9752101898,0.0605126582,0.0446557961,0.0112624764,-114.3990936279,72.7219238281,80.6096115112,0.0261635780,0.0598938465,0.0200455189,-11.4401712418,84.3327178955,174.2541198730,0.0263621211,0.0253934264,0.0211773515,42.4588012695,43.4035987854,144.9519805908,0.0709222555,-0.0105765760,-0.0014525652,
227.583,-3.3183834553,1.4249258041,25.9757671356,0.0580702089,0.0412649103,0.0078461766,-114.4005889893,72.7197189331,80.6116867065,0.0251755714,0.0569945276,0.0127435923,-11.4370384216,84.3357543945,174.2662811279,0.0200197101,0.0234243721,0.0158572793,42.4599990845,43.4019813538,144.9587554932,0.0713900328,-0.0076712668,-0.0014566779,
227.593,-3.3187236786,1.4237183332,25.9768695831,0.0643967986,0.0368763357,0.0088226199,-114.4072189331,72.7180252075,80.6111145020,0.0320027471,0.0614003241,0.0054623485,-11.4297981262,84.3333740234,174.2811737061,0.0253866911,0.0248849206,0.0294859409,42.4619903564,43.4010200500,144.9654846191,0.0650302172,-0.0052562654,-0.0043779612,
227.603,-3.3186841011,1.4241802692,25.9773178101,0.0629400164,0.0402936079,0.0151705742,-114.4117736816,72.7173614502,80.6135253906,0.0280930400,0.0623772740,0.0113478899,-11.4187641144,84.3326492310,174.3016815186,0.0214791894,0.0258449167,0.0289815068,42.4613800049,43.4039535522,144.9729614258,0.0655556321,-0.0105978847,-0.0058218241,
227.613,-3.3197040558,1.4204777479,25.9779033661,0.0687347874,0.0388466194,0.0088219047,-114.4077453613,72.7188568115,80.6248703003,0.0251711011,0.0604106486,0.0118067265,-11.4315662384,84.3315734863,174.2983703613,0.0263601542,0.0258706026,0.0235971808,42.4662170410,43.4012413025,144.9839324951,0.0723571777,-0.0028526187,-0.0053161383,
227.623,-3.3193271160,1.4209074974,25.9765224457,0.0623946302,0.0417697318,0.0073574781,-114.4180908203,72.7179260254,80.6208953857,0.0320022106,0.0589372516,0.0055145621,-11.4314270020,84.3326492310,174.3049926758,0.0239205956,0.0244018212,0.0216624141,42.4677505493,43.4039115906,144.9912414551,0.0621371269,-0.0135875642,-0.0077209473,
227.633,-3.3184092045,1.4214425087,25.9764041901,0.0624039657,0.0456599817,0.0107743144,-114.4263992310,72.7180557251,80.6197280884,0.0256552696,0.0574524701,0.0045765042,-11.4318666458,84.3305358887,174.3135223389,0.0170810223,0.0229448900,0.0269982219,42.4655189514,43.4046936035,144.9959259033,0.0670298934,-0.0179548264,-0.0077331066,
227.643,-3.3192677498,1.4208993912,25.9775600433,0.0599530861,0.0393272862,0.0097982883,-114.4240264893,72.7171554565,80.6276855469,0.0261388421,0.0589358211,0.0075010061,-11.4264926910,84.3313980103,174.3277587891,0.0229418874,0.0268389732,0.0231043696,42.4642105103,43.4036865234,145.0010223389,0.0679936409,-0.0145327449,0.0000593066,
227.653,-3.3193953037,1.4192420244,25.9780635834,0.0677366629,0.0442123674,0.0024737120,-114.4191436768,72.7168960571,80.6381835938,0.0285789371,0.0560211837,0.0152921081,-11.4188642502,84.3321990967,174.3424835205,0.0253846645,0.0248699039,0.0250685215,42.4667472839,43.4051818848,145.0082702637,0.0709422827,-0.0135679245,-0.0106478930,
227.663,-3.3204493523,1.4199652672,25.9791355133,0.0599367842,0.0364182033,0.0137051344,-114.4201660156,72.7177658081,80.6435012817,0.0285834074,0.0535635054,0.0079669952,-11.4415493011,84.3324356079,174.3288879395,0.0258733630,0.0190489702,0.0187324286,42.4652252197,43.4067916870,145.0128021240,0.0685213208,-0.0130522847,0.0005835295,
227.673,-3.3207335472,1.4182771444,25.9797134399,0.0638135821,0.0457005464,0.0088226199,-114.4281234741,72.7169418335,80.6391906738,0.0295557380,0.0564900637,0.0026390553,-11.4248657227,84.3324050903,174.3533172607,0.0248967409,0.0234148242,0.0265383720,42.4633789063,43.4062728882,145.0175323486,0.0646084547,-0.0145040751,0.0020279884,
227.683,-3.3204219341,1.4191570282,25.9807815552,0.0613875240,0.0413005687,0.0093104839,-114.4263992310,72.7166519165,80.6431579590,0.0227182508,0.0555202961,0.0128869414,-11.4088506699,84.3299865723,174.3750305176,0.0239160061,0.0273012631,0.0318652391,42.4679412842,43.4078598022,145.0265960693,0.0695114732,-0.0081862807,-0.0140320063,
227.693,-3.3210716248,1.4197939634,25.9812736511,0.0599337965,0.0422884226,0.0083351135,-114.4430541992,72.7173080444,80.6298446655,0.0256513953,0.0642639995,-0.0041285753,-11.4177494049,84.3322982788,174.3733062744,0.0248965621,0.0243794136,0.0172569752,42.4682693481,43.4095306396,145.0332641602,0.0695326328,-0.0115937591,-0.0086433887,
227.703,-3.3195521832,1.4204456806,25.9824562073,0.0579920411,0.0476330332,0.0122396350,-114.4520568848,72.7167816162,80.6243820190,0.0251603723,0.0613229573,0.0037301779,-11.3984231949,84.3322982788,174.4008178711,0.0224551558,0.0287403502,0.0245756507,42.4701309204,43.4089317322,145.0410766602,0.0631773472,-0.0111278296,-0.0008203387,
227.713,-3.3200194836,1.4203054905,25.9854984283,0.0589661598,0.0491060279,0.0112642050,-114.4447479248,72.7194671631,80.6356582642,0.0266391635,0.0603212416,0.0222316980,-11.3870630264,84.3312301636,174.4197387695,0.0263595581,0.0292126425,0.0230887532,42.4693450928,43.4087715149,145.0479583740,0.0685464144,-0.0130748153,-0.0018048286,
227.723,-3.3214302063,1.4205079079,25.9866027832,0.0614110939,0.0418063737,0.0034527183,-114.4477462769,72.7177810669,80.6396942139,0.0266304016,0.0603403151,0.0027263165,-11.3709678650,84.3293991089,174.4441070557,0.0283095241,0.0243082121,0.0298883915,42.4707336426,43.4074668884,145.0566101074,0.0690181255,-0.0082156658,-0.0110824108,
227.733,-3.3208515644,1.4201025963,25.9865188599,0.0633571446,0.0466791205,0.0054051876,-114.4461975098,72.7163162231,80.6462707520,0.0266227722,0.0598775744,0.0139595270,-11.3774328232,84.3301239014,174.4454193115,0.0229396820,0.0223637484,0.0225790143,42.4689788818,43.4102020264,145.0617675781,0.0602638125,-0.0150128901,-0.0013069510,
227.743,-3.3204514980,1.4209288359,25.9851799011,0.0589770339,0.0417893119,0.0107763410,-114.4394378662,72.7159423828,80.6585998535,0.0280857086,0.0569680929,0.0168597102,-11.3750371933,84.3316116333,174.4566955566,0.0224539638,0.0262608230,0.0250446200,42.4696311951,43.4076805115,145.0693054199,0.0748802423,-0.0052738190,0.0001411438,
227.753,-3.3173389435,1.4202498198,25.9869937897,0.0628714412,0.0510124601,0.0141909719,-114.4523696899,72.7126007080,80.6500854492,0.0334394574,0.0599207878,-0.0020989180,-11.3849077225,84.3298797607,174.4544677734,0.0190330148,0.0257957093,0.0313649774,42.4679679871,43.4072990417,145.0750579834,0.0734105706,-0.0130739808,-0.0052481890,
227.763,-3.3188495636,1.4183827639,25.9863243103,0.0643037036,0.0393200703,0.0117498636,-114.4498214722,72.7120895386,80.6577072144,0.0246477723,0.0599336922,0.0140056610,-11.4071435928,84.3326797485,174.4412841797,0.0229440928,0.0209416151,0.0187258124,42.4662933350,43.4071350098,145.0808105469,0.0660842657,-0.0081766844,0.0001078844,
227.773,-3.3198208809,1.4172924757,25.9881153107,0.0618432723,0.0432432666,0.0054028630,-114.4543151855,72.7132339478,80.6582336426,0.0275833607,0.0623484254,0.0120660067,-11.3900804520,84.3317489624,174.4673309326,0.0219659209,0.0233567841,0.0216335654,42.4677658081,43.4069480896,145.0868530273,0.0670584440,-0.0081920326,-0.0072062016,
227.783,-3.3204574585,1.4184021950,25.9904327393,0.0584446676,0.0422777608,0.0019861460,-114.4590911865,72.7136306763,80.6584625244,0.0305151343,0.0608672798,0.0111093521,-11.3597269058,84.3328552246,174.5057983398,0.0190381408,0.0311130993,0.0265244246,42.4686508179,43.4072303772,145.0933380127,0.0670620203,-0.0086863041,-0.0101252794,
227.793,-3.3212928772,1.4194767475,25.9915447235,0.0584634170,0.0437571332,0.0063818693,-114.4572677612,72.7140121460,80.6655578613,0.0300288200,0.0598889589,0.0110981464,-11.3818588257,84.3339233398,174.4927062988,0.0239228010,0.0218703225,0.0182495713,42.4694709778,43.4088172913,145.1006469727,0.0670821667,-0.0077045560,-0.0047331452,
227.803,-3.3214061260,1.4170411825,25.9909114838,0.0642802939,0.0398529172,0.0151700974,-114.4484100342,72.7168960571,80.6813354492,0.0212547183,0.0598643422,0.0261729956,-11.3861856461,84.3312301636,174.4980010986,0.0234298706,0.0213988423,0.0260169506,42.4697990417,43.4089889526,145.1075744629,0.0646429062,-0.0111241639,-0.0027755499,
227.813,-3.3211832047,1.4165076017,25.9915142059,0.0574350506,0.0432670154,0.0029627085,-114.4592514038,72.7162857056,80.6775512695,0.0261343718,0.0564317107,0.0032793880,-11.3787107468,84.3298110962,174.5137481689,0.0244039893,0.0238318257,0.0323398709,42.4702682495,43.4070205688,145.1150360107,0.0719422102,-0.0082147717,-0.0023006201,
227.823,-3.3208749294,1.4149936438,25.9939880371,0.0613148846,0.0476562120,0.0054026842,-114.4708786011,72.7157363892,80.6749572754,0.0295494795,0.0588569045,0.0048030019,-11.3704061508,84.3285293579,174.5309448242,0.0307494402,0.0243101269,0.0293856263,42.4704399109,43.4063835144,145.1222839355,0.0724223852,-0.0135927200,-0.0071876049,
227.833,-3.3211717606,1.4131056070,25.9946136475,0.0603053793,0.0413137823,0.0112618208,-114.4724044800,72.7149887085,80.6783370972,0.0275924802,0.0573999286,0.0121396780,-11.3708305359,84.3305358887,174.5389099121,0.0297763348,0.0233275667,0.0201418400,42.4704437256,43.4080200195,145.1293792725,0.0665837526,-0.0140677691,-0.0071731806,
227.843,-3.3239963055,1.4110059738,25.9957981110,0.0631984323,0.0389216281,0.0078458190,-114.4743423462,72.7166671753,80.6840438843,0.0300425887,0.0603002012,0.0116490722,-11.3752326965,84.3325729370,174.5427246094,0.0268501639,0.0282112062,0.0201770663,42.4724311829,43.4085578918,145.1365661621,0.0724499226,-0.0116406083,-0.0051982403,
227.853,-3.3246769905,1.4118378162,25.9975147247,0.0593066961,0.0443045497,0.0024759173,-114.4762420654,72.7163696289,80.6870193481,0.0310176015,0.0534645319,0.0106835961,-11.3730382919,84.3292160034,174.5520477295,0.0297740698,0.0223593861,0.0274440050,42.4740791321,43.4067802429,145.1431732178,0.0675445795,-0.0106938481,-0.0003172159,
227.863,-3.3255324364,1.4125616550,25.9986419678,0.0598076060,0.0457842797,0.0098013282,-114.4651794434,72.7197494507,80.7011489868,0.0261523128,0.0568556786,0.0193969011,-11.3725261688,84.3278045654,174.5602874756,0.0185411572,0.0233397037,0.0264441967,42.4724311829,43.4083213806,145.1470794678,0.0612165332,-0.0150604844,-0.0037354231,
227.873,-3.3260459900,1.4117859602,25.9979209900,0.0646768808,0.0428635553,0.0093131065,-114.4656677246,72.7194137573,80.7021484375,0.0320099592,0.0544182956,0.0067062974,-11.3624610901,84.3271179199,174.5785675049,0.0190282464,0.0272308923,0.0269173384,42.4705924988,43.4109535217,145.1508331299,0.0617381930,-0.0164867640,-0.0047045946,
227.883,-3.3268675804,1.4133868217,25.9983577728,0.0588454381,0.0394598581,0.0127325058,-114.4690017700,72.7206420898,80.7008819580,0.0295749307,0.0597632825,0.0086665750,-11.3454608917,84.3262481689,174.6026916504,0.0209798813,0.0228097886,0.0254325867,42.4755592346,43.4097557068,145.1591491699,0.0705120564,0.0015233755,-0.0056492090,
227.893,-3.3246858120,1.4145988226,25.9988708496,0.0578900278,0.0457694829,0.0073599815,-114.4690704346,72.7208557129,80.7033538818,0.0232283473,0.0597600341,0.0120834708,-11.3634796143,84.3263549805,174.5937500000,0.0263511539,0.0184461884,0.0278813243,42.4764328003,43.4077949524,145.1657257080,0.0690222979,-0.0082662702,-0.0007764101,
227.903,-3.3230881691,1.4171375036,26.0006046295,0.0535397865,0.0457415842,0.0088243484,-114.4672622681,72.7187576294,80.7080764771,0.0305417180,0.0617486238,0.0096479058,-11.3392457962,84.3249053955,174.6262969971,0.0273252130,0.0252450220,0.0229661465,42.4768638611,43.4078979492,145.1710662842,0.0641407967,-0.0087577403,-0.0041897297,
227.913,-3.3248655796,1.4168264866,26.0011863708,0.0589054562,0.0447959937,0.0063844323,-114.4723281860,72.7170944214,80.7091064453,0.0261385441,0.0593219101,0.0126130581,-11.3308200836,84.3241806030,174.6429138184,0.0248825550,0.0266973339,0.0278362036,42.4766235352,43.4062728882,145.1779327393,0.0685147047,-0.0112100244,0.0006766319,
227.923,-3.3270592690,1.4159203768,26.0023097992,0.0613310523,0.0345803201,0.0127338171,-114.4852142334,72.7172775269,80.7032318115,0.0271160603,0.0641739964,0.0068135262,-11.3459157944,84.3257675171,174.6361846924,0.0214673281,0.0242771618,0.0220060349,42.4789161682,43.4046440125,145.1869354248,0.0714237690,-0.0048970580,-0.0037128925,
227.933,-3.3258626461,1.4151643515,26.0041027069,0.0608295798,0.0443251282,0.0098026395,-114.4870071411,72.7146911621,80.7077789307,0.0251495242,0.0568851829,0.0102577806,-11.3509616852,84.3272552490,174.6396331787,0.0307472348,0.0193980187,0.0171502829,42.4800071716,43.4058837891,145.1958160400,0.0675332546,-0.0088034272,-0.0046689510,
227.943,-3.3236393929,1.4155744314,26.0065269470,0.0593718924,0.0520988815,0.0205428600,-114.4785690308,72.7117996216,80.7214508057,0.0236696601,0.0559701025,0.0204916596,-11.3532752991,84.3292617798,174.6456756592,0.0253795981,0.0247664414,0.0206021667,42.4831237793,43.4070129395,145.2052459717,0.0685241222,-0.0107766390,-0.0095151067,
227.953,-3.3233423233,1.4123492241,26.0065441132,0.0666398406,0.0457461365,0.0014980435,-114.4823379517,72.7094268799,80.7244262695,0.0256105065,0.0584390461,0.0049007535,-11.3506107330,84.3292922974,174.6573181152,0.0258679390,0.0232968889,0.0210900307,42.4856758118,43.4073028564,145.2141265869,0.0695043802,-0.0103098154,-0.0119320154,
227.963,-3.3244385719,1.4106013775,26.0077857971,0.0597734042,0.0428355895,0.0063813925,-114.4922637939,72.7070236206,80.7212066650,0.0275511742,0.0613837540,0.0034994483,-11.3589792252,84.3296737671,174.6573028564,0.0239154696,0.0237981454,0.0191473961,42.4872932434,43.4076385498,145.2229614258,0.0656023622,-0.0073925257,-0.0026378632,
227.973,-3.3253827095,1.4135816097,26.0107021332,0.0544543117,0.0452933647,0.0112662911,-114.4940490723,72.7056732178,80.7248535156,0.0343800783,0.0570057929,0.0059586763,-11.3668756485,84.3331298828,174.6578063965,0.0219683051,0.0238004923,0.0182295442,42.4865112305,43.4119491577,145.2286071777,0.0563796759,-0.0161393881,-0.0109071732,
227.983,-3.3272280693,1.4141170979,26.0124111176,0.0603230260,0.0423958004,0.0019910932,-114.4933319092,72.7059097290,80.7297363281,0.0309633613,0.0584690571,0.0088832378,-11.3285350800,84.3353805542,174.7049255371,0.0234370232,0.0305625387,0.0226493478,42.4846382141,43.4106521606,145.2344818115,0.0656405687,-0.0127144456,0.0012722611,
227.993,-3.3271398544,1.4116475582,26.0129756927,0.0661393106,0.0428826138,-0.0014280081,-114.4958496094,72.7074432373,80.7322463989,0.0270650387,0.0647881031,0.0059551001,-11.3179874420,84.3358306885,174.7248840332,0.0219729543,0.0305430479,0.0167925358,42.4871330261,43.4096527100,145.2425842285,0.0744169950,-0.0088395476,-0.0094573498,
228.003,-3.3279271126,1.4112744331,26.0135459900,0.0612499900,0.0482674278,0.0058968067,-114.5018386841,72.7093276978,80.7324447632,0.0324459076,0.0618168712,0.0049937963,-11.3282232285,84.3364868164,174.7230834961,0.0200209618,0.0212809704,0.0207144022,42.4859771729,43.4075241089,145.2490081787,0.0714602470,-0.0068929195,0.0012561083,
228.013,-3.3270092010,1.4101978540,26.0159740448,0.0597663596,0.0433686562,0.0049188137,-114.5055389404,72.7084274292,80.7351913452,0.0270701647,0.0549865067,0.0069707036,-11.3210735321,84.3374557495,174.7385711670,0.0244171619,0.0251718163,0.0207269788,42.4827957153,43.4097137451,145.2534027100,0.0641638041,-0.0151461661,-0.0036346316,
228.023,-3.3260793686,1.4104586840,26.0159149170,0.0587943494,0.0457938612,0.0024766922,-114.5135192871,72.7102661133,80.7336349487,0.0270797014,0.0632423162,0.0089488626,-11.3058423996,84.3372116089,174.7644195557,0.0214870572,0.0280755758,0.0251150131,42.4794921875,43.4092254639,145.2582702637,0.0651341677,-0.0146309435,0.0041452646,
228.033,-3.3255143166,1.4103684425,26.0158138275,0.0626990274,0.0443191789,0.0176129341,-114.5092468262,72.7109680176,80.7444839478,0.0251302123,0.0539632142,0.0167363882,-11.2817621231,84.3378295898,174.7960815430,0.0195350051,0.0304735787,0.0236506462,42.4797897339,43.4089469910,145.2648468018,0.0675720572,-0.0097531676,-0.0026905537,
228.043,-3.3243947029,1.4089082479,26.0175552368,0.0656032413,0.0418582968,0.0137047768,-114.5165786743,72.7111434937,80.7435913086,0.0319670439,0.0651752353,0.0099340081,-11.2821731567,84.3370437622,174.8046875000,0.0258812904,0.0216880590,0.0216834545,42.4798278809,43.4095306396,145.2698211670,0.0651381016,-0.0092604756,-0.0119623542,
228.053,-3.3234648705,1.4105689526,26.0174255371,0.0583079942,0.0457483158,0.0063803792,-114.5299682617,72.7117843628,80.7369461060,0.0265992880,0.0592788160,0.0021802187,-11.2911882401,84.3346862793,174.8033752441,0.0205061436,0.0236644968,0.0265306234,42.4800910950,43.4113464355,145.2753448486,0.0636962652,-0.0136428475,-0.0075497031,
228.063,-3.3246934414,1.4097681046,26.0191364288,0.0651299581,0.0423517674,0.0058929324,-114.5470275879,72.7122955322,80.7264480591,0.0241605639,0.0582565069,-0.0016486645,-11.2651071548,84.3321609497,174.8382263184,0.0278260112,0.0294872224,0.0245262980,42.4831237793,43.4087905884,145.2828063965,0.0719646215,-0.0034379661,-0.0060812831,
228.073,-3.3259239197,1.4098070860,26.0203075409,0.0578064173,0.0423731916,0.0063824654,-114.5585403442,72.7128982544,80.7180252075,0.0295347571,0.0587108731,-0.0011100173,-11.2643585205,84.3317794800,174.8461761475,0.0253839493,0.0197214633,0.0284264684,42.4857826233,43.4104347229,145.2891235352,0.0627081394,-0.0102854371,-0.0079972744,
228.083,-3.3287496567,1.4110805988,26.0207405090,0.0597817637,0.0390044153,0.0063859224,-114.5665664673,72.7153930664,80.7134475708,0.0222234726,0.0591442287,0.0042819381,-11.2738685608,84.3317108154,174.8414459229,0.0190361738,0.0197382756,0.0254981518,42.4852981567,43.4096527100,145.2953643799,0.0719755888,-0.0063810349,-0.0036137700,
228.093,-3.3271670341,1.4127237797,26.0206470490,0.0563924648,0.0458127446,0.0117561817,-114.5642852783,72.7144851685,80.7189331055,0.0266132951,0.0557450354,0.0116016269,-11.2625608444,84.3299484253,174.8597717285,0.0170800090,0.0265604965,0.0264415741,42.4901924133,43.4082031250,145.3039703369,0.0680509210,-0.0010674596,-0.0065143108,
228.103,-3.3273701668,1.4131089449,26.0229797363,0.0607937202,0.0438631475,-0.0028923750,-114.5627441406,72.7146224976,80.7237167358,0.0236843228,0.0586758852,0.0120815635,-11.2679758072,84.3287734985,174.8627471924,0.0214725137,0.0216908716,0.0249593258,42.4895057678,43.4062271118,145.3100433350,0.0680258870,-0.0088894963,-0.0016548634,
228.113,-3.3279764652,1.4128640890,26.0253658295,0.0588363186,0.0424088724,0.0000380278,-114.5691833496,72.7134399414,80.7209320068,0.0256313086,0.0581916571,0.0096789002,-11.2575387955,84.3278427124,174.8815002441,0.0219591856,0.0250939205,0.0210338831,42.4891586304,43.4040603638,145.3154296875,0.0733695030,-0.0079272687,0.0022292137,
228.123,-3.3293619156,1.4130113125,26.0258846283,0.0593271703,0.0419447199,0.0029695034,-114.5745849609,72.7115859985,80.7197952271,0.0256217122,0.0596728325,0.0038578510,-11.2493629456,84.3283233643,174.8992309570,0.0229365826,0.0236132294,0.0244576931,42.4902420044,43.4028701782,145.3233184814,0.0689598322,-0.0074587464,-0.0036311150,
228.133,-3.3269340992,1.4124723673,26.0264282227,0.0622474551,0.0443438552,0.0176151395,-114.5673828125,72.7076797485,80.7319335938,0.0246248841,0.0558404922,0.0155695081,-11.2603435516,84.3307113647,174.8973693848,0.0209875703,0.0202064477,0.0152232647,42.4910125732,43.4029350281,145.3295745850,0.0728669167,-0.0099069774,-0.0075308681,
228.143,-3.3277142048,1.4109373093,26.0276660919,0.0588027015,0.0419160686,-0.0004511476,-114.5654296875,72.7044754028,80.7396163940,0.0294910669,0.0524756908,0.0106995106,-11.2720937729,84.3325042725,174.8946685791,0.0209906697,0.0216855519,0.0211171508,42.4915199280,43.4023056030,145.3364257813,0.0674878955,-0.0079634786,-0.0050899982,
228.153,-3.3276743889,1.4115763903,26.0293769836,0.0602786914,0.0424036421,0.0112678409,-114.5753936768,72.7012786865,80.7368621826,0.0275213718,0.0608033240,0.0049093962,-11.2790451050,84.3318176270,174.8966979980,0.0180597901,0.0216997974,0.0279440880,42.4897766113,43.4027633667,145.3414154053,0.0699350834,-0.0152677894,-0.0065664053,
228.163,-3.3283836842,1.4150080681,26.0302867889,0.0588737279,0.0355799757,0.0093170404,-114.5805206299,72.6996459961,80.7378463745,0.0236066580,0.0569101274,0.0103161335,-11.2843122482,84.3325729370,174.9004058838,0.0229439139,0.0231712647,0.0206342340,42.4939804077,43.4055366516,145.3493652344,0.0655756593,-0.0089369714,-0.0094349384,
228.173,-3.3279800415,1.4161299467,26.0319786072,0.0584050193,0.0394791663,0.0058991313,-114.5810165405,72.7005462646,80.7436904907,0.0255644321,0.0588488877,0.0122655034,-11.2792263031,84.3327865601,174.9161682129,0.0214794278,0.0290211216,0.0191712976,42.4968299866,43.4032554626,145.3589782715,0.0694530010,-0.0055642128,-0.0011304617,
228.183,-3.3277761936,1.4182657003,26.0318870544,0.0545360334,0.0453349352,0.0073642731,-114.5824890137,72.7025680542,80.7483596802,0.0275280476,0.0612564385,0.0151880980,-11.2946815491,84.3328170776,174.9116668701,0.0219677687,0.0178172775,0.0225950480,42.4941406250,43.4015769958,145.3649902344,0.0694317818,-0.0109236836,0.0051797628,
228.193,-3.3285441399,1.4143493176,26.0343647003,0.0656981692,0.0394890308,0.0122464895,-114.5859756470,72.7027282715,80.7497482300,0.0241109133,0.0602699220,0.0132503510,-11.2850008011,84.3313980103,174.9314727783,0.0244067311,0.0251295157,0.0245209932,42.4934501648,43.4003601074,145.3708801270,0.0703928471,-0.0075091124,0.0032097101,
228.203,-3.3300294876,1.4155044556,26.0348129272,0.0603472292,0.0414680094,0.0107836127,-114.5851669312,72.7028503418,80.7559661865,0.0294826627,0.0592936873,0.0098274946,-11.2797126770,84.3316802979,174.9450988770,0.0239189267,0.0241428912,0.0269650817,42.4955596924,43.4010772705,145.3786315918,0.0621011853,-0.0089877844,-0.0045779943,
228.213,-3.3294162750,1.4153866768,26.0341186523,0.0622983053,0.0468284227,0.0073650479,-114.5855178833,72.7049331665,80.7615356445,0.0280286074,0.0612142086,0.0098150969,-11.2962837219,84.3319168091,174.9393768311,0.0307552814,0.0217292495,0.0206274986,42.4936943054,43.3999061584,145.3820800781,0.0655043721,-0.0104447007,0.0007666945,
228.223,-3.3276896477,1.4137268066,26.0353240967,0.0617810562,0.0419155769,0.0112686753,-114.5801315308,72.7073440552,80.7732467651,0.0285294056,0.0597243011,0.0161204338,-11.3045482635,84.3326492310,174.9389038086,0.0209909081,0.0217410997,0.0206426382,42.4900245667,43.4003486633,145.3863525391,0.0664864779,-0.0143130422,0.0041570663,
228.233,-3.3281033039,1.4161709547,26.0381832123,0.0584057346,0.0428992808,0.0088288188,-114.5809249878,72.7074127197,80.7767944336,0.0275532007,0.0577685237,0.0048933029,-11.3133258820,84.3339233398,174.9384765625,0.0214813948,0.0241935067,0.0231078863,42.4907951355,43.3995132446,145.3946075439,0.0689172745,-0.0074910522,0.0002499819,
228.243,-3.3278925419,1.4157767296,26.0375137329,0.0613285452,0.0453370251,0.0132229328,-114.5771789551,72.7085037231,80.7847366333,0.0251174569,0.0562957823,0.0165867209,-11.3065967560,84.3357543945,174.9535217285,0.0209962726,0.0256406404,0.0202062726,42.4912338257,43.3990859985,145.4003753662,0.0674470663,-0.0084751248,-0.0060974956,
228.253,-3.3278961182,1.4148466587,26.0392742157,0.0637537241,0.0443605520,0.0141991973,-114.5808944702,72.7114486694,80.7848739624,0.0207381845,0.0581963956,0.0092597008,-11.3237104416,84.3391876221,174.9456024170,0.0205138922,0.0188229606,0.0114794374,42.4859619141,43.3983039856,145.4005737305,0.0654839873,-0.0172213912,0.0011739731,
228.263,-3.3287720680,1.4125843048,26.0410175323,0.0661556572,0.0370516516,0.0107810497,-114.5878448486,72.7152633667,80.7838516235,0.0285704732,0.0610533953,0.0146372914,-11.3073015213,84.3428192139,174.9690856934,0.0244264007,0.0275714770,0.0164176822,42.4848518372,43.3987121582,145.4066467285,0.0703719854,-0.0064653754,-0.0002959967,
228.273,-3.3280973434,1.4136193991,26.0421352386,0.0583612174,0.0448523685,-0.0009378195,-114.5924301147,72.7149429321,80.7868423462,0.0231977105,0.0600712299,0.0097784996,-11.3266363144,84.3447341919,174.9595184326,0.0244296789,0.0173444934,0.0198745728,42.4816856384,43.3994216919,145.4106903076,0.0615919232,-0.0152190924,-0.0012936592,
228.283,-3.3287527561,1.4123942852,26.0445423126,0.0622460917,0.0443755314,0.0000383854,-114.5938034058,72.7135467529,80.7917175293,0.0295380950,0.0571604073,0.0127243400,-11.3267850876,84.3413314819,174.9678344727,0.0273535252,0.0178443976,0.0256772637,42.4812660217,43.3966712952,145.4164886475,0.0693695545,-0.0079131722,0.0006317496,
228.293,-3.3250184059,1.4129276276,26.0463123322,0.0603022724,0.0511464067,0.0010116696,-114.5994338989,72.7153701782,80.7918167114,0.0290592909,0.0629797280,0.0107851624,-11.3086719513,84.3417816162,174.9937133789,0.0239363313,0.0241595209,0.0232357979,42.4797706604,43.3942070007,145.4213562012,0.0732445717,-0.0084073842,-0.0013560057,
228.303,-3.3251595497,1.4128857851,26.0480518341,0.0603015423,0.0418715253,0.0049182773,-114.6083679199,72.7154464722,80.7908248901,0.0280831456,0.0619826019,0.0049675107,-11.3098411560,84.3399124146,175.0020294189,0.0219799876,0.0251443312,0.0275996327,42.4830589294,43.3922653198,145.4297943115,0.0766379237,-0.0094304681,-0.0057395697,
228.313,-3.3258807659,1.4111357927,26.0504760742,0.0622241348,0.0418841355,0.0078476071,-114.6075363159,72.7144165039,80.7984542847,0.0207535625,0.0551641285,0.0127833486,-11.2935466766,84.3410186768,175.0271911621,0.0224701762,0.0265770406,0.0227316022,42.4836769104,43.3917922974,145.4362945557,0.0663779974,-0.0084635019,-0.0037853718,
228.323,-3.3239533901,1.4121499062,26.0509834290,0.0588238575,0.0447802283,0.0146822333,-114.6080017090,72.7119750977,80.8028793335,0.0280651450,0.0581296384,0.0064547062,-11.2989749908,84.3417816162,175.0314331055,0.0234480500,0.0212129951,0.0207917690,42.4869651794,43.3917922974,145.4434814453,0.0722373724,-0.0099591613,-0.0120580196,
228.333,-3.3223528862,1.4112932682,26.0515594482,0.0607620403,0.0437758006,0.0049146414,-114.6096420288,72.7100067139,80.8058090210,0.0231721401,0.0591321588,0.0094057322,-11.3294515610,84.3430633545,175.0099792480,0.0249150991,0.0212613121,0.0232648849,42.4872131348,43.3913764954,145.4524230957,0.0688140988,-0.0099649727,0.0001469851,
228.343,-3.3215131760,1.4118009806,26.0527515411,0.0563763641,0.0452260040,0.0132147670,-114.6110839844,72.7107315063,80.8084716797,0.0285469890,0.0625359118,0.0094075799,-11.3136157990,84.3424453735,175.0340576172,0.0224726200,0.0270955004,0.0266667008,42.4824104309,43.3918952942,145.4560089111,0.0644261837,-0.0147984326,0.0040175319,
228.353,-3.3217270374,1.4121766090,26.0545139313,0.0568711981,0.0393703505,0.0102854371,-114.6086807251,72.7099304199,80.8152236938,0.0295193791,0.0562056303,0.0133079886,-11.3204851151,84.3402938843,175.0342864990,0.0249103308,0.0222315863,0.0295636654,42.4830169678,43.3926620483,145.4614562988,0.0619944334,-0.0060090423,-0.0018308163,
228.363,-3.3211693764,1.4121708870,26.0537490845,0.0641953200,0.0422903225,0.0112615228,-114.6202545166,72.7099075317,80.8082580566,0.0280544162,0.0620405972,0.0055504441,-11.3318510056,84.3408126831,175.0313568115,0.0234463811,0.0207845233,0.0207877159,42.4836502075,43.3943290710,145.4676971436,0.0595742464,-0.0143020451,-0.0115754604,
228.373,-3.3219661713,1.4122691154,26.0548515320,0.0617556274,0.0418159179,0.0029615760,-114.6141433716,72.7095489502,80.8201293945,0.0236580372,0.0561996698,0.0138247013,-11.3531513214,84.3434448242,175.0166778564,0.0249157548,0.0222775638,0.0174195170,42.4843635559,43.3966369629,145.4758605957,0.0703456402,-0.0133136213,-0.0061786175,
228.383,-3.3228430748,1.4139171839,26.0559062958,0.0608078204,0.0457374044,0.0083342195,-114.6158523560,72.7093505859,80.8224334717,0.0251218081,0.0610818863,0.0094397664,-11.3417396545,84.3436508179,175.0363616943,0.0258926749,0.0261632465,0.0208382010,42.4826393127,43.3950881958,145.4791107178,0.0625135303,-0.0074505806,0.0020946860,
228.393,-3.3216397762,1.4157618284,26.0557556152,0.0579103157,0.0422984175,0.0141932368,-114.6104736328,72.7108078003,80.8337097168,0.0182934403,0.0630245805,0.0152634382,-11.3395318985,84.3436203003,175.0456085205,0.0234512091,0.0266477242,0.0213257074,42.4799995422,43.3954887390,145.4841156006,0.0664248466,-0.0152353346,-0.0003669858,
228.403,-3.3230738640,1.4150060415,26.0569019318,0.0627799407,0.0437882654,0.0078466535,-114.6110076904,72.7105941772,80.8389739990,0.0314759016,0.0591204762,0.0108730793,-11.3546838760,84.3451385498,175.0376586914,0.0215007067,0.0217860937,0.0218437314,42.4772949219,43.3961830139,145.4894866943,0.0649688244,-0.0142276287,-0.0013597608,
228.413,-3.3255505562,1.4162783623,26.0574264526,0.0554779246,0.0423665382,0.0054084659,-114.6120452881,72.7082443237,80.8425903320,0.0241395235,0.0557356775,0.0074762106,-11.3598432541,84.3456649780,175.0402069092,0.0258961320,0.0247228555,0.0208781362,42.4829597473,43.3968124390,145.4992218018,0.0723010302,-0.0084162354,-0.0144892931,
228.423,-3.3272120953,1.4160602093,26.0590629578,0.0671928674,0.0409306362,0.0015034080,-114.6093902588,72.7119903564,80.8492813110,0.0246472359,0.0630089641,0.0128089190,-11.3768815994,84.3492355347,175.0291137695,0.0244374275,0.0262052268,0.0082474947,42.4848632813,43.3997154236,145.5063323975,0.0640370846,-0.0132933855,-0.0066349506,
228.433,-3.3244416714,1.4179543257,26.0589313507,0.0574602932,0.0457651503,0.0054078698,-114.6094512939,72.7114868164,80.8531036377,0.0251328945,0.0552045107,0.0103711486,-11.3769521713,84.3482971191,175.0349731445,0.0244358182,0.0227904804,0.0219039321,42.4844589233,43.3996353149,145.5113067627,0.0625711679,-0.0108487606,0.0016615987,
228.443,-3.3200626373,1.4167840481,26.0582752228,0.0637875274,0.0471537448,0.0058910847,-114.6112365723,72.7111740112,80.8545684814,0.0280609727,0.0576462746,0.0089169741,-11.3563184738,84.3476715088,175.0619812012,0.0195519328,0.0281280018,0.0228635669,42.4841079712,43.4001274109,145.5157775879,0.0655070543,-0.0103533268,-0.0046845675,
228.453,-3.3203828335,1.4166908264,26.0576438904,0.0579265282,0.0456944816,0.0073564053,-114.6158523560,72.7120819092,80.8544769287,0.0222063065,0.0585991442,0.0084441900,-11.3635435104,84.3511810303,175.0619201660,0.0273704529,0.0256875567,0.0131575465,42.4885253906,43.3997344971,145.5244598389,0.0738029480,-0.0060031712,-0.0124627948,
228.463,-3.3212368488,1.4126639366,26.0576782227,0.0676218867,0.0437563322,0.0093088150,-114.6217803955,72.7142791748,80.8536148071,0.0236825347,0.0653890371,0.0118750930,-11.3568019867,84.3495101929,175.0770416260,0.0224847794,0.0212869458,0.0272877812,42.4882507324,43.4028091431,145.5320587158,0.0630997419,-0.0118351579,-0.0046254396,
228.473,-3.3218901157,1.4109122753,26.0582122803,0.0661264807,0.0423029065,0.0073552728,-114.6200485229,72.7123107910,80.8601226807,0.0305082798,0.0571216047,0.0157867074,-11.3613958359,84.3531875610,175.0807495117,0.0254207850,0.0271419771,0.0170964003,42.4880142212,43.4019432068,145.5379486084,0.0743192434,-0.0118398666,-0.0046352148,
228.483,-3.3207032681,1.4133759737,26.0598506927,0.0578686893,0.0422821715,0.0019841790,-114.6207580566,72.7120437622,80.8650054932,0.0285537839,0.0605421364,0.0143270493,-11.3618345261,84.3504486084,175.0898590088,0.0307871699,0.0227570832,0.0248652101,42.4940757751,43.4020004272,145.5480651855,0.0748082399,-0.0045718551,-0.0153245926,
228.493,-3.3220639229,1.4130294323,26.0627803802,0.0617688894,0.0374230780,0.0093095303,-114.6330108643,72.7110366821,80.8596115112,0.0265954137,0.0600429177,0.0075561404,-11.3878297806,84.3495483398,175.0742645264,0.0195551515,0.0154809542,0.0297400951,42.4960975647,43.4007720947,145.5559539795,0.0674684048,-0.0031360984,-0.0050650835,
228.503,-3.3232705593,1.4129302502,26.0632915497,0.0603023171,0.0403737761,0.0063812137,-114.6427078247,72.7113037109,80.8560104370,0.0270850658,0.0570882261,0.0090649724,-11.4098634720,84.3516311646,175.0637054443,0.0268829465,0.0213709697,0.0166007280,42.4973869324,43.4013214111,145.5638732910,0.0684519410,-0.0158388615,-0.0099312067,
228.513,-3.3228607178,1.4152063131,26.0643749237,0.0544826612,0.0393900201,0.0141943097,-114.6401672363,72.7114639282,80.8643112183,0.0246444941,0.0595327318,0.0134463906,-11.4077329636,84.3523178101,175.0760803223,0.0283489823,0.0218533650,0.0229585171,42.4980239868,43.4020576477,145.5719146729,0.0704144239,-0.0114444494,-0.0001542568,
228.523,-3.3227617741,1.4171572924,26.0673580170,0.0535401329,0.0447593443,0.0029644966,-114.6452636719,72.7106018066,80.8649978638,0.0329408050,0.0614879727,0.0100584626,-11.4266738892,84.3554153442,175.0668029785,0.0288425684,0.0223639645,0.0156918168,42.4989662170,43.3987960815,145.5799102783,0.0776972771,-0.0129444003,-0.0040805340,
228.533,-3.3223540783,1.4144566059,26.0673885345,0.0608172342,0.0374280922,0.0093106031,-114.6492156982,72.7051162720,80.8668212891,0.0270529985,0.0474018455,0.0037674308,-11.4253416061,84.3556213379,175.0764617920,0.0259132385,0.0248024426,0.0225303769,42.4979209900,43.4001655579,145.5870208740,0.0689254999,-0.0148767829,-0.0050548315,
228.543,-3.3230319023,1.4129105806,26.0686073303,0.0612785369,0.0442758724,0.0083340406,-114.6548843384,72.7055282593,80.8667068481,0.0207074881,0.0566608012,0.0096509457,-11.4231224060,84.3549270630,175.0882873535,0.0264003277,0.0228479095,0.0234941244,42.4962463379,43.4011840820,145.5920104980,0.0645439625,-0.0099699497,-0.0011532307,
228.553,-3.3250818253,1.4113199711,26.0716648102,0.0617390648,0.0457764603,0.0063822269,-114.6469573975,72.7056274414,80.8819274902,0.0285204649,0.0615588129,0.0140072703,-11.4089708328,84.3509674072,175.1118621826,0.0263935328,0.0247897208,0.0346553922,42.4938697815,43.4016876221,145.5966644287,0.0655269027,-0.0099436045,-0.0021457076,
228.563,-3.3261620998,1.4116243124,26.0733928680,0.0593029708,0.0384710543,0.0112658739,-114.6449890137,72.7046966553,80.8900527954,0.0270507932,0.0566949546,0.0076566935,-11.3994865417,84.3529510498,175.1303253174,0.0180961490,0.0247669332,0.0205236077,42.4924430847,43.4054145813,145.6028900146,0.0592265129,-0.0147828758,-0.0065195560,
228.573,-3.3255355358,1.4110567570,26.0739116669,0.0622227564,0.0423664004,0.0141953826,-114.6451187134,72.7037200928,80.8967361450,0.0226511955,0.0562213659,0.0057109594,-11.3914556503,84.3506622314,175.1459960938,0.0234633088,0.0252490453,0.0292719007,42.4953117371,43.4049263000,145.6118621826,0.0709390640,-0.0084660947,-0.0074759722,
228.583,-3.3253855705,1.4083079100,26.0751285553,0.0655927584,0.0428521447,0.0107756853,-114.6391143799,72.7044601440,80.9069976807,0.0246081948,0.0542695820,0.0076305270,-11.3917303085,84.3486785889,175.1526641846,0.0229716301,0.0286741704,0.0277740955,42.4952430725,43.4052200317,145.6164398193,0.0641068816,-0.0113927126,-0.0030794144,
228.593,-3.3278608322,1.4070658684,26.0769100189,0.0601999983,0.0380124748,0.0044302344,-114.6301040649,72.7073211670,80.9198150635,0.0255995393,0.0557104945,0.0153807402,-11.3832864761,84.3489913940,175.1694030762,0.0205307603,0.0252405517,0.0253351927,42.4968376160,43.4027633667,145.6243591309,0.0757944584,-0.0084977746,-0.0079700351,
228.603,-3.3281755447,1.4071214199,26.0786266327,0.0621540919,0.0433890484,0.0063836575,-114.6310424805,72.7063522339,80.9241180420,0.0295007825,0.0586543977,0.0041612387,-11.3629331589,84.3496856689,175.1967468262,0.0185788274,0.0291093178,0.0228987336,42.4954109192,43.4053306580,145.6286468506,0.0562957525,-0.0167645812,-0.0011244416,
228.613,-3.3294107914,1.4085323811,26.0815429688,0.0577841811,0.0399925597,0.0102913976,-114.6373672485,72.7054367065,80.9207916260,0.0294960737,0.0562116504,0.0081036687,-11.3656663895,84.3531188965,175.1999206543,0.0273737907,0.0247080512,0.0175857544,42.4944915771,43.4037590027,145.6345367432,0.0733656883,-0.0148154497,-0.0074930191,
228.623,-3.3274209499,1.4080386162,26.0808792114,0.0616818145,0.0472821295,0.0132190585,-114.6289443970,72.7053756714,80.9324722290,0.0226597786,0.0547662377,0.0139237046,-11.3868741989,84.3506927490,175.1865997314,0.0254164934,0.0174284428,0.0253653526,42.4904098511,43.4029769897,145.6378326416,0.0689612031,-0.0177133083,0.0027189255,
228.633,-3.3273913860,1.4080921412,26.0820007324,0.0597296208,0.0404456779,0.0015002489,-114.6322097778,72.7054061890,80.9318084717,0.0270544887,0.0635476112,0.0114974976,-11.3912534714,84.3483657837,175.1912994385,0.0215062499,0.0193968602,0.0204455853,42.4867744446,43.4056854248,145.6408843994,0.0592299700,-0.0225402713,0.0017344952,
228.643,-3.3284971714,1.4095691442,26.0849494934,0.0553608611,0.0404649004,0.0088264346,-114.6312484741,72.7047500610,80.9363327026,0.0270510912,0.0591649413,0.0154038072,-11.3829860687,84.3442764282,175.2078857422,0.0151515603,0.0223259144,0.0320938826,42.4879646301,43.4027099609,145.6467437744,0.0787234902,-0.0084153116,-0.0065818429,
228.653,-3.3284049034,1.4088346958,26.0854930878,0.0626722574,0.0448578447,0.0102909207,-114.6327285767,72.7021560669,80.9383010864,0.0270376205,0.0562713742,0.0144522190,-11.3941802979,84.3437576294,175.2049865723,0.0214983225,0.0243001394,0.0267176628,42.4894599915,43.4004898071,145.6540527344,0.0772304535,-0.0118652582,-0.0056121349,
228.663,-3.3294882774,1.4113004208,26.0865306854,0.0578324795,0.0429235287,0.0049216151,-114.6358413696,72.7013168335,80.9403457642,0.0221504569,0.0606717467,0.0100782514,-11.4029254913,84.3451080322,175.2041168213,0.0234537721,0.0199161395,0.0203956366,42.4927902222,43.3991851807,145.6621398926,0.0694013834,-0.0040944219,-0.0099896789,
228.673,-3.3280148506,1.4131833315,26.0906658173,0.0583536103,0.0472923480,0.0049214363,-114.6346664429,72.7007598877,80.9474945068,0.0216593146,0.0592177808,0.0174007416,-11.4052877426,84.3425445557,175.2119293213,0.0283321738,0.0223703422,0.0291421413,42.4966621399,43.3985061646,145.6714630127,0.0811115503,-0.0119486749,-0.0163099766,
228.683,-3.3259172440,1.4139623642,26.0917968750,0.0617851689,0.0496971942,0.0102899671,-114.6315765381,72.7017211914,80.9576644897,0.0265470743,0.0616514683,0.0144497156,-11.4099426270,84.3422317505,175.2168884277,0.0263785124,0.0228677951,0.0218136311,42.5014495850,43.4005737305,145.6819610596,0.0650244951,-0.0085587502,-0.0094149113,
228.693,-3.3259174824,1.4142588377,26.0916557312,0.0608137809,0.0404198505,0.0029664636,-114.6458663940,72.7014770508,80.9483032227,0.0245926976,0.0616246462,0.0003587604,-11.3989057541,84.3398818970,175.2373962402,0.0175853968,0.0248097330,0.0305600762,42.5006027222,43.4014968872,145.6872100830,0.0665010214,-0.0104964375,-0.0059961677,
228.703,-3.3261258602,1.4131968021,26.0928039551,0.0637249351,0.0438414738,0.0044310689,-114.6509780884,72.7010040283,80.9492492676,0.0265433788,0.0591784716,0.0038045645,-11.4035148621,84.3395996094,175.2431030273,0.0239325762,0.0189594254,0.0242084861,42.5011596680,43.4009437561,145.6936035156,0.0650291443,-0.0105062127,-0.0020899773,
228.713,-3.3260457516,1.4125777483,26.0939579010,0.0622492880,0.0448166579,0.0063837767,-114.6504974365,72.7025604248,80.9552841187,0.0328990817,0.0645276904,0.0184397101,-11.4071092606,84.3395004272,175.2486267090,0.0234441161,0.0170125961,0.0232329369,42.5001182556,43.4012794495,145.6985321045,0.0660099983,-0.0119585991,0.0003454089,
228.723,-3.3257033825,1.4115861654,26.0951538086,0.0612554289,0.0457872823,0.0019884109,-114.6528472900,72.7038116455,80.9610366821,0.0280227661,0.0605972111,0.0130712390,-11.4081811905,84.3432388306,175.2566528320,0.0190560222,0.0223731287,0.0159702301,42.4998703003,43.4007225037,145.7058105469,0.0699092150,-0.0148903430,-0.0055208802,
228.733,-3.3279809952,1.4109292030,26.0962791443,0.0622205287,0.0409441553,0.0019904971,-114.6548156738,72.7032699585,80.9665222168,0.0265551209,0.0547420084,0.0121076107,-11.4192867279,84.3436203003,175.2546234131,0.0288223028,0.0189726911,0.0203770399,42.5010757446,43.4006805420,145.7136688232,0.0703969002,-0.0124606490,-0.0059993267,
228.743,-3.3290426731,1.4132413864,26.0979614258,0.0564014986,0.0429157242,0.0063867569,-114.6606063843,72.7038116455,80.9659729004,0.0333938599,0.0581391454,0.0067601204,-11.4211225510,84.3427124023,175.2616729736,0.0205199718,0.0253266394,0.0267097950,42.4992561340,43.4018898010,145.7183227539,0.0596700907,-0.0138986707,-0.0060043335,
228.753,-3.3288435936,1.4122742414,26.0966625214,0.0627322793,0.0434005596,0.0000388026,-114.6692504883,72.7054367065,80.9628067017,0.0270546675,0.0590724647,0.0028835535,-11.4197816849,84.3430328369,175.2694702148,0.0254033208,0.0263000876,0.0223185420,42.4977836609,43.4056053162,145.7220458984,0.0577640533,-0.0202025175,-0.0113551617,
228.763,-3.3287436962,1.4131962061,26.0978145599,0.0568889901,0.0448636338,0.0073634982,-114.6704254150,72.7056579590,80.9661712646,0.0314503312,0.0571133494,0.0097234845,-11.4036760330,84.3451080322,175.2927398682,0.0254068971,0.0223588310,0.0233256221,42.4936676025,43.4063720703,145.7248992920,0.0587503910,-0.0103921294,0.0008234978,
228.773,-3.3295321465,1.4134297371,26.0965099335,0.0588461906,0.0419476777,0.0088292360,-114.6803436279,72.7051391602,80.9613952637,0.0285179615,0.0575879812,0.0048913360,-11.4201459885,84.3461837769,175.2840728760,0.0156431198,0.0233603008,0.0155358911,42.4929847717,43.4058036804,145.7290802002,0.0670439005,-0.0147848725,-0.0045583248,
228.783,-3.3320648670,1.4126083851,26.0976467133,0.0632263869,0.0419918150,0.0137142539,-114.6780776978,72.7062683105,80.9703063965,0.0260823965,0.0541579127,0.0156149268,-11.4496927261,84.3469085693,175.2618103027,0.0190623403,0.0185260028,0.0194643736,42.4942359924,43.4077873230,145.7364501953,0.0621862411,-0.0113624632,-0.0113659501,
228.793,-3.3325638771,1.4108843803,26.0987358093,0.0685674027,0.0405357108,0.0137137175,-114.6784591675,72.7044143677,80.9749679565,0.0285142064,0.0536962152,0.0097701550,-11.4355106354,84.3447647095,175.2836456299,0.0263828635,0.0253445730,0.0287017822,42.4951477051,43.4091796875,145.7432556152,0.0636687875,-0.0147778690,-0.0030457377,
228.803,-3.3323657513,1.4088685513,26.0993213654,0.0626728535,0.0410205871,0.0049237609,-114.6733245850,72.7064437866,80.9840240479,0.0246184468,0.0585604310,0.0146145821,-11.4401159286,84.3426132202,175.2861480713,0.0200315118,0.0229186192,0.0286660194,42.4983711243,43.4117851257,145.7518615723,0.0617486835,-0.0099039078,-0.0132482052,
228.813,-3.3313059807,1.4066336155,26.1017055511,0.0665401071,0.0414904654,0.0195701122,-114.6730346680,72.7033843994,80.9880371094,0.0206963420,0.0547005534,0.0107281804,-11.4427852631,84.3426513672,175.2918395996,0.0263792276,0.0234111473,0.0203682184,42.4989433289,43.4110870361,145.7583770752,0.0646695495,-0.0094268322,-0.0044614077,
228.823,-3.3321747780,1.4069974422,26.1040668488,0.0592222400,0.0434587151,0.0112704039,-114.6839904785,72.7002868652,80.9802703857,0.0250747800,0.0605830550,0.0064070225,-11.4108133316,84.3403625488,175.3320465088,0.0205159187,0.0272701085,0.0252009034,42.4987373352,43.4113578796,145.7626953125,0.0661377907,-0.0103991032,0.0018877983,
228.833,-3.3321268559,1.4079189301,26.1039333344,0.0587500334,0.0405281633,0.0063879490,-114.6844024658,72.6992568970,80.9822235107,0.0211632252,0.0557143390,0.0117871761,-11.3830509186,84.3384246826,175.3656005859,0.0283250809,0.0252754688,0.0285777450,42.5008239746,43.4100151062,145.7690582275,0.0710035563,-0.0065233111,-0.0039664507,
228.843,-3.3328988552,1.4080890417,26.1056518555,0.0616826937,0.0439595804,0.0044357777,-114.6917343140,72.6980667114,80.9763107300,0.0226218700,0.0630410910,0.0084121227,-11.3919982910,84.3363189697,175.3643493652,0.0205089450,0.0238331035,0.0300107002,42.4980278015,43.4105606079,145.7732849121,0.0646628141,-0.0103989542,0.0023629665,
228.853,-3.3342502117,1.4097020626,26.1073703766,0.0568280257,0.0439830758,0.0102970600,-114.6803894043,72.6972961426,80.9897003174,0.0226178765,0.0581945777,0.0166645050,-11.3809518814,84.3356857300,175.3830413818,0.0249024034,0.0252809599,0.0280433893,42.5024261475,43.4095802307,145.7832031250,0.0700215101,-0.0036121905,-0.0039563179,
228.863,-3.3347275257,1.4068894386,26.1080207825,0.0636148900,0.0449680239,0.0127378106,-114.6688156128,72.6977157593,81.0049438477,0.0216434598,0.0587018728,0.0200248957,-11.3872194290,84.3318176270,175.3845214844,0.0190363526,0.0194452591,0.0382357240,42.5045089722,43.4089088440,145.7920837402,0.0612239838,-0.0036369562,-0.0015023351,
228.873,-3.3335382938,1.4055212736,26.1092834473,0.0606613271,0.0508067161,0.0083415508,-114.6677398682,72.6953964233,81.0108261108,0.0235845447,0.0611796379,0.0161296129,-11.3838138580,84.3330917358,175.3981170654,0.0180619955,0.0248061866,0.0201893449,42.5082244873,43.4081420898,145.8018493652,0.0704915524,-0.0080725551,-0.0048958659,
228.883,-3.3349792957,1.4049290419,26.1116695404,0.0626041144,0.0479021482,0.0117606521,-114.6652221680,72.6936950684,81.0205764771,0.0265054107,0.0553530753,0.0185707808,-11.4129133224,84.3311233521,175.3776245117,0.0224531293,0.0131444409,0.0260254741,42.5079994202,43.4094238281,145.8091583252,0.0587890148,-0.0124545097,-0.0029326677,
228.893,-3.3349525928,1.4044570923,26.1134338379,0.0621076003,0.0444837175,0.0132249594,-114.6635284424,72.6909790039,81.0303192139,0.0264913440,0.0568613708,0.0132106543,-11.4230594635,84.3362426758,175.3765106201,0.0249033570,0.0243752673,0.0100007653,42.5087242126,43.4104957581,145.8172454834,0.0622206330,-0.0124526918,-0.0097537041,
228.903,-3.3364279270,1.4038895369,26.1151390076,0.0645391047,0.0435328744,0.0117620230,-114.6700057983,72.6887359619,81.0338668823,0.0215968490,0.0554167926,0.0093505979,-11.4445409775,84.3369369507,175.3659057617,0.0224631429,0.0224568956,0.0178320408,42.5081138611,43.4074058533,145.8244018555,0.0729236603,-0.0090539157,-0.0014846325,
228.913,-3.3359227180,1.4039634466,26.1162090302,0.0640521199,0.0420592315,0.0049247146,-114.6760559082,72.6907424927,81.0371627808,0.0279549360,0.0597678721,0.0118067265,-11.4809455872,84.3392562866,175.3385620117,0.0263733864,0.0220236443,0.0130003095,42.5076179504,43.4104881287,145.8313598633,0.0641735792,-0.0173253417,-0.0039041638,
228.923,-3.3367848396,1.4043033123,26.1185569763,0.0591752343,0.0435390808,0.0073678493,-114.6701278687,72.6930160522,81.0514602661,0.0250370502,0.0573050380,0.0137161016,-11.5095434189,84.3400192261,175.3196716309,0.0249098539,0.0176756680,0.0227897763,42.5056610107,43.4108200073,145.8362579346,0.0641778708,-0.0168158412,-0.0073349476,
228.933,-3.3355474472,1.4028333426,26.1191673279,0.0630558357,0.0488886535,0.0088303089,-114.6596603394,72.6962432861,81.0680541992,0.0260303617,0.0553257167,0.0195034742,-11.5111703873,84.3347930908,175.3246154785,0.0190414786,0.0196492933,0.0324690342,42.5074157715,43.4091606140,145.8447570801,0.0778286457,-0.0109865069,-0.0048939586,
228.943,-3.3351309299,1.4008022547,26.1191539764,0.0625321120,0.0439986363,0.0029702187,-114.6553497314,72.6993789673,81.0761718750,0.0255583525,0.0606588125,0.0155550838,-11.5281782150,84.3352737427,175.3147583008,0.0175774693,0.0226066932,0.0212525725,42.5114746094,43.4086952209,145.8519897461,0.0641509295,-0.0080983043,-0.0068154335,
228.953,-3.3358657360,1.3998297453,26.1196460724,0.0654448345,0.0420583375,0.0049232244,-114.6537475586,72.7010040283,81.0799636841,0.0250785351,0.0577081740,0.0091885924,-11.5214233398,84.3363876343,175.3275604248,0.0253918767,0.0201501958,0.0222432613,42.5083160400,43.4108123779,145.8536834717,0.0627129078,-0.0178174078,0.0014759898,
228.963,-3.3355998993,1.4022120237,26.1206932068,0.0562090576,0.0410770848,0.0122484565,-114.6486968994,72.7028808594,81.0855865479,0.0211820006,0.0547606051,0.0130578876,-11.5214538574,84.3338928223,175.3327941895,0.0263641477,0.0216232687,0.0285512209,42.5101356506,43.4119224548,145.8598785400,0.0666332245,-0.0026885867,-0.0028922558,
228.973,-3.3353023529,1.3998719454,26.1218624115,0.0659338534,0.0435133725,0.0015051365,-114.6492385864,72.7037887573,81.0865325928,0.0260695219,0.0547462106,0.0076831579,-11.5030317307,84.3334732056,175.3557739258,0.0205040574,0.0289173573,0.0221884251,42.5107765198,43.4102439880,145.8653717041,0.0739362240,-0.0100324154,-0.0063197613,
228.983,-3.3374991417,1.4016016722,26.1223411560,0.0561984032,0.0411101803,0.0112736821,-114.6563720703,72.7045135498,81.0807495117,0.0246084332,0.0610675812,0.0008758307,-11.4924945831,84.3366241455,175.3747711182,0.0288102627,0.0215643309,0.0173543096,42.5135116577,43.4104576111,145.8718566895,0.0729622841,-0.0100563765,-0.0116656423,
228.993,-3.3375225067,1.4011442661,26.1223449707,0.0552138612,0.0401340351,0.0132266283,-114.6572036743,72.7046127319,81.0827178955,0.0250972509,0.0600873232,0.0160158873,-11.4847898483,84.3345108032,175.3888549805,0.0263652205,0.0269291028,0.0280594826,42.5145606995,43.4074668884,145.8772125244,0.0748775005,-0.0066723824,-0.0019176006,
229.003,-3.3358914852,1.4014897346,26.1223258972,0.0566847362,0.0459649935,0.0127363801,-114.6598968506,72.7030181885,81.0841598511,0.0241124034,0.0610821247,0.0150631070,-11.4779996872,84.3344802856,175.4043884277,0.0249003172,0.0288702324,0.0275705457,42.5169868469,43.4109344482,145.8852233887,0.0602730513,-0.0100849271,-0.0106551647,
229.013,-3.3310031891,1.4026960135,26.1228866577,0.0557292216,0.0488095060,0.0058962703,-114.6632843018,72.7005386353,81.0862121582,0.0231229663,0.0620889664,0.0077720881,-11.4949998856,84.3336791992,175.3965301514,0.0273403525,0.0181604512,0.0226781964,42.5214614868,43.4108123779,145.8951721191,0.0729668140,-0.0057332814,-0.0067117214,
229.023,-3.3311667442,1.4020863771,26.1252212524,0.0625545159,0.0395350233,0.0088257790,-114.6664505005,72.6969604492,81.0895690918,0.0255458355,0.0587177575,0.0078118443,-11.5237865448,84.3345794678,175.3781127930,0.0234356523,0.0157658160,0.0270972252,42.5216407776,43.4072761536,145.9020690918,0.0778048038,-0.0028338730,0.0030242205,
229.033,-3.3304963112,1.4025328159,26.1274948120,0.0650037155,0.0468475595,0.0015012026,-114.6654586792,72.6934890747,81.0973815918,0.0323637128,0.0626793206,0.0171086192,-11.5293922424,84.3369064331,175.3838653564,0.0224630833,0.0250444189,0.0193284154,42.5230216980,43.4086723328,145.9118957520,0.0665919781,-0.0091831684,-0.0067172050,
229.043,-3.3313970566,1.4020433426,26.1287059784,0.0576709546,0.0434452929,0.0112675428,-114.6631469727,72.6904220581,81.1055526733,0.0225821733,0.0617538691,0.0127243996,-11.5414915085,84.3370742798,175.3814239502,0.0205102563,0.0226242319,0.0276309252,42.5222396851,43.4092025757,145.9189300537,0.0631808043,-0.0140542984,-0.0062308311,
229.053,-3.3311045170,1.4031860828,26.1298122406,0.0581791773,0.0434401631,0.0049200058,-114.6649093628,72.6896514893,81.1104507446,0.0313672423,0.0617613196,0.0161561370,-11.5689802170,84.3399505615,175.3623352051,0.0278394222,0.0211963318,0.0149971843,42.5200653076,43.4080848694,145.9262390137,0.0670728683,-0.0135547519,0.0049711466,
229.063,-3.3316011429,1.4040948153,26.1296939850,0.0586833134,0.0429605097,0.0029678345,-114.6633758545,72.6892013550,81.1191329956,0.0284352303,0.0583534837,0.0112690926,-11.5610475540,84.3405380249,175.3809967041,0.0234459043,0.0260634683,0.0242813826,42.5180587769,43.4086418152,145.9320068359,0.0646384954,-0.0154846311,-0.0013889074,
229.073,-3.3299612999,1.4014781713,26.1308727264,0.0669384450,0.0439085700,0.0024766922,-114.6740341187,72.6884155273,81.1165618896,0.0264779925,0.0573662817,0.0083952546,-11.5629310608,84.3394622803,175.3894805908,0.0268620253,0.0172815211,0.0267042518,42.5185890198,43.4066352844,145.9402923584,0.0719373226,-0.0120878518,-0.0072613955,
229.083,-3.3290052414,1.4002861977,26.1325855255,0.0669176430,0.0434036702,0.0161472559,-114.6792678833,72.6865310669,81.1191406250,0.0235385299,0.0554298759,0.0050152540,-11.5501546860,84.3395996094,175.4117279053,0.0195380449,0.0270245261,0.0179138184,42.5174636841,43.4050216675,145.9467315674,0.0733816624,-0.0101373196,-0.0024024844,
229.093,-3.3301112652,1.3971780539,26.1344165802,0.0668634102,0.0448878556,0.0078461766,-114.6791534424,72.6852722168,81.1274490356,0.0284147859,0.0559376180,0.0118594766,-11.5549898148,84.3381500244,175.4157867432,0.0185589790,0.0260612071,0.0242391825,42.5152359009,43.4019355774,145.9518432617,0.0713894367,-0.0072117448,0.0019457340,
229.103,-3.3303172588,1.3975231647,26.1355018616,0.0634514689,0.0458679944,0.0141942501,-114.6750869751,72.6852569580,81.1382369995,0.0259733200,0.0539935231,0.0157465339,-11.5520391464,84.3384246826,175.4264526367,0.0297899246,0.0231255479,0.0281486511,42.5153007507,43.4021453857,145.9597473145,0.0689506531,-0.0120934844,-0.0058642626,
229.113,-3.3285925388,1.3978384733,26.1360149384,0.0610155612,0.0463262312,0.0068684816,-114.6768875122,72.6860351563,81.1430053711,0.0293953419,0.0578833818,0.0074489117,-11.5570259094,84.3373565674,175.4311065674,0.0234404206,0.0202081352,0.0266675949,42.5153312683,43.4031600952,145.9653167725,0.0684752464,-0.0174567103,-0.0058552027,
229.123,-3.3283362389,1.3980354071,26.1364765167,0.0634604022,0.0433920696,0.0039386749,-114.6782302856,72.6880798340,81.1466979980,0.0250114202,0.0568734407,0.0118355155,-11.5401153564,84.3386001587,175.4556274414,0.0249074101,0.0284755006,0.0222880244,42.5147781372,43.4057464600,145.9716186523,0.0602073073,-0.0145008564,-0.0033957958,
229.133,-3.3286471367,1.4006085396,26.1381244659,0.0576459207,0.0433974229,0.0068693161,-114.6820526123,72.6915512085,81.1473007202,0.0264942646,0.0651136339,0.0132945180,-11.5109977722,84.3375930786,175.4923706055,0.0244174004,0.0269637443,0.0242146850,42.5153999329,43.4069366455,145.9778747559,0.0694997311,-0.0140087605,-0.0028915405,
229.143,-3.3264527321,1.4004547596,26.1405124664,0.0610612072,0.0477537327,0.0117501020,-114.6843643188,72.6933746338,81.1486968994,0.0313865542,0.0587332845,0.0123161077,-11.5178165436,84.3365173340,175.4921722412,0.0200210214,0.0206315219,0.0183396935,42.5134353638,43.4070281982,145.9795989990,0.0651063323,-0.0130130649,-0.0053488016,
229.153,-3.3273310661,1.3985673189,26.1417083740,0.0624931194,0.0414214283,0.0088206530,-114.6917800903,72.6943130493,81.1454849243,0.0279734731,0.0591918230,0.0040439963,-11.4966526031,84.3350296021,175.5209960938,0.0258778334,0.0259714238,0.0275831223,42.5138130188,43.4063072205,145.9861602783,0.0709565878,-0.0139990747,-0.0038877726,
229.163,-3.3254745007,1.3970617056,26.1429443359,0.0610020086,0.0467602126,0.0044234395,-114.6915054321,72.6920166016,81.1506652832,0.0279615521,0.0582500994,0.0138241649,-11.5040988922,84.3353042603,175.5225677490,0.0244134665,0.0201236866,0.0236857533,42.5166587830,43.4070167542,145.9935607910,0.0655944943,-0.0066955686,-0.0126456022,
229.173,-3.3246786594,1.3972878456,26.1459465027,0.0575879812,0.0428400934,0.0083289146,-114.6951828003,72.6914978027,81.1529159546,0.0289354324,0.0631326139,0.0094506741,-11.5410308838,84.3373870850,175.4935455322,0.0229521990,0.0192039274,0.0183614492,42.5186271667,43.4029045105,145.9996032715,0.0723782778,-0.0052824616,-0.0033876896,
229.183,-3.3236687183,1.3977755308,26.1477451324,0.0566199273,0.0457521863,0.0146758556,-114.7028045654,72.6876449585,81.1514205933,0.0245208740,0.0553619564,0.0090252757,-11.5533132553,84.3373107910,175.4896545410,0.0234403610,0.0221550390,0.0227591395,42.5181274414,43.4042091370,146.0067901611,0.0650706291,-0.0116149187,-0.0048452616,
229.193,-3.3249924183,1.3986667395,26.1501216888,0.0571237616,0.0462635010,0.0034471154,-114.7052078247,72.6842575073,81.1576232910,0.0254798532,0.0622438490,0.0085718632,-11.5374631882,84.3342742920,175.5136871338,0.0317358971,0.0275091641,0.0270972848,42.5178604126,43.4048805237,146.0119476318,0.0704501867,-0.0160014629,-0.0082596540,
229.203,-3.3266339302,1.4010015726,26.1530170441,0.0566762201,0.0428740643,0.0097974539,-114.7044448853,72.6822357178,81.1656341553,0.0240045190,0.0569048822,0.0163946748,-11.5308475494,84.3369750977,175.5298614502,0.0175803900,0.0245589130,0.0242100954,42.5189514160,43.4060668945,146.0199279785,0.0655824542,-0.0096544623,-0.0097045898,
229.213,-3.3259198666,1.4034647942,26.1533584595,0.0625785738,0.0404201522,0.0210278630,-114.7048645020,72.6810226440,81.1702499390,0.0264396071,0.0593636036,0.0124989748,-11.5427513123,84.3365859985,175.5277252197,0.0214859843,0.0162798762,0.0261614323,42.5175819397,43.4061279297,146.0256042480,0.0665597916,-0.0096411109,-0.0038564801,
229.223,-3.3241200447,1.4017417431,26.1557922363,0.0620602220,0.0442951024,0.0058889389,-114.7093887329,72.6785049438,81.1711044312,0.0274030566,0.0613450110,0.0071668029,-11.5625000000,84.3371734619,175.5170593262,0.0234401226,0.0182648338,0.0261795521,42.5170326233,43.4054679871,146.0322418213,0.0704576373,-0.0135476589,-0.0009373426,
229.233,-3.3225877285,1.4014949799,26.1575050354,0.0635207668,0.0432918556,0.0146764517,-114.7101821899,72.6759262085,81.1746292114,0.0259248614,0.0555224419,0.0115829110,-11.5621480942,84.3365554810,175.5263671875,0.0249038935,0.0241259038,0.0212852359,42.5181922913,43.4067115784,146.0393981934,0.0621726513,-0.0062242746,-0.0018935800,
229.243,-3.3225953579,1.4006443024,26.1605033875,0.0610645190,0.0423154458,0.0000276566,-114.7116851807,72.6745758057,81.1784667969,0.0259178281,0.0570046306,0.0072050095,-11.5330123901,84.3373870850,175.5655364990,0.0258818865,0.0289557539,0.0247060657,42.5181274414,43.4083862305,146.0451660156,0.0651235580,-0.0135341287,0.0000746250,
229.253,-3.3249220848,1.3987755775,26.1628341675,0.0668912828,0.0384497680,0.0068647861,-114.7169570923,72.6751251221,81.1785888672,0.0234792829,0.0618682504,0.0082024932,-11.5168504715,84.3368606567,175.5893402100,0.0214864612,0.0250233188,0.0305514932,42.5190315247,43.4084205627,146.0519561768,0.0724482536,-0.0081714392,-0.0082190037,
229.263,-3.3263382912,1.3997461796,26.1645126343,0.0590957180,0.0394509733,0.0107735395,-114.7148513794,72.6740722656,81.1853103638,0.0268917680,0.0570052564,0.0169891119,-11.5105581284,84.3374938965,175.6033325195,0.0234406590,0.0245219842,0.0237242579,42.5188674927,43.4082756042,146.0571594238,0.0704932213,-0.0101240277,-0.0023613572,
229.273,-3.3272995949,1.4007308483,26.1668624878,0.0591128990,0.0453270748,0.0088209510,-114.7258071899,72.6749801636,81.1779632568,0.0283613205,0.0589208901,0.0087338686,-11.5055294037,84.3364181519,175.6172332764,0.0200208426,0.0254933834,0.0276114941,42.5193977356,43.4062042236,146.0648345947,0.0738849640,-0.0086810589,0.0020186901,
229.283,-3.3274166584,1.4026114941,26.1690940857,0.0601222776,0.0419110991,0.0049163103,-114.7333374023,72.6761779785,81.1748809814,0.0229964852,0.0588863790,0.0082727671,-11.5165138245,84.3362045288,175.6152954102,0.0219736099,0.0206302591,0.0256585479,42.5192756653,43.4068450928,146.0720367432,0.0675454140,-0.0111160874,0.0015351772,
229.293,-3.3283498287,1.4024258852,26.1708869934,0.0586541928,0.0433922075,0.0044284463,-114.7365951538,72.6777954102,81.1763229370,0.0254462361,0.0608082414,0.0156014562,-11.4993686676,84.3364868164,175.6419372559,0.0229506493,0.0264591798,0.0217505097,42.5170021057,43.4071273804,146.0770416260,0.0636427402,-0.0066980422,0.0024947524,
229.303,-3.3290269375,1.4026570320,26.1720390320,0.0571933836,0.0399860181,0.0083357692,-114.7328414917,72.6775054932,81.1848831177,0.0249564648,0.0622856021,0.0194918513,-11.4870100021,84.3356552124,175.6643676758,0.0224609375,0.0264405720,0.0271040201,42.5222473145,43.4044837952,146.0866394043,0.0723982453,-0.0009090900,-0.0082257986,
229.313,-3.3300621510,1.4039669037,26.1724872589,0.0596576445,0.0409805812,0.0063837767,-114.7352752686,72.6787719727,81.1874618530,0.0274044871,0.0598194003,0.0121702552,-11.4618778229,84.3321990967,175.6995239258,0.0268495083,0.0268971473,0.0319203734,42.5276222229,43.4051513672,146.0964202881,0.0655708313,-0.0092546642,-0.0091502070,
229.323,-3.3288538456,1.4040875435,26.1736621857,0.0577066243,0.0443775021,0.0122426748,-114.7443695068,72.6785583496,81.1860656738,0.0205674171,0.0573616326,0.0053790212,-11.4531822205,84.3332672119,175.7183227539,0.0248982310,0.0263904184,0.0226569772,42.5265731812,43.4035530090,146.1024169922,0.0743396282,-0.0151171684,-0.0023372769,
229.333,-3.3286633492,1.4030359983,26.1736907959,0.0571999960,0.0409562401,0.0097996593,-114.7454605103,72.6763610840,81.1945495605,0.0249505043,0.0564157367,0.0102822185,-11.4675216675,84.3359680176,175.7129821777,0.0244145989,0.0234764107,0.0197770000,42.5265235901,43.4042434692,146.1100311279,0.0640945435,-0.0077868104,-0.0057495236,
229.343,-3.3284707069,1.4040858746,26.1754245758,0.0567300320,0.0429059789,0.0127304196,-114.7428665161,72.6735458374,81.2048339844,0.0254241824,0.0579292476,0.0132191777,-11.4842967987,84.3341674805,175.7057800293,0.0248997808,0.0220463239,0.0256139040,42.5241203308,43.4027748108,146.1139831543,0.0674937963,-0.0097294450,-0.0009003282,
229.353,-3.3297898769,1.4027131796,26.1759757996,0.0606123321,0.0356047675,0.0102896094,-114.7376098633,72.6743469238,81.2150192261,0.0234752297,0.0584162772,0.0161184669,-11.4966602325,84.3349304199,175.7019042969,0.0190417171,0.0206002481,0.0163534284,42.5201263428,43.4043731689,146.1190948486,0.0631195307,-0.0194447637,0.0005444288,
229.363,-3.3312666416,1.3995023966,26.1772079468,0.0649508387,0.0414899550,0.0078483820,-114.7314910889,72.6726989746,81.2251739502,0.0254197717,0.0574781001,0.0126829147,-11.4986190796,84.3331298828,175.7089080811,0.0268511176,0.0245168358,0.0275495648,42.5204925537,43.4035263062,146.1250610352,0.0743392706,-0.0145722330,0.0010284185,
229.373,-3.3323962688,1.3997665644,26.1789741516,0.0571429506,0.0405330546,0.0063846111,-114.7204132080,72.6712112427,81.2387161255,0.0302948356,0.0492238998,0.0145938993,-11.4865531921,84.3347930908,175.7280426025,0.0209946036,0.0249780454,0.0182994008,42.5184402466,43.4021186829,146.1283721924,0.0709034801,-0.0111464858,0.0005099773,
229.383,-3.3320519924,1.3978724480,26.1807575226,0.0649224073,0.0434568003,0.0122429132,-114.7251358032,72.6716384888,81.2359466553,0.0200431943,0.0599490702,0.0092421174,-11.4685096741,84.3360671997,175.7525482178,0.0200202465,0.0264074728,0.0207554698,42.5174865723,43.4011840820,146.1316986084,0.0689384937,-0.0082154274,0.0004936457,
229.393,-3.3333947659,1.3944516182,26.1831798553,0.0658392757,0.0376209021,0.0054068565,-114.7303543091,72.6713409424,81.2342224121,0.0268775821,0.0628724396,0.0078040957,-11.4718608856,84.3327178955,175.7563629150,0.0219675899,0.0205649473,0.0255851150,42.5179977417,43.4005851746,146.1367340088,0.0669777393,-0.0092016459,0.0058637261,
229.403,-3.3326039314,1.3955888748,26.1842460632,0.0604880266,0.0429781824,0.0093129277,-114.7350387573,72.6711578369,81.2328567505,0.0259000659,0.0609113574,0.0083158612,-11.4835243225,84.3358306885,175.7519073486,0.0239260793,0.0239927545,0.0124561191,42.5160331726,43.4034004211,146.1419982910,0.0562713146,-0.0120901465,-0.0043821335,
229.413,-3.3319745064,1.3960883617,26.1848030090,0.0561022088,0.0424789265,0.0073593855,-114.7251205444,72.6689147949,81.2461242676,0.0297946334,0.0531545877,0.0131673217,-11.4504652023,84.3387374878,175.7918548584,0.0229545236,0.0327149965,0.0203052759,42.5165596008,43.4040527344,146.1485137939,0.0670217276,-0.0067187548,-0.0053485036,
229.423,-3.3316216469,1.3936456442,26.1860790253,0.0624072440,0.0478439368,0.0117524266,-114.7232666016,72.6697616577,81.2532119751,0.0234513879,0.0619349778,0.0131525993,-11.4476137161,84.3386001587,175.8012695313,0.0249074101,0.0224564672,0.0193264484,42.5180473328,43.4045066833,146.1553649902,0.0665392280,-0.0077055097,0.0010159016,
229.433,-3.3314795494,1.3966934681,26.1871242523,0.0561127700,0.0449117050,0.0151715279,-114.7296218872,72.6682815552,81.2530899048,0.0224671364,0.0575489402,0.0092868209,-11.4373197556,84.3397369385,175.8198852539,0.0293039083,0.0263411179,0.0154355168,42.5174598694,43.4046516418,146.1612548828,0.0694707632,-0.0174645185,-0.0043589473,
229.443,-3.3312976360,1.3972382545,26.1894416809,0.0605168045,0.0429553874,0.0049177408,-114.7438507080,72.6685409546,81.2457122803,0.0253981948,0.0604439676,0.0073991418,-11.4187316895,84.3412246704,175.8474884033,0.0234470963,0.0233744122,0.0198480487,42.5217285156,43.4084205627,146.1701202393,0.0612177849,-0.0096614361,-0.0145430565,
229.453,-3.3313117027,1.4005624056,26.1910610199,0.0552037098,0.0400258712,0.0132199526,-114.7450790405,72.6707382202,81.2510375977,0.0273627043,0.0594308078,0.0161789656,-11.4111499786,84.3401184082,175.8650665283,0.0273514390,0.0287361704,0.0271511078,42.5238265991,43.4090156555,146.1803436279,0.0700143576,-0.0111409724,-0.0076839328,
229.463,-3.3316426277,1.4009239674,26.1916046143,0.0591162667,0.0454027131,0.0190799236,-114.7496871948,72.6699295044,81.2530364990,0.0312647820,0.0584578514,0.0088818073,-11.4001140594,84.3398818970,175.8854827881,0.0239330530,0.0282296278,0.0290966034,42.5230674744,43.4087715149,146.1858825684,0.0739175081,-0.0145538449,-0.0057395697,
229.473,-3.3307271004,1.4014065266,26.1921730042,0.0581481270,0.0478281602,0.0024771690,-114.7551116943,72.6675415039,81.2527618408,0.0214866996,0.0526214540,0.0035533309,-11.3915472031,84.3390808105,175.9029083252,0.0293027759,0.0267528407,0.0281028748,42.5233573914,43.4086570740,146.1931915283,0.0685449839,-0.0091864169,-0.0028082132,
229.483,-3.3309478760,1.4018909931,26.1932888031,0.0605979860,0.0458788760,0.0083373785,-114.7634429932,72.6682586670,81.2500686646,0.0278381109,0.0604053140,0.0021229982,-11.3826465607,84.3380126953,175.9187774658,0.0244181156,0.0282059051,0.0251523256,42.5222473145,43.4092521667,146.1993713379,0.0626931190,-0.0101478100,-0.0037890673,
229.493,-3.3297142982,1.4020907879,26.1938591003,0.0596249104,0.0487870686,0.0171252489,-114.7602844238,72.6692886353,81.2592315674,0.0293083191,0.0608847141,0.0118663907,-11.3952789307,84.3361053467,175.9152069092,0.0209968686,0.0189568065,0.0270778537,42.5261230469,43.4106254578,146.2102661133,0.0671050549,-0.0096846223,-0.0066734552,
229.503,-3.3312370777,1.4021823406,26.1925201416,0.0615796335,0.0414893776,0.0112671852,-114.7507247925,72.6689834595,81.2744522095,0.0249121785,0.0550513566,0.0171943307,-11.3978719711,84.3328552246,175.9208984375,0.0248975158,0.0233665705,0.0314199924,42.5268211365,43.4113616943,146.2169189453,0.0676026940,-0.0160327554,-0.0037309527,
229.513,-3.3301548958,1.4041934013,26.1948776245,0.0533139408,0.0439118780,0.0068725944,-114.7418823242,72.6683425903,81.2879791260,0.0273502469,0.0511738062,0.0176453590,-11.4000644684,84.3329544067,175.9264831543,0.0195266008,0.0233701132,0.0192148089,42.5253295898,43.4111404419,146.2215270996,0.0671116114,-0.0086964965,0.0055308938,
229.523,-3.3298904896,1.4029775858,26.1978569031,0.0645231903,0.0453721546,0.0015008450,-114.7416152954,72.6697235107,81.2940368652,0.0263808966,0.0584772229,0.0112867355,-11.3918495178,84.3319168091,175.9429931641,0.0234310627,0.0243356489,0.0270090103,42.5206947327,43.4110908508,146.2229766846,0.0680875778,-0.0154894292,-0.0037860870,
229.533,-3.3300676346,1.4020038843,26.2002315521,0.0640179217,0.0458635464,0.0137076378,-114.7376785278,72.6702423096,81.3026046753,0.0258952975,0.0584795475,0.0141939521,-11.3961706161,84.3301544189,175.9483032227,0.0214748979,0.0199547000,0.0294213891,42.5179557800,43.4126663208,146.2273406982,0.0627363920,-0.0149627626,0.0059702396,
229.543,-3.3280096054,1.4009953737,26.2025547028,0.0683948621,0.0472925641,0.0122398734,-114.7404251099,72.6703643799,81.3039550781,0.0273607969,0.0589589477,0.0137179494,-11.3774557114,84.3322296143,175.9741363525,0.0229433179,0.0252864361,0.0177311301,42.5166282654,43.4145545959,146.2328186035,0.0642251968,-0.0173764229,-0.0052549839,
229.553,-3.3281118870,1.3992116451,26.2043285370,0.0644574910,0.0419232883,0.0102863908,-114.7491760254,72.6674346924,81.3003768921,0.0312517881,0.0565428138,0.0049908757,-11.3805313110,84.3352050781,175.9793243408,0.0229484439,0.0272349045,0.0197349191,42.5185394287,43.4148292542,146.2404632568,0.0598341227,-0.0090913177,-0.0037714243,
229.563,-3.3309972286,1.4012477398,26.2060508728,0.0532625429,0.0385555290,0.0127311945,-114.7640686035,72.6661605835,81.2905731201,0.0307568908,0.0579943657,0.0036053658,-11.3627252579,84.3339233398,176.0042724609,0.0214813948,0.0228137523,0.0245910287,42.5183982849,43.4144592285,146.2462463379,0.0661771297,-0.0076281428,-0.0052406788,
229.573,-3.3331284523,1.4008425474,26.2071876526,0.0596031323,0.0390809439,0.0137104988,-114.7641220093,72.6656875610,81.2954330444,0.0244067907,0.0526303351,0.0114213824,-11.3561706543,84.3328552246,176.0167388916,0.0234326720,0.0228063241,0.0274989009,42.5201377869,43.4123077393,146.2539672852,0.0695677996,-0.0052204132,-0.0062213540,
229.583,-3.3336160183,1.4026331902,26.2070579529,0.0581695288,0.0449487641,0.0161525607,-114.7704391479,72.6637039185,81.2931976318,0.0268378258,0.0580166876,0.0114652514,-11.3410730362,84.3337554932,176.0413513184,0.0263639092,0.0261950344,0.0167675018,42.5225830078,43.4106521606,146.2616271973,0.0724765062,-0.0062333345,-0.0042619109,
229.593,-3.3357334137,1.4019112587,26.2081451416,0.0625514686,0.0371731706,0.0049242377,-114.7708206177,72.6643142700,81.2957534790,0.0312355757,0.0604496300,0.0178102255,-11.3327789307,84.3329238892,176.0573577881,0.0209913850,0.0242304131,0.0270043612,42.5209655762,43.4083709717,146.2665405273,0.0670764446,-0.0130726993,0.0030275583,
229.603,-3.3384134769,1.4027751684,26.2103881836,0.0615899786,0.0372198261,0.0063921213,-114.7776641846,72.6657485962,81.2925415039,0.0248953700,0.0623651445,0.0109968185,-11.3460607529,84.3326797485,176.0524749756,0.0239206553,0.0237658806,0.0147978067,42.5185623169,43.4106254578,146.2712249756,0.0685698986,-0.0179146230,-0.0023436546,
229.613,-3.3387885094,1.4040890932,26.2108325958,0.0596597753,0.0411325805,0.0068813562,-114.7805175781,72.6639556885,81.2935867310,0.0287922621,0.0575032532,0.0085815787,-11.3319501877,84.3311614990,176.0730438232,0.0229414701,0.0232582986,0.0313692093,42.5216712952,43.4115943909,146.2789154053,0.0661407709,-0.0101234019,-0.0086562037,
229.623,-3.3385512829,1.4037281275,26.2125701904,0.0635597259,0.0474761128,0.0049278736,-114.7836074829,72.6658706665,81.2957458496,0.0297788382,0.0667447746,0.0129771829,-11.3343734741,84.3324356079,176.0796661377,0.0258733630,0.0203285441,0.0250436068,42.5197448730,43.4095611572,146.2832641602,0.0700212717,-0.0115867555,0.0040046573,
229.633,-3.3363609314,1.4023889303,26.2137775421,0.0625597984,0.0479262732,0.0044367313,-114.7878799438,72.6645431519,81.2981491089,0.0239125490,0.0594310164,0.0056826472,-11.3339824677,84.3325729370,176.0866241455,0.0219673514,0.0217922218,0.0250459313,42.5173454285,43.4100799561,146.2874145508,0.0656333566,-0.0174193978,-0.0043118000,
229.643,-3.3361318111,1.4031589031,26.2142162323,0.0615966730,0.0410863310,0.0078548789,-114.7944259644,72.6633224487,81.2965621948,0.0302538276,0.0584603548,0.0047453642,-11.3410100937,84.3323364258,176.0867767334,0.0273380280,0.0213168673,0.0230913758,42.5160293579,43.4104347229,146.2926330566,0.0622198582,-0.0144745111,-0.0033434629,
229.653,-3.3360905647,1.4016755819,26.2141647339,0.0649887621,0.0469450168,0.0054127574,-114.7838058472,72.6627807617,81.3121261597,0.0248799324,0.0565373003,0.0173942447,-11.3488817215,84.3344802856,176.0878601074,0.0239237547,0.0252297856,0.0201988220,42.5158157349,43.4067306519,146.2980041504,0.0690088272,-0.0057135224,-0.0004484057,
229.663,-3.3344223499,1.4000416994,26.2135124207,0.0654485375,0.0483808443,0.0068751574,-114.7827301025,72.6612243652,81.3189468384,0.0263366699,0.0594922900,0.0120289922,-11.3363819122,84.3353042603,176.1080322266,0.0317376852,0.0266701914,0.0182555318,42.5146255493,43.4068794250,146.3037261963,0.0680341125,-0.0169316530,-0.0087578297,
229.673,-3.3345909119,1.4009280205,26.2140769958,0.0547218062,0.0439892225,0.0063874722,-114.7823028564,72.6607437134,81.3268356323,0.0263341665,0.0580359101,0.0144717693,-11.3557119370,84.3336791992,176.0971069336,0.0209926963,0.0208496079,0.0255595446,42.5151901245,43.4064674377,146.3105010986,0.0685172081,-0.0096160769,-0.0033861399,
229.683,-3.3347966671,1.4024975300,26.2157440186,0.0591437258,0.0415513664,0.0107827783,-114.7778549194,72.6589202881,81.3367004395,0.0253481269,0.0570963919,0.0100687742,-11.3575468063,84.3343048096,176.1060943604,0.0244117379,0.0228037536,0.0211763978,42.5166397095,43.4072761536,146.3177642822,0.0680391788,-0.0120643973,-0.0058072805,
229.693,-3.3320643902,1.4043316841,26.2162113190,0.0601522923,0.0498045161,0.0117574930,-114.7698059082,72.6570587158,81.3496170044,0.0321744084,0.0571425557,0.0115084648,-11.3525972366,84.3365859985,176.1168365479,0.0224625468,0.0286469981,0.0182827711,42.5184974670,43.4059600830,146.3252410889,0.0709521770,-0.0125808716,-0.0038509369,
229.703,-3.3345122337,1.4040446281,26.2179222107,0.0611238442,0.0381284058,0.0039473772,-114.7760086060,72.6561660767,81.3479919434,0.0228924155,0.0581186712,0.0066611767,-11.3686380386,84.3358688354,176.1085662842,0.0219730139,0.0223294571,0.0226708055,42.5204925537,43.4047927856,146.3336486816,0.0714256167,-0.0111440122,-0.0072612166,
229.713,-3.3350055218,1.4055801630,26.2195816040,0.0591975152,0.0405783616,0.0088313818,-114.7697677612,72.6566696167,81.3576889038,0.0326606631,0.0576364994,0.0119992495,-11.3736047745,84.3366241455,176.1106872559,0.0180680752,0.0247768462,0.0231736898,42.5188102722,43.4033432007,146.3385925293,0.0738486648,-0.0150462687,-0.0028940439,
229.723,-3.3364911079,1.4035476446,26.2213306427,0.0674628317,0.0435339808,0.0098084807,-114.7730331421,72.6558227539,81.3574829102,0.0248437524,0.0600837469,0.0125088692,-11.3551559448,84.3345794678,176.1368103027,0.0288067460,0.0247518420,0.0285042524,42.5180816650,43.4028091431,146.3444366455,0.0714005232,-0.0077195466,0.0029544830,
229.733,-3.3353371620,1.4018213749,26.2225952148,0.0596202090,0.0464436151,0.0039472580,-114.7814559937,72.6537857056,81.3549423218,0.0243448615,0.0552132726,0.0042620897,-11.3612766266,84.3328857422,176.1366119385,0.0288038254,0.0223266780,0.0255485177,42.5214729309,43.4016647339,146.3546905518,0.0684562922,-0.0038542747,0.0000437498,
229.743,-3.3376920223,1.4028781652,26.2236385345,0.0606152117,0.0406252295,0.0049267411,-114.7767639160,72.6537170410,81.3644638062,0.0223913789,0.0620599091,0.0184006691,-11.3686141968,84.3358688354,176.1383209229,0.0253909826,0.0218411684,0.0192526579,42.5240173340,43.4027366638,146.3612518311,0.0684698820,-0.0121703148,-0.0082265139,
229.753,-3.3380815983,1.4017035961,26.2241573334,0.0640126839,0.0411203280,0.0049262047,-114.7768020630,72.6548767090,81.3701171875,0.0243505239,0.0615544617,0.0144864917,-11.3614330292,84.3363494873,176.1519927979,0.0249035358,0.0242686346,0.0241405368,42.5244293213,43.4037475586,146.3664855957,0.0621350408,-0.0136306882,-0.0057719350,
229.763,-3.3403184414,1.4042522907,26.2264080048,0.0557563715,0.0387178212,0.0083478093,-114.7754058838,72.6539535522,81.3789901733,0.0243457556,0.0601065457,0.0081385374,-11.3767271042,84.3383483887,176.1456451416,0.0200241804,0.0247766376,0.0183196664,42.5239715576,43.4036941528,146.3718414307,0.0660406351,-0.0126502514,-0.0023583174,
229.773,-3.3392417431,1.4035031796,26.2269420624,0.0625792444,0.0440701731,0.0063933730,-114.7823181152,72.6534881592,81.3763732910,0.0277612805,0.0630282760,0.0047565699,-11.3675527573,84.3375244141,176.1631164551,0.0229524374,0.0247634128,0.0266043544,42.5237121582,43.4046287537,146.3781890869,0.0631227493,-0.0111755133,-0.0057704449,
229.783,-3.3378472328,1.4025065899,26.2281169891,0.0635384172,0.0494170114,0.0054149032,-114.7818298340,72.6519546509,81.3816604614,0.0301946998,0.0547518134,0.0067180991,-11.3901109695,84.3361053467,176.1485137939,0.0209968686,0.0155297369,0.0246356726,42.5271339417,43.4044837952,146.3864135742,0.0665388703,-0.0082789361,-0.0062306523,
229.793,-3.3359453678,1.4014959335,26.2304439545,0.0684035942,0.0488956161,0.0122485757,-114.7768173218,72.6521148682,81.3893661499,0.0316603780,0.0572020113,0.0052284002,-11.3764438629,84.3372421265,176.1710205078,0.0249050856,0.0277094021,0.0246495605,42.5279998779,43.4043731689,146.3938446045,0.0655609369,-0.0097527504,-0.0067123175,
229.803,-3.3357458115,1.4021097422,26.2309608459,0.0576721169,0.0410796292,0.0019942522,-114.7682495117,72.6533432007,81.4017333984,0.0219011903,0.0606195927,0.0100619793,-11.3674221039,84.3384933472,176.1889343262,0.0253955126,0.0262247846,0.0217378139,42.5267295837,43.4036674500,146.3987884521,0.0679934025,-0.0160942674,-0.0067294836,
229.813,-3.3340315819,1.4034681320,26.2320632935,0.0596489422,0.0483739525,0.0073645115,-114.7561187744,72.6562271118,81.4178848267,0.0238692760,0.0601150393,0.0182851553,-11.3846921921,84.3398056030,176.1800689697,0.0200266838,0.0213674493,0.0246948004,42.5218315125,43.4027290344,146.4009246826,0.0621221066,-0.0150794983,0.0059155226,
229.823,-3.3340978622,1.4027173519,26.2319583893,0.0625655353,0.0400743484,0.0093173981,-114.7501525879,72.6576385498,81.4286346436,0.0253414512,0.0605941117,0.0114112496,-11.3813915253,84.3404006958,176.1902618408,0.0214925408,0.0316135213,0.0237278938,42.5206871033,43.3992576599,146.4055023193,0.0733085871,-0.0087492764,0.0029453039,
229.833,-3.3338139057,1.4043115377,26.2330112457,0.0591753796,0.0410459191,0.0181068182,-114.7455062866,72.6607055664,81.4397125244,0.0282871127,0.0576287210,0.0142975450,-11.3921957016,84.3400192261,176.1871490479,0.0263746977,0.0243091993,0.0276315808,42.5221061707,43.3996696472,146.4141540527,0.0635481477,-0.0126655102,-0.0038748384,
229.843,-3.3337149620,1.4028106928,26.2323722839,0.0630554408,0.0449504815,0.0127350092,-114.7443313599,72.6665649414,81.4469299316,0.0268527269,0.0614489019,0.0103451014,-11.4152431488,84.3387680054,176.1724395752,0.0239311457,0.0219117701,0.0300601721,42.5256423950,43.3993835449,146.4238433838,0.0694039464,-0.0122126341,-0.0087298155,
229.853,-3.3333992958,1.4025949240,26.2340888977,0.0610985495,0.0390856266,0.0102931857,-114.7305984497,72.6680374146,81.4688415527,0.0278369784,0.0585268736,0.0136876702,-11.4326810837,84.3395996094,176.1638946533,0.0234442949,0.0253570713,0.0237321854,42.5231971741,43.4011917114,146.4302215576,0.0581963658,-0.0160813332,0.0039603710,
229.863,-3.3323066235,1.3994528055,26.2359447479,0.0649499744,0.0439494774,0.0107791424,-114.7230300903,72.6695785522,81.4850616455,0.0288215280,0.0551020503,0.0107113123,-11.4674577713,84.3416748047,176.1374206543,0.0214947462,0.0263866149,0.0228021741,42.5213317871,43.3985214233,146.4367370605,0.0679281950,-0.0112026632,0.0058739781,
229.873,-3.3332901001,1.3974407911,26.2346858978,0.0644265860,0.0434783734,0.0049198270,-114.7056961060,72.6745529175,81.5083465576,0.0268942714,0.0579948723,0.0198719501,-11.4995346069,84.3420944214,176.1137237549,0.0239368677,0.0220459811,0.0218437314,42.5223731995,43.3973770142,146.4468688965,0.0635191202,-0.0063388944,0.0044078827,
229.883,-3.3338289261,1.3972147703,26.2363777161,0.0629578009,0.0405580774,0.0015023351,-114.7003021240,72.6759262085,81.5180130005,0.0273897052,0.0550557673,-0.0001825690,-11.5138454437,84.3435516357,176.1084747314,0.0200331211,0.0206009522,0.0223607421,42.5205612183,43.3959846497,146.4510345459,0.0664311647,-0.0146339834,-0.0009909868,
229.893,-3.3338024616,1.3986229897,26.2386341095,0.0620058067,0.0444638319,0.0112686157,-114.6880645752,72.6730194092,81.5338516235,0.0278628469,0.0517086387,0.0036857724,-11.5394306183,84.3461074829,176.0912933350,0.0288265944,0.0235659629,0.0146002173,42.5210266113,43.3961257935,146.4580383301,0.0683860779,-0.0107309520,-0.0029389858,
229.903,-3.3333544731,1.3989052773,26.2397823334,0.0590810478,0.0439677387,0.0058967471,-114.6837081909,72.6716842651,81.5409622192,0.0342035890,0.0639452636,0.0070922971,-11.5820426941,84.3473587036,176.0559082031,0.0244342089,0.0207055807,0.0204944611,42.5190696716,43.3978462219,146.4636535645,0.0640133619,-0.0131401420,0.0043836832,
229.913,-3.3341953754,1.3987796307,26.2414684296,0.0605436973,0.0351933278,0.0034564734,-114.6751708984,72.6690597534,81.5520706177,0.0337016582,0.0581435561,0.0153709054,-11.5819120407,84.3458404541,176.0625457764,0.0258964300,0.0226636752,0.0258402228,42.5152397156,43.3978805542,146.4675292969,0.0684082508,-0.0155454576,0.0019099712,
229.923,-3.3336787224,1.3997770548,26.2425956726,0.0566548519,0.0420202427,0.0083392262,-114.6809463501,72.6616363525,81.5513381958,0.0238974094,0.0543369055,0.0066608191,-11.5856866837,84.3423309326,176.0652618408,0.0239372849,0.0221934579,0.0277385712,42.5185432434,43.4014739990,146.4746704102,0.0665007830,-0.0116409361,-0.0141432881,
229.933,-3.3326399326,1.4007565975,26.2430915833,0.0586250685,0.0439552516,0.0049207211,-114.6847152710,72.6510772705,81.5525665283,0.0277487636,0.0530236661,0.0087049007,-11.5535135269,84.3403625488,176.1051330566,0.0234456062,0.0231216289,0.0345283747,42.5182456970,43.4036483765,146.4819641113,0.0675048828,-0.0130854547,-0.0072907805,
229.943,-3.3324790001,1.3996349573,26.2436199188,0.0639765859,0.0429759137,0.0088263750,-114.6925430298,72.6423492432,81.5490112305,0.0267267227,0.0521615446,0.0131973624,-11.5491333008,84.3381500244,176.1171722412,0.0263714790,0.0240979120,0.0281438828,42.5176353455,43.4033279419,146.4875335693,0.0665242672,-0.0086877644,-0.0082753897,
229.953,-3.3332571983,1.3962192535,26.2455120087,0.0634287149,0.0439661145,0.0019896626,-114.7094421387,72.6319503784,81.5368804932,0.0208131671,0.0576533973,0.0060254931,-11.5534524918,84.3399124146,176.1225585938,0.0234448314,0.0201933533,0.0218255520,42.5167999268,43.4044532776,146.4939727783,0.0709330440,-0.0116005838,-0.0102257729,
229.963,-3.3330194950,1.3980193138,26.2465782166,0.0585773103,0.0429853611,0.0220096707,-114.7116851807,72.6247863770,81.5371704102,0.0256586671,0.0572681129,0.0168281198,-11.5595340729,84.3413696289,176.1248626709,0.0195410848,0.0211751238,0.0267366767,42.5201377869,43.4045600891,146.5037994385,0.0650750399,-0.0096778274,-0.0038485527,
229.973,-3.3362934589,1.3990719318,26.2463073730,0.0649433285,0.0352298692,0.0122475028,-114.7223815918,72.6167373657,81.5285263062,0.0246401429,0.0602959394,0.0047277808,-11.5567808151,84.3439636230,176.1372375488,0.0200338364,0.0250687636,0.0228669643,42.5210762024,43.4034423828,146.5108489990,0.0718967915,-0.0092073679,-0.0043386221,
229.983,-3.3347735405,1.3989181519,26.2461128235,0.0668937713,0.0435041785,0.0088285804,-114.7197418213,72.6114959717,81.5324249268,0.0260776877,0.0618454218,0.0145172477,-11.5331878662,84.3439636230,176.1702728271,0.0239400864,0.0264922939,0.0243274570,42.5206909180,43.4030570984,146.5188903809,0.0674973726,-0.0116482973,-0.0058102608,
229.993,-3.3353116512,1.3991452456,26.2484703064,0.0595735162,0.0425369851,0.0073637366,-114.7093734741,72.6112747192,81.5447692871,0.0329124331,0.0648010969,0.0198406577,-11.5489139557,84.3457031250,176.1599426270,0.0229665041,0.0211424977,0.0165487528,42.5213317871,43.4032058716,146.5249633789,0.0645695925,-0.0072585344,-0.0004323721,
230.003,-3.3349730968,1.3990538120,26.2489967346,0.0605484843,0.0435076542,0.0141995549,-114.6981048584,72.6128540039,81.5597839355,0.0246198773,0.0589425862,0.0197761059,-11.5858755112,84.3491287231,176.1315460205,0.0215075612,0.0182648078,0.0161303878,42.5217323303,43.4052467346,146.5317077637,0.0655720234,-0.0096871257,-0.0067585111,
230.013,-3.3346283436,1.3978838921,26.2507457733,0.0644343197,0.0435016751,0.0098041892,-114.6810684204,72.6172180176,81.5822601318,0.0192715526,0.0633080602,0.0196648240,-11.5772867203,84.3516311646,176.1508331299,0.0273712277,0.0275187865,0.0195873380,42.5198440552,43.4036941528,146.5375366211,0.0684820414,-0.0111468434,0.0029771328,
230.023,-3.3362939358,1.3997843266,26.2518177032,0.0556784160,0.0386478268,0.0098065734,-114.6731872559,72.6240844727,81.5960845947,0.0217487812,0.0627333522,0.0088375807,-11.5997962952,84.3546447754,176.1354370117,0.0249350071,0.0265706740,0.0137858987,42.5245094299,43.4039611816,146.5466461182,0.0655557513,-0.0097234547,-0.0121170282,
230.033,-3.3358967304,1.3998854160,26.2529087067,0.0620278381,0.0415705889,0.0107827783,-114.6548309326,72.6324768066,81.6196899414,0.0310698748,0.0611818135,0.0150397420,-11.6097755432,84.3544006348,176.1343536377,0.0254228711,0.0251236409,0.0230637789,42.5258293152,43.4045410156,146.5539550781,0.0660513639,-0.0097311139,-0.0062412024,
230.043,-3.3377506733,1.3983290195,26.2552013397,0.0678600520,0.0401380807,0.0049247742,-114.6435165405,72.6414642334,81.6373825073,0.0233041644,0.0596058071,0.0115057826,-11.6116209030,84.3538818359,176.1397399902,0.0229805708,0.0207343996,0.0211006999,42.5274925232,43.4038352966,146.5625305176,0.0777611732,-0.0141469538,-0.0116043091,
230.053,-3.3397243023,1.3974401951,26.2551631927,0.0610086098,0.0440787338,0.0122505426,-114.6379547119,72.6517257690,81.6513900757,0.0297052264,0.0623928010,0.0084785819,-11.6201066971,84.3506622314,176.1389617920,0.0278578401,0.0232013725,0.0264214873,42.5334243774,43.4045944214,146.5732269287,0.0694699883,-0.0102899671,-0.0178944468,
230.063,-3.3388180733,1.3989535570,26.2561779022,0.0615232959,0.0411332250,0.0151799917,-114.6454315186,72.6635360718,81.6536026001,0.0346494913,0.0670807362,0.0108736753,-11.6199836731,84.3466720581,176.1473388672,0.0307806730,0.0237030387,0.0312381387,42.5334243774,43.4073677063,146.5803070068,0.0636458397,-0.0127089620,-0.0056634545,
230.073,-3.3399448395,1.4001671076,26.2566871643,0.0556850955,0.0406645350,0.0054160357,-114.6578979492,72.6693267822,81.6513519287,0.0234491229,0.0581773221,0.0050333142,-11.6240615845,84.3481597900,176.1528930664,0.0263887048,0.0222399719,0.0219877958,42.5356101990,43.4084358215,146.5902557373,0.0685421824,-0.0093026757,-0.0075876713,
230.083,-3.3404078484,1.4012153149,26.2578716278,0.0542385429,0.0450671092,0.0049284697,-114.6693649292,72.6773376465,81.6508255005,0.0259321332,0.0585200787,0.0123564601,-11.6373186111,84.3466720581,176.1492309570,0.0317572355,0.0212913416,0.0263622403,42.5377960205,43.4059333801,146.5988159180,0.0729049444,-0.0073903799,-0.0036854744,
230.093,-3.3411130905,1.4014205933,26.2590160370,0.0596132167,0.0441028215,0.0137184262,-114.6741333008,72.6799087524,81.6568832397,0.0239924192,0.0530996621,0.0148024559,-11.6154356003,84.3485412598,176.1812896729,0.0259010792,0.0251534842,0.0185732841,42.5391960144,43.4084014893,146.6062316895,0.0661002994,-0.0098247826,-0.0104868412,
230.103,-3.3418536186,1.4006379843,26.2607345581,0.0630175322,0.0397212096,0.0083478689,-114.6885452271,72.6811218262,81.6513137817,0.0249752998,0.0584206283,0.0041202307,-11.5679893494,84.3483657837,176.2381591797,0.0259007812,0.0280020870,0.0249014497,42.5415420532,43.4122505188,146.6160888672,0.0637077093,-0.0122568607,-0.0162922144,
230.113,-3.3426256180,1.3994247913,26.2618942261,0.0625080764,0.0416878089,0.0151841640,-114.6929550171,72.6828765869,81.6546020508,0.0220547318,0.0554554462,0.0085233450,-11.5564937592,84.3495483398,176.2604522705,0.0210199952,0.0255370885,0.0210093856,42.5408706665,43.4133415222,146.6238861084,0.0676278472,-0.0112652779,-0.0045701265,
230.123,-3.3440620899,1.4010834694,26.2629890442,0.0586307719,0.0480604507,0.0083503723,-114.6917648315,72.6847305298,81.6603164673,0.0249940157,0.0554299653,0.0177822113,-11.5557088852,84.3487167358,176.2690582275,0.0239482522,0.0196788274,0.0214858055,42.5394897461,43.4128379822,146.6301727295,0.0681096911,-0.0102798343,-0.0016559958,
230.133,-3.3452873230,1.4003806114,26.2641105652,0.0625247583,0.0402693115,0.0059095025,-114.6826248169,72.6875000000,81.6717834473,0.0240318179,0.0598026216,0.0201612115,-11.5410976410,84.3477401733,176.2937622070,0.0273645520,0.0269814432,0.0253691673,42.5369682312,43.4120292664,146.6359100342,0.0680994987,-0.0166105330,0.0007559061,
230.143,-3.3443925381,1.3996156454,26.2640419006,0.0625114143,0.0456248373,0.0063970089,-114.6781158447,72.6911544800,81.6799926758,0.0250273943,0.0558505654,0.0142551661,-11.5416345596,84.3461074829,176.3022460938,0.0234555006,0.0211285092,0.0224126577,42.5370788574,43.4123115540,146.6426696777,0.0720092654,-0.0146560669,-0.0060758591,
230.153,-3.3443043232,1.3989524841,26.2639389038,0.0620115586,0.0407405049,0.0024902225,-114.6760177612,72.6918716431,81.6857223511,0.0240545273,0.0558449328,0.0074042082,-11.5345401764,84.3438644409,176.3176422119,0.0210102201,0.0230771042,0.0316498280,42.5372390747,43.4136924744,146.6491394043,0.0632376671,-0.0092754364,-0.0016684532,
230.163,-3.3432092667,1.3972809315,26.2651500702,0.0614941120,0.0441394411,0.0020000935,-114.6752624512,72.6958999634,81.6932296753,0.0245637298,0.0635977387,0.0098141432,-11.5271453857,84.3438262939,176.3334045410,0.0219867229,0.0225761868,0.0262756348,42.5319290161,43.4142150879,146.6509094238,0.0695919991,-0.0175222158,0.0041502714,
230.173,-3.3418624401,1.3965140581,26.2668399811,0.0648986995,0.0406980254,0.0029750466,-114.6812438965,72.6988220215,81.6933059692,0.0250672102,0.0591462255,0.0054276586,-11.5143013000,84.3437576294,176.3556823730,0.0239397287,0.0289020538,0.0204100609,42.5314521790,43.4131431580,146.6569213867,0.0725080967,-0.0062959790,0.0036485195,
230.183,-3.3417856693,1.3967531919,26.2673988342,0.0570903718,0.0426498130,0.0098110437,-114.6668319702,72.6992568970,81.7145309448,0.0231163502,0.0523349941,0.0195165873,-11.4906196594,84.3437576294,176.3858337402,0.0171037912,0.0254430510,0.0233327150,42.5310058594,43.4139404297,146.6614685059,0.0759361386,-0.0131213665,-0.0026959181,
230.193,-3.3442716599,1.3973436356,26.2679367065,0.0556358323,0.0402516909,0.0024895668,-114.6664352417,72.7011413574,81.7233200073,0.0221495628,0.0557252169,0.0097359419,-11.4809923172,84.3441696167,176.4043579102,0.0175927877,0.0259133913,0.0213828087,42.5311775208,43.4122314453,146.6689300537,0.0695668459,-0.0043476820,-0.0041743517,
230.203,-3.3452329636,1.3975840807,26.2678375244,0.0590579957,0.0412449911,0.0083501339,-114.6592025757,72.7024383545,81.7376861572,0.0231328011,0.0537682474,0.0121341944,-11.4865961075,84.3407440186,176.4059906006,0.0249111056,0.0176338702,0.0340228081,42.5293731689,43.4146804810,146.6748046875,0.0549494624,-0.0111469924,0.0026676655,
230.213,-3.3466897011,1.3950192928,26.2684230804,0.0643843412,0.0417587124,-0.0004385710,-114.6426162720,72.7024917603,81.7604675293,0.0231330991,0.0547798574,0.0140084624,-11.4797773361,84.3402557373,176.4200134277,0.0249102712,0.0195769556,0.0252230167,42.5306892395,43.4152946472,146.6797637939,0.0632580519,-0.0077362657,0.0017079115,
230.223,-3.3472731113,1.3957700729,26.2702312469,0.0556083769,0.0466516651,0.0117689371,-114.6192016602,72.7033386230,81.7878189087,0.0246023536,0.0577473938,0.0153567195,-11.4718246460,84.3419952393,176.4356231689,0.0268663764,0.0278580263,0.0218317509,42.5332527161,43.4153862000,146.6870880127,0.0657005906,-0.0077594817,-0.0041287541,
230.233,-3.3484807014,1.3953711987,26.2713298798,0.0614607893,0.0403250530,0.0059112310,-114.5852355957,72.7074737549,81.8242874146,0.0172995925,0.0582469106,0.0171201825,-11.4709005356,84.3437194824,176.4454345703,0.0224748254,0.0258975588,0.0243012309,42.5358467102,43.4146537781,146.6965637207,0.0622733831,-0.0087662339,-0.0036246181,
230.243,-3.3461520672,1.3936750889,26.2737140656,0.0663140118,0.0461439081,0.0073720813,-114.5396575928,72.7103958130,81.8697814941,0.0251272321,0.0587890744,0.0227437019,-11.5053539276,84.3467407227,176.4212493896,0.0293159485,0.0215519257,0.0165525675,42.5333442688,43.4137687683,146.7003173828,0.0637269616,-0.0092383027,0.0036702156,
230.253,-3.3463647366,1.3924608231,26.2760944366,0.0623865724,0.0437062420,0.0049310923,-114.4999618530,72.7131347656,81.9110565186,0.0241649151,0.0598098934,0.0161891580,-11.5151205063,84.3499298096,176.4192047119,0.0249269009,0.0269294158,0.0166067481,42.5331573486,43.4154663086,146.7082824707,0.0613070726,-0.0170353055,-0.0051054955,
230.263,-3.3479974270,1.3917062283,26.2772483826,0.0609085634,0.0408050045,0.0156745911,-114.4681091309,72.7182159424,81.9470596313,0.0300506353,0.0622434616,0.0130736232,-11.5308122635,84.3504104614,176.4118194580,0.0259042978,0.0235363469,0.0219941735,42.5329284668,43.4116477966,146.7146911621,0.0749305487,-0.0102282166,-0.0046528578,
230.273,-3.3484170437,1.3902267218,26.2801494598,0.0677186847,0.0408123620,0.0049322844,-114.4492111206,72.7221298218,81.9704971313,0.0334888697,0.0627132058,0.0085626841,-11.5502014160,84.3488922119,176.4002075195,0.0249251127,0.0225991532,0.0297831893,42.5305252075,43.4116554260,146.7185058594,0.0676064491,-0.0150884986,-0.0032084584,
230.283,-3.3482604027,1.3894227743,26.2818908691,0.0652632564,0.0471573025,0.0088376999,-114.4238357544,72.7285461426,82.0007553101,0.0315690041,0.0651115477,0.0162109733,-11.5538206100,84.3504486084,176.4049835205,0.0215098262,0.0221111961,0.0176070333,42.5308418274,43.4104232788,146.7256011963,0.0666142106,-0.0107068419,-0.0056580305,
230.293,-3.3475785255,1.3917372227,26.2823314667,0.0560262911,0.0427508354,0.0024905801,-114.4152908325,72.7322769165,82.0154647827,0.0296351910,0.0606795549,0.0058909059,-11.5533866882,84.3529815674,176.4144897461,0.0239555836,0.0221019611,0.0152068138,42.5265998840,43.4116744995,146.7304534912,0.0680949688,-0.0135867596,0.0075003505,
230.303,-3.3463304043,1.3930354118,26.2828426361,0.0580020659,0.0466353148,0.0200679898,-114.3975982666,72.7377548218,82.0433883667,0.0252690315,0.0596576631,0.0140703321,-11.5412693024,84.3537826538,176.4354553223,0.0220038295,0.0269613303,0.0240043998,42.5278854370,43.4104347229,146.7361145020,0.0700323582,-0.0111674070,-0.0110542774,
230.313,-3.3473885059,1.3922039270,26.2833938599,0.0609172434,0.0407943912,0.0117675066,-114.3833541870,72.7409057617,82.0653152466,0.0233322382,0.0586642325,0.0047038794,-11.5530366898,84.3533630371,176.4346771240,0.0234679580,0.0167289600,0.0240023136,42.5264625549,43.4116706848,146.7422027588,0.0695596933,-0.0145621002,-0.0027548075,
230.323,-3.3489019871,1.3917747736,26.2857971191,0.0574917905,0.0413090512,0.0044448376,-114.3662567139,72.7482147217,82.0916061401,0.0209286809,0.0610304177,0.0104323626,-11.5598030090,84.3506240845,176.4381866455,0.0249280930,0.0187031105,0.0298179984,42.5237236023,43.4135780334,146.7475280762,0.0612831116,-0.0125678778,0.0006564856,
230.333,-3.3489646912,1.3957482576,26.2867565155,0.0570728406,0.0442397259,0.0122591257,-114.3218994141,72.7539443970,82.1426925659,0.0258411169,0.0527384579,0.0233667493,-11.5497407913,84.3500289917,176.4565887451,0.0278567672,0.0230822936,0.0254102945,42.5237846375,43.4120025635,146.7541198730,0.0695639849,-0.0101398230,-0.0057045221,
230.343,-3.3512928486,1.3930348158,26.2873477936,0.0653262734,0.0428155027,0.0103072524,-114.2679367065,72.7593841553,82.2027206421,0.0253810287,0.0503292382,0.0186797380,-11.5609970093,84.3507995605,176.4555511475,0.0229752660,0.0216340721,0.0264045596,42.5262489319,43.4123802185,146.7631683350,0.0637093782,-0.0086949468,-0.0047036409,
230.353,-3.3521537781,1.3944662809,26.2884273529,0.0594918765,0.0457601510,0.0103087425,-114.2074508667,72.7670135498,82.2662200928,0.0254204869,0.0557136834,0.0163882971,-11.5898313522,84.3509674072,176.4356536865,0.0239521265,0.0231482238,0.0273925066,42.5265655518,43.4130477905,146.7706298828,0.0666475296,-0.0130870342,-0.0105545521,
230.363,-3.3508899212,1.3951745033,26.2901515961,0.0599925146,0.0467146859,0.0098195076,-114.1387557983,72.7801055908,82.3352584839,0.0303709507,0.0571252108,0.0149976015,-11.6187505722,84.3502426147,176.4170837402,0.0273688436,0.0168524384,0.0229982734,42.5275459290,43.4116744995,146.7770996094,0.0690715313,-0.0077362061,-0.0056750774,
230.373,-3.3515133858,1.3972002268,26.2906322479,0.0551450476,0.0423309617,0.0107975602,-114.0660247803,72.8012847900,82.4053192139,0.0314568877,0.0696528256,0.0145096779,-11.6344804764,84.3506622314,176.4078979492,0.0244398713,0.0227376930,0.0230094194,42.5215034485,43.4114799500,146.7789611816,0.0636979342,-0.0164704919,0.0025715232,
230.383,-3.3507626057,1.3967407942,26.2917175293,0.0658792183,0.0472007059,0.0039609671,-113.9920349121,72.8319091797,82.4789352417,0.0228257179,0.0727615952,0.0193238854,-11.6505069733,84.3498229980,176.3996429443,0.0229735970,0.0222797878,0.0249545574,42.5187759399,43.4082450867,146.7833862305,0.0748873949,-0.0081703067,0.0010554790,
230.393,-3.3498985767,1.3948173523,26.2934608459,0.0668222159,0.0432794504,0.0034705997,-113.9239807129,72.8683776855,82.5509872437,0.0264313817,0.0738143921,0.0177798271,-11.6534032822,84.3496475220,176.4050445557,0.0239498615,0.0252151527,0.0195811391,42.5167350769,43.4063949585,146.7879791260,0.0724225640,-0.0106076002,-0.0053261518,
230.403,-3.3483657837,1.3928673267,26.2940711975,0.0623936653,0.0456942096,0.0034683943,-113.8513488770,72.9062500000,82.6320571899,0.0290672779,0.0689945817,0.0176708102,-11.6516647339,84.3487167358,176.4150848389,0.0249248147,0.0242386647,0.0283547044,42.5151863098,43.4061508179,146.7945709229,0.0665600300,-0.0091302991,-0.0019236803,
230.413,-3.3474912643,1.3941098452,26.2951660156,0.0580208153,0.0432375409,0.0107922554,-113.7815551758,72.9439697266,82.7163696289,0.0253543258,0.0622179806,0.0175773501,-11.6497430801,84.3514556885,176.4272003174,0.0239529610,0.0252028592,0.0191203952,42.5107116699,43.4031944275,146.7983703613,0.0718936920,-0.0115537643,-0.0019881725,
230.423,-3.3468883038,1.3948918581,26.2956790924,0.0594993010,0.0466449857,0.0103036761,-113.7050933838,72.9794998169,82.8107452393,0.0230946541,0.0574394166,0.0150270462,-11.6159992218,84.3535385132,176.4716033936,0.0239565372,0.0295318738,0.0186567307,42.5094299316,43.4012947083,146.8050384521,0.0689399242,-0.0081391931,0.0018903613,
230.433,-3.3450589180,1.3946087360,26.2962570190,0.0590060800,0.0466131344,0.0122549534,-113.6235885620,73.0105667114,82.9155502319,0.0335071087,0.0522506535,0.0129721165,-11.6201229095,84.3511428833,176.4800567627,0.0278586745,0.0227112323,0.0327784419,42.5061454773,43.3985061646,146.8089141846,0.0684162378,-0.0061780214,0.0003725290,
230.443,-3.3450968266,1.3952248096,26.2979984283,0.0580402687,0.0422192402,0.0059071779,-113.5077209473,73.0334548950,83.0535583496,0.0341120362,0.0453017354,0.0176478624,-11.6158399582,84.3529815674,176.4969787598,0.0244438648,0.0241626017,0.0201112628,42.5053291321,43.3996925354,146.8176727295,0.0630601645,-0.0115318894,-0.0035301447,
230.453,-3.3460958004,1.3951709270,26.2985572815,0.0580393262,0.0432132147,0.0073732734,-113.3618698120,73.0527114868,83.2159042358,0.0322569609,0.0409091711,0.0241608620,-11.6512050629,84.3540954590,176.4743347168,0.0249340534,0.0208016559,0.0216069818,42.5056838989,43.3989105225,146.8273620605,0.0669565201,-0.0086117983,-0.0079284906,
230.463,-3.3460218906,1.3939603567,26.3002719879,0.0668072701,0.0446767993,0.0117673278,-113.2006683350,73.0738067627,83.3846282959,0.0274813771,0.0521411002,0.0213134289,-11.6795768738,84.3570098877,176.4575195313,0.0273804665,0.0198635235,0.0133666992,42.5032958984,43.3954505920,146.8343505859,0.0747251511,-0.0125237703,0.0017858744,
230.473,-3.3450253010,1.3940209150,26.3001918793,0.0599723868,0.0436828695,0.0166491270,-113.0189208984,73.0971298218,83.5662384033,0.0305294991,0.0575176775,0.0193327069,-11.6980428696,84.3523635864,176.4491577148,0.0190716982,0.0238178931,0.0342898369,42.5026473999,43.3963813782,146.8426208496,0.0693658590,-0.0169046521,-0.0128596425,
230.483,-3.3439493179,1.3939452171,26.3019523621,0.0604593456,0.0461055376,0.0059058666,-112.8440933228,73.1287231445,83.7378234863,0.0262951255,0.0598213673,0.0095193982,-11.7184553146,84.3548507690,176.4382629395,0.0205408335,0.0257971920,0.0201802254,42.5025062561,43.3965034485,146.8513031006,0.0669260025,-0.0110429525,0.0003238916,
230.493,-3.3441257477,1.3924436569,26.3031826019,0.0609214306,0.0461086482,0.0024870634,-112.6753158569,73.1687088013,83.9057312012,0.0240560770,0.0693029761,0.0104246736,-11.7494029999,84.3567352295,176.4154510498,0.0234737396,0.0317034237,0.0172920227,42.5020141602,43.3954391479,146.8574066162,0.0649594069,-0.0125117898,-0.0026193857,
230.503,-3.3445138931,1.3925429583,26.3018283844,0.0614114404,0.0412325934,0.0073706508,-112.5182113647,73.2112274170,84.0655517578,0.0213409662,0.0699306726,0.0074646473,-11.7705755234,84.3570480347,176.4031829834,0.0224977136,0.0258793533,0.0231640339,42.5045280457,43.3930053711,146.8661346436,0.0668816566,-0.0115785003,-0.0055492520,
230.513,-3.3453440666,1.3909398317,26.3023815155,0.0633365959,0.0417353734,0.0039523840,-112.3707275391,73.2506637573,84.2223510742,0.0278872252,0.0676537156,0.0050600767,-11.8087892532,84.3565979004,176.3749694824,0.0205438137,0.0283880271,0.0290292501,42.5052566528,43.3885803223,146.8738098145,0.0653606653,-0.0125976801,-0.0036289096,
230.523,-3.3466608524,1.3924281597,26.3046283722,0.0594563149,0.0398051515,0.0078612566,-112.2231369019,73.2903518677,84.3810577393,0.0232037902,0.0629293919,0.0124213696,-11.8853950500,84.3597946167,176.3109741211,0.0156664848,0.0250904076,0.0212975740,42.5111007690,43.3831748962,146.8884735107,0.0657804012,-0.0092782378,-0.0021617413,
230.533,-3.3468296528,1.3945460320,26.3056926727,0.0570518598,0.0417611562,0.0093262792,-112.0734100342,73.3257751465,84.5428009033,0.0321704745,0.0572946370,0.0144307017,-11.9818000793,84.3641052246,176.2284393311,0.0225098133,0.0237758644,0.0155445933,42.5151824951,43.3769569397,146.9003753662,0.0657015443,-0.0108315349,-0.0046230555,
230.543,-3.3477265835,1.3949754238,26.3073730469,0.0609656051,0.0412884913,0.0098164082,-111.9162063599,73.3540267944,84.7072830200,0.0342649221,0.0493404865,0.0096161962,-12.0464468002,84.3638916016,176.1750946045,0.0234860182,0.0263290256,0.0282588601,42.5146751404,43.3752708435,146.9078826904,0.0642152429,-0.0152350068,-0.0031776428,
230.553,-3.3455660343,1.3968600035,26.3071918488,0.0595336407,0.0436922237,0.0024903417,-111.7367630005,73.3770065308,84.8892593384,0.0441453457,0.0502947569,0.0091267824,-12.1024942398,84.3679275513,176.1292572021,0.0215398073,0.0234809890,0.0190692544,42.5135574341,43.3728256226,146.9150085449,0.0710202456,-0.0128028989,-0.0022320747,
230.563,-3.3439095020,1.3952752352,26.3078403473,0.0590177104,0.0461048111,0.0044414997,-111.5330505371,73.3994827271,85.0920791626,0.0393747091,0.0532512367,0.0182942748,-12.1624326706,84.3651809692,176.0790863037,0.0342304111,0.0152925290,0.0224644542,42.5146369934,43.3722457886,146.9217529297,0.0705245733,-0.0137942731,-0.0075989962,
230.573,-3.3434584141,1.3974267244,26.3095016479,0.0571021251,0.0417023674,0.0107894540,-111.3055038452,73.4215316772,85.3204574585,0.0365548730,0.0596714318,0.0195420384,-12.1809902191,84.3676452637,176.0694885254,0.0264221430,0.0241046548,0.0200703144,42.5087242126,43.3732681274,146.9245452881,0.0705375671,-0.0112892687,-0.0008048415,
230.583,-3.3428716660,1.3991675377,26.3094043732,0.0561559349,0.0465749167,0.0151841640,-111.0569686890,73.4448165894,85.5705490112,0.0288582444,0.0636633337,0.0231270790,-12.1831893921,84.3677825928,176.0775146484,0.0269106627,0.0221548155,0.0225147605,42.5079650879,43.3747367859,146.9299774170,0.0656733513,-0.0083405972,-0.0076344013,
230.593,-3.3430929184,1.3969057798,26.3106174469,0.0619758479,0.0392546095,0.0176250935,-110.8015365601,73.4624176025,85.8288879395,0.0289457440,0.0545654595,0.0130429864,-12.1680650711,84.3698425293,176.1040191650,0.0254493356,0.0255394876,0.0240083337,42.5093994141,43.3746109009,146.9378662109,0.0656717420,-0.0024956465,-0.0046932101,
230.603,-3.3409950733,1.3957250118,26.3110923767,0.0663497746,0.0411712192,0.0093215704,-110.5439529419,73.4751052856,86.0895996094,0.0246142149,0.0528667569,0.0107904673,-12.2060003281,84.3704299927,176.0775604248,0.0283800364,0.0192547478,0.0289143324,42.5135383606,43.3758659363,146.9499816895,0.0681290627,-0.0098484159,-0.0070881844,
230.613,-3.3421957493,1.3948100805,26.3110084534,0.0609627143,0.0382624716,0.0083457828,-110.2946090698,73.4867553711,86.3454971313,0.0246720314,0.0609290898,0.0051643848,-12.2457380295,84.3748550415,176.0491638184,0.0220399499,0.0276074558,0.0167961121,42.5197296143,43.3740959167,146.9613647461,0.0622472763,-0.0035729408,-0.0133983493,
230.623,-3.3432006836,1.3937335014,26.3115348816,0.0638736263,0.0431628115,0.0102993846,-110.0462265015,73.4972229004,86.6015090942,0.0340012908,0.0602141023,0.0068734884,-12.3399095535,84.3770141602,175.9683074951,0.0137428641,0.0209247284,0.0237025023,42.5184440613,43.3700065613,146.9705657959,0.0651250482,-0.0123832226,0.0007146597,
230.633,-3.3429248333,1.3942296505,26.3113975525,0.0624174401,0.0455994010,0.0073696375,-109.8113784790,73.5034866333,86.8442001343,0.0271964073,0.0507472754,0.0081807971,-12.4316396713,84.3779907227,175.8909454346,0.0288812518,0.0254724361,0.0237529874,42.5212287903,43.3671455383,146.9846343994,0.0646004677,-0.0153619945,-0.0031929612,
230.643,-3.3429718018,1.3923789263,26.3131999969,0.0623851418,0.0421822965,0.0059041977,-109.5981903076,73.5101776123,87.0634841919,0.0409014225,0.0534400642,0.0032389164,-12.5377063751,84.3820343018,175.7957611084,0.0220522285,0.0217323638,0.0194653869,42.5249519348,43.3615989685,146.9978332520,0.0669715405,-0.0076292753,-0.0051631927,
230.653,-3.3416013718,1.3914843798,26.3155555725,0.0638343841,0.0426467247,0.0161558986,-109.3744735718,73.5142135620,87.2819595337,0.0433628559,0.0508168340,0.0060741901,-12.6371021271,84.3818283081,175.7097930908,0.0283995271,0.0155550316,0.0248705745,42.5240020752,43.3569602966,147.0055694580,0.0717954636,-0.0164470673,0.0035768151,
230.663,-3.3416817188,1.3928580284,26.3166065216,0.0575106889,0.0377652831,0.0093212724,-109.1240539551,73.5227050781,87.5173568726,0.0473111272,0.0613462627,0.0185245872,-12.6891927719,84.3831176758,175.6674957275,0.0254720449,0.0166155696,0.0151465535,42.5212440491,43.3542175293,147.0106658936,0.0688309669,-0.0125371814,-0.0003773570,
230.673,-3.3414602280,1.3959872723,26.3164215088,0.0575652905,0.0475269742,0.0098096728,-108.8613433838,73.5371475220,87.7632369995,0.0444529057,0.0649602413,0.0177008510,-12.6822242737,84.3807449341,175.6822662354,0.0259562731,0.0205187164,0.0229173899,42.5147895813,43.3539199829,147.0122680664,0.0737099648,-0.0154089034,0.0010294914,
230.683,-3.3435723782,1.3988914490,26.3179874420,0.0585925281,0.0392629057,0.0059075356,-108.6055221558,73.5511016846,88.0065078735,0.0401273370,0.0666108727,0.0081232190,-12.6437673569,84.3790359497,175.7278747559,0.0259533525,0.0229011364,0.0233613253,42.5144500732,43.3562622070,147.0171966553,0.0752046108,-0.0109921098,-0.0116478205,
230.693,-3.3436887264,1.3992990255,26.3185214996,0.0585996360,0.0441477410,0.0083491206,-108.3283157349,73.5661773682,88.2766494751,0.0402018428,0.0672944486,0.0213884711,-12.6127986908,84.3815765381,175.7647247314,0.0235162973,0.0252798758,0.0189992785,42.5104408264,43.3580207825,147.0186462402,0.0776683092,-0.0138701797,-0.0062956810,
230.703,-3.3429787159,1.3991333246,26.3209133148,0.0610381514,0.0490181856,0.0098131895,-108.0639877319,73.5786361694,88.5407791138,0.0275680423,0.0675048232,0.0161733627,-12.5853691101,84.3814773560,175.7998352051,0.0161918998,0.0247456245,0.0292387605,42.5101051331,43.3589553833,147.0235137939,0.0644965172,-0.0070235133,-0.0033606291,
