Time(sec),Gyr1_X(deg/sec),Gyr1_Y(deg/sec),Gyr1_Z(deg/sec),Acc1_X(m/s^2),Acc1_Y(m/s^2),Acc1_Z(m/s^2),Gyr2_X(deg/sec),Gyr2_Y(deg/sec),Gyr2_Z(deg/sec),Acc2_X(m/s^2),Acc2_Y(m/s^2),Acc2_Z(m/s^2),Gyr_X(deg/sec),Gyr_Y(deg/sec),Gyr_Z(deg/sec),Acc_X(m/s^2),Acc_Y(m/s^2),Acc_Z(m/s^2),Gyr_X(deg/sec),Gyr_Y(deg/sec),Gyr_Z(deg/sec),Acc_X(m/s^2),Acc_Y(m/s^2),Acc_Z(m/s^2),
137.663,-3.2892606258,1.4073051214,15.5511188507,0.0626455769,0.0412463397,0.0117151737,-113.9617767334,72.5142059326,61.8827667236,0.0241039991,0.0703245997,0.0125357509,-11.0142374039,84.2979278564,103.3734512329,0.0233722925,0.0218402743,0.0268003345,42.4965553284,43.3624572754,86.5001068115,0.0650292635,-0.0151691139,-0.0049108267,
137.673,-3.2888951302,1.4079290628,15.5534276962,0.0626564622,0.0456344932,0.0126923919,-113.9737777710,72.5188293457,61.8749885559,0.0226633549,0.0716938674,0.0062146187,-10.9863605499,84.2974472046,103.4088821411,0.0214183331,0.0291173756,0.0267840028,42.4964485168,43.3636360168,86.5071563721,0.0621145368,-0.0092993081,-0.0014837980,
137.683,-3.2876660824,1.4081900120,15.5546417236,0.0572899282,0.0465896353,0.0146439075,-113.9817504883,72.5214462280,61.8718605042,0.0212122798,0.0652888417,0.0120946169,-10.9758281708,84.2966156006,103.4289474487,0.0223934650,0.0256837010,0.0248138309,42.4971923828,43.3662910461,86.5136032104,0.0606833100,-0.0117261410,-0.0043832064,
137.693,-3.2862563133,1.4069234133,15.5565233231,0.0582443848,0.0451002717,0.0073179007,-113.9906158447,72.5254058838,61.8686981201,0.0231861472,0.0739992559,0.0140636563,-10.9657039642,84.2964477539,103.4468002319,0.0292291045,0.0232251585,0.0257845521,42.4992675781,43.3674621582,86.5220413208,0.0660693049,-0.0117360651,-0.0082614422,
137.703,-3.2838037014,1.4066770077,15.5571126938,0.0587283671,0.0445692688,0.0078035593,-114.0000610352,72.5288696289,61.8663063049,0.0256457329,0.0685553551,0.0101793408,-10.9640464783,84.2956542969,103.4568710327,0.0223917961,0.0222483277,0.0262586474,42.4976768494,43.3662719727,86.5258789063,0.0724018812,-0.0088011324,-0.0058441162,
137.713,-3.2835662365,1.4068653584,15.5588750839,0.0597082153,0.0431002825,0.0112214684,-114.0055618286,72.5312194824,61.8673782349,0.0241931677,0.0694851279,0.0116546750,-10.9565858841,84.2949066162,103.4738235474,0.0228787661,0.0246791244,0.0242908001,42.4928474426,43.3647880554,86.5278472900,0.0621291399,-0.0107210577,0.0053318739,
137.723,-3.2804324627,1.4083478451,15.5606794357,0.0553395525,0.0489050373,0.0170780420,-114.0148315430,72.5343017578,61.8642997742,0.0256741643,0.0699059367,0.0048425794,-10.9495401382,84.2967529297,103.4893646240,0.0233702660,0.0236842334,0.0155307055,42.4901390076,43.3662719727,86.5318756104,0.0631245375,-0.0160548091,-0.0054204464,
137.733,-3.2817187309,1.4088608027,15.5624637604,0.0563250631,0.0420914888,0.0082910657,-114.0245513916,72.5371017456,61.8600654602,0.0339896083,0.0688678026,0.0082880855,-10.9556198120,84.2955856323,103.4910049438,0.0214151144,0.0212572515,0.0291848183,42.4899063110,43.3660278320,86.5386428833,0.0665394068,-0.0087303817,-0.0054247379,
137.743,-3.2807855606,1.4077738523,15.5648918152,0.0621654764,0.0454932339,0.0112187266,-114.0179367065,72.5378875732,61.8690261841,0.0266695023,0.0620329380,0.0175285935,-10.9375028610,84.2979278564,103.5182495117,0.0258136988,0.0217064619,0.0228700638,42.4934196472,43.3679733276,86.5480651855,0.0646110177,-0.0107005835,-0.0122133493,
137.753,-3.2823824883,1.4073091745,15.5666351318,0.0616690852,0.0411265306,0.0019432306,-114.0220947266,72.5391387939,61.8691596985,0.0213049650,0.0659112930,0.0067978501,-10.9393768311,84.2967529297,103.5241394043,0.0243468285,0.0226900578,0.0248041749,42.4954681396,43.3706169128,86.5570602417,0.0636679530,-0.0102101266,-0.0038714409,
137.763,-3.2829506397,1.4060769081,15.5684490204,0.0626241490,0.0445544273,0.0131733418,-114.0160980225,72.5423278809,61.8808975220,0.0237630606,0.0717352927,0.0209077001,-10.9348793030,84.2972412109,103.5364761353,0.0253242254,0.0217042267,0.0218805075,42.4962806702,43.3705177307,86.5654678345,0.0670846105,-0.0082654357,-0.0043536425,
137.773,-3.2809736729,1.4074231386,15.5683259964,0.0597179495,0.0450082310,0.0156140327,-114.0332412720,72.5433502197,61.8691558838,0.0247449875,0.0668002367,0.0019399524,-10.9247436523,84.3006057739,103.5556716919,0.0238652229,0.0299767852,0.0194901228,42.4947738647,43.3713607788,86.5700836182,0.0661187768,-0.0145921409,-0.0009410381,
137.783,-3.2805790901,1.4074207544,15.5694751740,0.0602061898,0.0415833965,0.0097533464,-114.0296630859,72.5467529297,61.8765182495,0.0276924968,0.0667562187,0.0175247788,-10.9162893295,84.2999267578,103.5716247559,0.0238640308,0.0265460014,0.0277786255,42.4950866699,43.3731460571,86.5762634277,0.0627235174,-0.0140923560,-0.0053170919,
137.793,-3.2816836834,1.4040570259,15.5725507736,0.0660068691,0.0425792821,0.0117067099,-114.0367050171,72.5474548340,61.8730010986,0.0218367577,0.0657543838,0.0068117380,-10.9118671417,84.2994384766,103.5849761963,0.0233749151,0.0236101151,0.0272812247,42.4969062805,43.3713455200,86.5828247070,0.0666068792,-0.0102177262,-0.0053178668,
137.803,-3.2829885483,1.4014451504,15.5719404221,0.0649847388,0.0421137884,0.0170779824,-114.0495605469,72.5483703613,61.8644294739,0.0267243981,0.0676660538,0.0029608607,-10.9207954407,84.3018417358,103.5846023560,0.0145900249,0.0206882358,0.0243943930,42.4971618652,43.3722343445,86.5885467529,0.0632002354,-0.0126541853,-0.0014008880,
137.813,-3.2854604721,1.4009311199,15.5730371475,0.0639992058,0.0402037390,0.0058498383,-114.0517044067,72.5492477417,61.8663902283,0.0262407064,0.0671598017,0.0107776523,-10.9280366898,84.3021926880,103.5851821899,0.0228914022,0.0197232366,0.0239139199,42.4966201782,43.3730125427,86.5949020386,0.0632100701,-0.0136195123,-0.0023757219,
137.823,-3.2875978947,1.4004040956,15.5741243362,0.0639900118,0.0392644182,0.0043865442,-114.0531234741,72.5522994995,61.8716278076,0.0223504305,0.0695520639,0.0122287273,-10.9289760590,84.3021926880,103.5920562744,0.0253328085,0.0216779411,0.0229380131,42.4933929443,43.3728218079,86.5995864868,0.0715084076,-0.0150556862,-0.0019167662,
137.833,-3.2870693207,1.4007501602,15.5752820969,0.0591132380,0.0441380218,0.0136637688,-114.0522460938,72.5543289185,61.8755493164,0.0248024464,0.0612218678,0.0141640306,-10.9220075607,84.3037033081,103.6080322266,0.0199643373,0.0236141980,0.0214954615,42.4927406311,43.3712120056,86.6039505005,0.0734411478,-0.0067618489,-0.0034012794,
137.843,-3.2855644226,1.3999557495,15.5758781433,0.0605642200,0.0455766656,0.0053610802,-114.0524749756,72.5558624268,61.8809700012,0.0228573084,0.0690111816,0.0102483630,-10.9317483902,84.3024673462,103.6066818237,0.0233801603,0.0202170610,0.0288027525,42.4898910522,43.3725547791,86.6087722778,0.0646691322,-0.0145367682,0.0009807348,
137.853,-3.2873818874,1.4006713629,15.5775537491,0.0600884259,0.0358426832,0.0136640072,-114.0538253784,72.5582733154,61.8855056763,0.0292176008,0.0694595873,0.0136564374,-10.9339256287,84.3041839600,103.6128540039,0.0233831406,0.0246097744,0.0195552111,42.4892959595,43.3712921143,86.6142807007,0.0690476298,-0.0106351674,-0.0068479776,
137.863,-3.2881529331,1.3998005390,15.5780687332,0.0630029142,0.0397623852,0.0063402653,-114.0591964722,72.5596313477,61.8869743347,0.0272715688,0.0669861734,0.0068370700,-10.9374380112,84.3035659790,103.6177291870,0.0263117552,0.0226647556,0.0268701911,42.4894638062,43.3730087280,86.6210784912,0.0632100105,-0.0125759840,-0.0039017200,
137.873,-3.2851824760,1.3993823528,15.5792608261,0.0615307800,0.0484997183,0.0058484674,-114.0660781860,72.5620727539,61.8846473694,0.0326554775,0.0688879490,0.0117362738,-10.9358959198,84.3032226563,103.6251678467,0.0282642841,0.0216864944,0.0278412104,42.4900245667,43.3742446899,86.6275329590,0.0622491241,-0.0081767440,-0.0033978224,
137.883,-3.2861700058,1.3999141455,15.5803756714,0.0605634935,0.0431458130,0.0121976137,-114.0709228516,72.5632324219,61.8863868713,0.0243607163,0.0698362291,0.0107752085,-10.9224843979,84.3037796021,103.6488723755,0.0209410191,0.0255680680,0.0254020095,42.4882431030,43.3743438721,86.6342468262,0.0598089695,-0.0106006265,0.0112363100,
137.893,-3.2857289314,1.4005496502,15.5784521103,0.0595980175,0.0441146679,0.0126858950,-114.0728759766,72.5654983521,61.8897132874,0.0248608589,0.0663796961,0.0117458105,-10.9160175323,84.3061828613,103.6642913818,0.0243631601,0.0240838826,0.0195828080,42.4893035889,43.3780708313,86.6395492554,0.0627859831,-0.0139983594,-0.0102064013,
137.903,-3.2848329544,1.4004491568,15.5820426941,0.0610611103,0.0431225076,0.0102430582,-114.0879287720,72.5653839111,61.8809432983,0.0248602629,0.0683023930,0.0010763407,-10.9247207642,84.3054885864,103.6633682251,0.0224088430,0.0206832588,0.0293398499,42.4882354736,43.3779563904,86.6474151611,0.0657141805,-0.0115478337,-0.0019155741,
137.913,-3.2827072144,1.4009958506,15.5856590271,0.0586292446,0.0474799946,0.0053586960,-114.0989303589,72.5663146973,61.8760375977,0.0307245255,0.0711944699,0.0069820881,-10.9175071716,84.3029861450,103.6789169312,0.0243576169,0.0250737071,0.0302698016,42.4875335693,43.3784103394,86.6525802612,0.0657199621,-0.0115376115,-0.0004525185,
137.923,-3.2826879025,1.3991843462,15.5862331390,0.0639687330,0.0425968952,0.0014514923,-114.1050872803,72.5673522949,61.8747978210,0.0243822932,0.0643299520,0.0055396557,-10.9229907990,84.3025360107,103.6828460693,0.0233802795,0.0226427317,0.0239199400,42.4852180481,43.3786468506,86.6577682495,0.0662112236,-0.0110257268,0.0029476285,
137.933,-3.2824554443,1.3981288671,15.5874023438,0.0615089051,0.0411280245,0.0029157400,-114.1148147583,72.5681457520,61.8713073730,0.0243864655,0.0667381287,0.0031395555,-10.9323797226,84.3031539917,103.6814575195,0.0267993212,0.0231462419,0.0253927112,42.4835205078,43.3786163330,86.6617431641,0.0681639910,-0.0119866729,-0.0039031506,
137.943,-3.2806305885,1.3968709707,15.5891752243,0.0644166470,0.0445142314,0.0014485717,-114.1232604980,72.5695190430,61.8673171997,0.0302529931,0.0657230020,0.0104948282,-10.9332771301,84.3018112183,103.6898956299,0.0277735591,0.0236397684,0.0243980289,42.4822463989,43.3805313110,86.6665954590,0.0672116876,-0.0153772235,-0.0063385963,
137.953,-3.2796030045,1.3966296911,15.5903415680,0.0609944686,0.0459611900,0.0082834959,-114.1301193237,72.5733871460,61.8663330078,0.0258786678,0.0671145022,0.0100131631,-10.9578619003,84.3043212891,103.6725387573,0.0282661915,0.0212329924,0.0190771818,42.4827957153,43.3819389343,86.6737747192,0.0662530065,-0.0129295588,-0.0092511773,
137.963,-3.2781927586,1.3950995207,15.5909233093,0.0634091720,0.0430069715,0.0126755238,-114.1366119385,72.5749588013,61.8658370972,0.0234454870,0.0675653219,0.0090570450,-10.9648704529,84.3029861450,103.6745071411,0.0267990232,0.0212495327,0.0332170129,42.4823417664,43.3798942566,86.6795578003,0.0696450472,-0.0075707734,0.0009807944,
137.973,-3.2766022682,1.3951914310,15.5914840698,0.0595045276,0.0459089503,0.0024207234,-114.1390762329,72.5787887573,61.8680267334,0.0220006704,0.0670127869,0.0105077624,-10.9715042114,84.3037796021,103.6776351929,0.0248472691,0.0188169479,0.0200496912,42.4833869934,43.3789253235,86.6859207153,0.0720741749,-0.0085649788,-0.0034134388,
137.983,-3.2758848667,1.3956260681,15.5920400620,0.0585355498,0.0449198782,0.0092557073,-114.1422729492,72.5797500610,61.8717498779,0.0220056772,0.0591797531,0.0119813085,-10.9698419571,84.3022613525,103.6880645752,0.0233798027,0.0261431932,0.0263715386,42.4839057922,43.3790779114,86.6924743652,0.0657284260,-0.0100334287,-0.0087784529,
137.993,-3.2767066956,1.3945338726,15.5933189392,0.0555868037,0.0415162481,0.0146274567,-114.1382751465,72.5827255249,61.8815650940,0.0200681090,0.0669550896,0.0163363814,-10.9876813889,84.3001327515,103.6799240112,0.0209347010,0.0193452835,0.0234115720,42.4844970703,43.3815879822,86.6995773315,0.0618540049,-0.0134366453,-0.0063103437,
138.003,-3.2763211727,1.3952281475,15.5962715149,0.0604817346,0.0434626490,0.0156035423,-114.1389846802,72.5851516724,61.8862495422,0.0234987736,0.0659404099,0.0109522939,-10.9983682632,84.2974090576,103.6787872314,0.0214182734,0.0193725824,0.0297180414,42.4839515686,43.3809661865,86.7059249878,0.0677055717,-0.0153895617,-0.0043665171,
138.013,-3.2765197754,1.3954337835,15.5961418152,0.0634150058,0.0439543799,0.0068150163,-114.1358184814,72.5860824585,61.8938102722,0.0264332891,0.0669102669,0.0182551146,-11.0246925354,84.2987518311,103.6631927490,0.0263034105,0.0252734721,0.0170536637,42.4836502075,43.3843765259,86.7121047974,0.0618893504,-0.0158476830,-0.0072698593,
138.023,-3.2768003941,1.3959058523,15.5978393555,0.0609818399,0.0390764475,0.0146280527,-114.1438522339,72.5888748169,61.8912696838,0.0240064859,0.0746623874,0.0089971423,-11.0069932938,84.2977905273,103.6898574829,0.0219072104,0.0257340968,0.0258206129,42.4849472046,43.3847312927,86.7205047607,0.0667766929,-0.0065794587,-0.0057899952,
138.033,-3.2771677971,1.3969982862,15.5989418030,0.0585594922,0.0410359465,0.0112108588,-114.1494674683,72.5920028687,61.8911666870,0.0240228176,0.0702091455,0.0094910264,-10.9947643280,84.2980651855,103.7094116211,0.0277670622,0.0198526680,0.0248438120,42.4857025146,43.3870162964,86.7272644043,0.0643642545,-0.0124274194,-0.0038100481,
138.043,-3.2804894447,1.3965729475,15.6013107300,0.0575755090,0.0327930301,0.0077961087,-114.1612319946,72.5939407349,61.8854789734,0.0269625783,0.0696659088,0.0051397681,-10.9931592941,84.2980346680,103.7198028564,0.0258138776,0.0291272998,0.0253311396,42.4847946167,43.3881187439,86.7336273193,0.0687727928,-0.0158279240,-0.0023432970,
138.053,-3.2807507515,1.3975383043,15.6024341583,0.0590571985,0.0435397476,0.0126791000,-114.1697692871,72.5951538086,61.8832130432,0.0230627060,0.0671877861,0.0046838522,-10.9734506607,84.2984771729,103.7484359741,0.0272794962,0.0251853466,0.0248435736,42.4852600098,43.3885002136,86.7419052124,0.0712190270,-0.0104582608,-0.0091723800,
138.063,-3.2800123692,1.3980373144,15.6036329269,0.0561362170,0.0449917205,0.0043781400,-114.1806106567,72.5983810425,61.8776779175,0.0186849833,0.0695576072,0.0081316829,-10.9650802612,84.2958679199,103.7640609741,0.0219038725,0.0188315213,0.0262622237,42.4852066040,43.3874206543,86.7478485107,0.0658342838,-0.0104663670,0.0000953674,
138.073,-3.2798738480,1.3974045515,15.6048688889,0.0580783002,0.0449893214,0.0082841516,-114.1846466064,72.6015090942,61.8795013428,0.0245606899,0.0675480366,0.0115477443,-10.9541597366,84.2977905273,103.7821044922,0.0209306479,0.0246654451,0.0218975544,42.4822425842,43.3873672485,86.7508544922,0.0668101311,-0.0162984729,-0.0004189014,
138.083,-3.2806868553,1.3957917690,15.6054210663,0.0634212494,0.0396324284,0.0053545237,-114.1861572266,72.6028823853,61.8822021484,0.0274975896,0.0601996183,0.0144751668,-10.9434728622,84.2969665527,103.8005371094,0.0238589048,0.0270912945,0.0228544474,42.4855842590,43.3862457275,86.7591171265,0.0707021952,-0.0051082671,-0.0062592030,
138.093,-3.2812733650,1.3968451023,15.6058988571,0.0585568175,0.0381777734,0.0107265711,-114.1938095093,72.6055679321,61.8792495728,0.0211639404,0.0694204271,0.0100988150,-10.9268865585,84.2954483032,103.8252182007,0.0209265947,0.0290202200,0.0316140056,42.4864311218,43.3845787048,86.7665481567,0.0701927543,-0.0080594718,-0.0048022866,
138.103,-3.2807698250,1.3965942860,15.6082382202,0.0634352565,0.0440283790,0.0087728500,-114.2134475708,72.6065673828,61.8651123047,0.0206808448,0.0625273585,-0.0029976964,-10.9121379852,84.2963790894,103.8484268188,0.0243461728,0.0236204863,0.0169759989,42.4892539978,43.3890342712,86.7744445801,0.0565773249,-0.0139091611,-0.0140157938,
138.113,-3.2814326286,1.3962329626,15.6112451553,0.0595227033,0.0420868173,0.0048671365,-114.2203598022,72.6099700928,61.8644828796,0.0280228257,0.0702728331,0.0058013201,-10.9226560593,84.2953109741,103.8469467163,0.0238560438,0.0202243030,0.0198912024,42.4887504578,43.3872489929,86.7820739746,0.0702266097,-0.0129424036,0.0040299296,
138.123,-3.2812454700,1.3967823982,15.6117200851,0.0624619722,0.0430601016,0.0102378726,-114.2259674072,72.6103744507,61.8637390137,0.0211889744,0.0634194911,0.0068016648,-10.9275789261,84.2954864502,103.8512268066,0.0238563418,0.0187675059,0.0203836560,42.4886589050,43.3873786926,86.7882232666,0.0599743128,-0.0065928102,-0.0028051138,
138.133,-3.2815179825,1.3967365026,15.6128368378,0.0605080500,0.0391585976,0.0141451359,-114.2261428833,72.6143264771,61.8692092896,0.0231627226,0.0682415366,0.0160531998,-10.9304656982,84.2939453125,103.8566284180,0.0238536596,0.0202423632,0.0281714201,42.4872856140,43.3913154602,86.7940368652,0.0610008240,-0.0148488879,-0.0047354102,
138.143,-3.2816188335,1.3981548548,15.6145782471,0.0576031096,0.0440431423,0.0131683350,-114.2272949219,72.6154327393,61.8728713989,0.0256099105,0.0711519122,0.0126330256,-10.9219608307,84.2941436768,103.8740005493,0.0165297985,0.0275510848,0.0262190104,42.4880638123,43.3913574219,86.8019104004,0.0649076104,-0.0114378035,-0.0017986298,
138.153,-3.2830829620,1.3973929882,15.6163644791,0.0585663803,0.0372327268,0.0058459044,-114.2363891602,72.6171569824,61.8693923950,0.0275720358,0.0681764781,0.0048521161,-10.9085073471,84.2929763794,103.8976287842,0.0253168344,0.0246016383,0.0320547819,42.4860229492,43.3924522400,86.8067169189,0.0600386858,-0.0133629143,-0.0032709837,
138.163,-3.2854392529,1.3979837894,15.6173686981,0.0668774694,0.0426448435,0.0136610270,-114.2410583496,72.6183166504,61.8713760376,0.0280663371,0.0661960840,0.0092611313,-10.9202842712,84.2967224121,103.8973999023,0.0238584876,0.0236336291,0.0125895143,42.4853591919,43.3901824951,86.8128890991,0.0761231780,-0.0109337568,-0.0076917410,
138.173,-3.2859668732,1.3979643583,15.6185569763,0.0580880679,0.0426540449,0.0087783337,-114.2381134033,72.6217803955,61.8789138794,0.0271078348,0.0666382909,0.0155710578,-10.9209299088,84.2987518311,103.9045562744,0.0248385668,0.0250930488,0.0184829831,42.4864311218,43.3894882202,86.8185729980,0.0683018565,-0.0114376545,-0.0057352781,
138.183,-3.2853438854,1.3993422985,15.6191015244,0.0551824234,0.0445962809,0.0078022480,-114.2379989624,72.6247863770,61.8842544556,0.0251703858,0.0636631250,0.0126202703,-10.9221582413,84.2996444702,103.9130172729,0.0199573040,0.0206977427,0.0228930116,42.4835548401,43.3898277283,86.8241882324,0.0697710514,-0.0099431276,0.0015673637,
138.193,-3.2863144875,1.4011640549,15.6220483780,0.0561907701,0.0431482941,0.0053620934,-114.2353668213,72.6258010864,61.8919334412,0.0222460032,0.0704894960,0.0116242766,-10.9034957886,84.2975463867,103.9381637573,0.0228833556,0.0265317261,0.0296856165,42.4824638367,43.3885231018,86.8303451538,0.0746372938,-0.0099435449,-0.0038251877,
138.203,-3.2857098579,1.4024378061,15.6230783463,0.0601192452,0.0358135141,0.0126865506,-114.2511291504,72.6256332397,61.8815383911,0.0271279216,0.0650869608,0.0019350052,-10.9449186325,84.2979965210,103.9050140381,0.0243489742,0.0168361962,0.0267808437,42.4822769165,43.3868103027,86.8360748291,0.0692445040,-0.0114203990,0.0029948950,
138.213,-3.2824892998,1.4009670019,15.6261539459,0.0615584254,0.0469879135,0.0131710768,-114.2554702759,72.6259841919,61.8813743591,0.0202938318,0.0606781542,0.0136719942,-10.9392623901,84.3002014160,103.9198608398,0.0175168514,0.0256088972,0.0199760795,42.4794082642,43.3845138550,86.8408966064,0.0765395761,-0.0114122331,0.0044143200,
138.223,-3.2801289558,1.3998543024,15.6285972595,0.0620272979,0.0484116711,0.0048674941,-114.2504119873,72.6282043457,61.8914909363,0.0237233639,0.0694438815,0.0116797090,-10.9260139465,84.3004684448,103.9388351440,0.0287477970,0.0260727704,0.0219322443,42.4812088013,43.3844451904,86.8486404419,0.0687261820,-0.0084999800,-0.0102192163,
138.233,-3.2798795700,1.3974165916,15.6310358047,0.0649144500,0.0430362970,0.0151200891,-114.2485504150,72.6320877075,61.9000129700,0.0237435699,0.0689008832,0.0145739317,-10.9266128540,84.3008499146,103.9478759766,0.0194711089,0.0226545930,0.0204741359,42.4800109863,43.3845939636,86.8539047241,0.0677514672,-0.0148352087,-0.0043687820,
138.243,-3.2787630558,1.3983123302,15.6303901672,0.0566292964,0.0464347973,0.0077946782,-114.2579803467,72.6372680664,61.8971862793,0.0198643208,0.0663609803,0.0072593093,-10.9224185944,84.3028106689,103.9598617554,0.0248456001,0.0245942473,0.0170867443,42.4839401245,43.3857231140,86.8610153198,0.0658126473,-0.0119331479,-0.0106726885,
138.253,-3.2783381939,1.3984485865,15.6296815872,0.0615144856,0.0439859852,0.0102363229,-114.2681808472,72.6404571533,61.8959846497,0.0286700130,0.0677555501,0.0092393160,-10.9153223038,84.3034973145,103.9754028320,0.0243585110,0.0270214677,0.0239294767,42.4821357727,43.3864326477,86.8659515381,0.0667982697,-0.0138635933,-0.0048223734,
138.263,-3.2810401917,1.3977241516,15.6296119690,0.0624784082,0.0415916592,0.0092612505,-114.2824630737,72.6412124634,61.8863525391,0.0281856656,0.0594128072,0.0019778609,-10.9158353806,84.3042526245,103.9800567627,0.0228949785,0.0236015618,0.0244330168,42.4816246033,43.3876075745,86.8709182739,0.0643717647,-0.0104313195,-0.0013984442,
138.273,-3.2793781757,1.3970098495,15.6290102005,0.0580714121,0.0440041348,0.0107248425,-114.2962799072,72.6414031982,61.8741531372,0.0276983380,0.0608447790,-0.0077230930,-10.8780679703,84.3052902222,104.0234375000,0.0253381729,0.0220682025,0.0224817395,42.4781379700,43.3867187500,86.8732147217,0.0726613402,-0.0138238072,0.0024701357,
138.283,-3.2768507004,1.3969860077,15.6307611465,0.0624655262,0.0468897894,0.0073044300,-114.2968292236,72.6428833008,61.8674316406,0.0306357741,0.0544752777,0.0015464425,-10.8636159897,84.3043212891,104.0399322510,0.0233833790,0.0244871080,0.0244168639,42.4747314453,43.3870506287,86.8762283325,0.0746185780,-0.0113479793,0.0039081573,
138.293,-3.2772181034,1.3955347538,15.6319046021,0.0653698966,0.0410368517,0.0116981268,-114.2848510742,72.6463546753,61.8666954041,0.0301655531,0.0563998222,0.0146495104,-10.8642263412,84.3045959473,104.0406417847,0.0287549496,0.0196048021,0.0195366144,42.4727973938,43.3869247437,86.8770446777,0.0702224970,-0.0093777180,0.0024261475,
138.303,-3.2764697075,1.3936221600,15.6337099075,0.0648482442,0.0449301116,0.0087676048,-114.2724075317,72.6531448364,61.8604736328,0.0272712111,0.0597417653,0.0135672092,-10.8441638947,84.3046340942,104.0604171753,0.0194776654,0.0220108926,0.0219741464,42.4722824097,43.3923721313,86.8782806396,0.0600376725,-0.0161647499,-0.0043662786,
138.313,-3.2762658596,1.3932527304,15.6329889297,0.0653300732,0.0454148538,0.0073014498,-114.2672576904,72.6604080200,61.8430137634,0.0273090005,0.0659906268,0.0056807399,-10.8071203232,84.3024673462,104.0961227417,0.0214270353,0.0258600116,0.0224115849,42.4749336243,43.3962326050,86.8800430298,0.0635045767,-0.0093224347,-0.0116336346,
138.323,-3.2770190239,1.3951957226,15.6340217590,0.0595046021,0.0420099534,0.0004680157,-114.2613372803,72.6666641235,61.8236312866,0.0249001384,0.0673733354,0.0085394979,-10.7875938416,84.2992324829,104.1141357422,0.0326519012,0.0214414001,0.0204004645,42.4781990051,43.3968391418,86.8831863403,0.0708365440,-0.0064183474,-0.0062291622,
138.333,-3.2757170200,1.3945927620,15.6358137131,0.0624237731,0.0468701012,0.0092546344,-114.2522048950,72.6749114990,61.8116378784,0.0151773691,0.0745924413,0.0172287822,-10.7915239334,84.2974472046,104.1112594604,0.0258128643,0.0234073400,0.0242763162,42.4825248718,43.3974075317,86.8879013062,0.0698671937,-0.0103604794,-0.0061871409,
138.343,-3.2763254642,1.3918633461,15.6363134384,0.0716534853,0.0424862392,0.0063250065,-114.2596359253,72.6798171997,61.7972946167,0.0215505362,0.0813380480,0.0089297295,-10.7714853287,84.2923660278,104.1356201172,0.0287337303,0.0287593603,0.0295579433,42.4854698181,43.3988265991,86.8941040039,0.0659788847,-0.0093999207,-0.0095673800,
138.353,-3.2792217731,1.3948155642,15.6379823685,0.0521737523,0.0342358351,0.0121880770,-114.2644271851,72.6821136475,61.8014755249,0.0225390196,0.0822695494,0.0187025666,-10.7334928513,84.2911987305,104.1810379028,0.0248254538,0.0321146250,0.0270857811,42.4913711548,43.3999519348,86.9040985107,0.0630635023,0.0008078516,-0.0090186596,
138.363,-3.2780473232,1.3959269524,15.6403417587,0.0565876737,0.0420278572,0.0112116337,-114.2830276489,72.6802749634,61.8047599792,0.0274122953,0.0812809765,0.0168504119,-10.7401342392,84.2921600342,104.1851806641,0.0160380602,0.0296821594,0.0275896788,42.4943275452,43.4000320435,86.9143371582,0.0635527968,-0.0075198710,-0.0094804764,
138.373,-3.2791438103,1.3957287073,15.6415061951,0.0585373417,0.0386289880,0.0033991337,-114.3094253540,72.6716613770,61.8045196533,0.0224847198,0.0711011887,0.0097105503,-10.7564506531,84.2926406860,104.1827926636,0.0233631134,0.0209199190,0.0251621604,42.4944648743,43.3996047974,86.9248580933,0.0615942478,-0.0094778240,-0.0036243200,
138.383,-3.2771129608,1.3976933956,15.6425714493,0.0595481843,0.0473826230,0.0038868785,-114.3253936768,72.6621170044,61.8141288757,0.0273178816,0.0609572828,0.0098518133,-10.7836847305,84.2935638428,104.1699752808,0.0228764415,0.0238941908,0.0232331753,42.4951210022,43.3983192444,86.9350662231,0.0708552599,-0.0085178316,-0.0075361729,
138.393,-3.2780828476,1.3969526291,15.6431694031,0.0605118200,0.0454464145,0.0092585683,-114.3327484131,72.6525726318,61.8238105774,0.0258033872,0.0542500317,0.0075106621,-10.7988758087,84.2959365845,104.1645278931,0.0228805542,0.0209834278,0.0188831687,42.4906387329,43.3978118896,86.9393386841,0.0679191351,-0.0153159201,0.0002335906,
138.403,-3.2790648937,1.3972598314,15.6430854797,0.0610054620,0.0454635099,0.0092598200,-114.3235397339,72.6454162598,61.8368835449,0.0262544155,0.0519369841,0.0055627227,-10.8486566544,84.2995452881,104.1239166260,0.0199571252,0.0181288123,0.0106596351,42.4892463684,43.3965454102,86.9460449219,0.0679031014,-0.0153131187,0.0031403303,
138.413,-3.2791681290,1.3969241381,15.6423501968,0.0629527345,0.0400942340,0.0043769479,-114.3114547729,72.6486892700,61.8421821594,0.0257831812,0.0646087527,0.0108538866,-10.8531532288,84.3006744385,104.1270904541,0.0189825296,0.0274103582,0.0219104290,42.4901084900,43.3947448730,86.9551925659,0.0654388070,-0.0114295185,-0.0046806335,
138.423,-3.2800254822,1.3964949846,15.6453342438,0.0619686767,0.0435271449,0.0068189502,-114.2937011719,72.6551132202,61.8545570374,0.0253283381,0.0713852644,0.0156082511,-10.8804187775,84.3011245728,104.1074981689,0.0170301795,0.0255032182,0.0165560246,42.4980659485,43.3944244385,86.9681167603,0.0649465322,-0.0032057464,-0.0094982386,
138.433,-3.2817142010,1.3938134909,15.6447305679,0.0648515746,0.0430683382,0.0073077679,-114.3013000488,72.6626892090,61.8529243469,0.0253677368,0.0829728842,0.0082684159,-10.9037933350,84.2997131348,104.0940628052,0.0277699232,0.0284780860,0.0238646269,42.5001754761,43.3918266296,86.9776229858,0.0644252896,-0.0100825131,-0.0016911030,
138.443,-3.2803878784,1.3946640491,15.6458711624,0.0594953261,0.0469514690,0.0136544704,-114.3165359497,72.6682357788,61.8513565063,0.0234434605,0.0740673542,0.0073264241,-10.8981790543,84.2988891602,104.1108398438,0.0209325552,0.0309122205,0.0267795324,42.5035667419,43.3881530762,86.9879150391,0.0673083663,-0.0096557140,-0.0021824837,
138.453,-3.2803130150,1.3936630487,15.6475496292,0.0658255219,0.0362080038,0.0058414936,-114.3273315430,72.6723785400,61.8614692688,0.0278595090,0.0720283985,0.0063728094,-10.8969545364,84.2957305908,104.1232223511,0.0248333216,0.0299436748,0.0233084559,42.5012168884,43.3857154846,86.9942321777,0.0633711815,-0.0120947659,0.0031473637,
138.463,-3.2803828716,1.3931999207,15.6493043900,0.0619111881,0.0420686007,0.0087710619,-114.3330688477,72.6761474609,61.8753700256,0.0283674002,0.0651232004,0.0136984587,-10.9139194489,84.2973098755,104.1183319092,0.0189766884,0.0289920270,0.0204079151,42.5030899048,43.3826217651,87.0039901733,0.0682147741,-0.0106725693,-0.0037003756,
138.473,-3.2819988728,1.3922082186,15.6492195129,0.0633587241,0.0411202163,0.0077958107,-114.3298950195,72.6787872314,61.8926696777,0.0254514217,0.0553241968,0.0107356906,-10.9437227249,84.2964859009,104.0972290039,0.0258111954,0.0222102106,0.0233365297,42.5018196106,43.3809623718,87.0093231201,0.0716117024,-0.0116506219,-0.0042138100,
138.483,-3.2810142040,1.3913360834,15.6497898102,0.0609021038,0.0415913649,0.0073061585,-114.3389663696,72.6791763306,61.8905944824,0.0293596983,0.0552991629,-0.0019192696,-10.9752235413,84.2950439453,104.0726547241,0.0272735357,0.0120161176,0.0257622600,42.4973526001,43.3794631958,87.0126266479,0.0720809102,-0.0145507455,0.0089176297,
138.493,-3.2804844379,1.3896920681,15.6504230499,0.0613617003,0.0464649871,0.0043749213,-114.3369522095,72.6867752075,61.8886680603,0.0313522816,0.0634890497,0.0087613463,-10.9675693512,84.2921905518,104.0855255127,0.0189678073,0.0178709924,0.0310856104,42.4955711365,43.3799552917,87.0163650513,0.0725755095,-0.0116003454,0.0001180172,
138.503,-3.2788550854,1.3879351616,15.6521987915,0.0662138611,0.0459483676,0.0029079318,-114.3213424683,72.6981964111,61.8931770325,0.0250639319,0.0628608763,0.0173982382,-10.9467058182,84.2908477783,104.1086883545,0.0189654827,0.0222334564,0.0271502733,42.4952774048,43.3816337585,87.0220794678,0.0682022572,-0.0130488276,-0.0023107529,
138.513,-3.2790081501,1.3866297007,15.6539697647,0.0627731085,0.0396034084,0.0102317333,-114.3224945068,72.7047195435,61.8799819946,0.0250977874,0.0612952709,0.0041754246,-10.9414663315,84.2896194458,104.1173248291,0.0214047432,0.0256465077,0.0237087011,42.4970779419,43.3861122131,87.0267944336,0.0584934354,-0.0057052374,-0.0046975613,
138.523,-3.2828838825,1.3872474432,15.6557559967,0.0559479520,0.0416240357,0.0077944398,-114.3232345581,72.7121124268,61.8709449768,0.0236713290,0.0768061280,0.0114524961,-10.9267988205,84.2870788574,104.1364746094,0.0165175200,0.0285587311,0.0290328860,42.4956283569,43.3859939575,87.0305175781,0.0633747578,-0.0086223483,0.0011484623,
138.533,-3.2836968899,1.3846244812,15.6557321548,0.0646912530,0.0396851301,0.0053527355,-114.3361434937,72.7192459106,61.8607864380,0.0227317214,0.0781360865,0.0119530559,-10.9225778580,84.2855682373,104.1471710205,0.0213977098,0.0241616368,0.0265651941,42.4980163574,43.3861770630,87.0362701416,0.0648419857,-0.0115728378,-0.0061537027,
138.543,-3.2839045525,1.3848980665,15.6562223434,0.0632311776,0.0460363999,0.0048646927,-114.3534698486,72.7222671509,61.8553771973,0.0232356787,0.0760998130,0.0193387866,-10.9240942001,84.2841949463,104.1537628174,0.0189539194,0.0270982683,0.0260554552,42.5012283325,43.3831405640,87.0434188843,0.0760338306,-0.0116274953,-0.0012698770,
138.553,-3.2828419209,1.3873689175,15.6579294205,0.0559500717,0.0460178256,0.0097473860,-114.3606109619,72.7166519165,61.8666076660,0.0227182508,0.0629860163,0.0184345245,-10.9322843552,84.2860488892,104.1540603638,0.0218868256,0.0246655643,0.0172977448,42.5049057007,43.3821029663,87.0533905029,0.0730909705,-0.0058110654,-0.0095490217,
138.563,-3.2833113670,1.3869249821,15.6595993042,0.0661962330,0.0406549275,0.0102362037,-114.3684692383,72.7121047974,61.8743667603,0.0207415819,0.0610848665,0.0121552944,-10.9522466660,84.2902984619,104.1445083618,0.0272653103,0.0207803547,0.0139575601,42.5030708313,43.3822669983,87.0595626831,0.0672336817,-0.0150697231,-0.0002850294,
138.573,-3.2840802670,1.3869181871,15.6576242447,0.0637547076,0.0421331637,0.0058423877,-114.3702697754,72.7036056519,61.8789024353,0.0231388807,0.0485141575,0.0058743358,-10.9414548874,84.2910614014,104.1610031128,0.0272666216,0.0275947154,0.0247108340,42.5031356812,43.3814888000,87.0666656494,0.0779660344,-0.0087290108,-0.0017567873,
138.583,-3.2828779221,1.3860385418,15.6588325500,0.0612979531,0.0465067774,0.0141416788,-114.3168869019,72.6796722412,61.9161682129,0.0513349175,0.0040695071,0.0096912384,-10.9457569122,84.2928771973,104.1623077393,0.0267814994,0.0207608342,0.0169275403,42.5002632141,43.3809661865,87.0687866211,0.0706351995,-0.0140774846,-0.0027625561,
138.593,-3.2813088894,1.3868564367,15.6600570679,0.0530114397,0.0435497314,0.0087692738,-114.2785797119,72.6713180542,61.9365615845,0.0136938691,0.0291797519,0.0115193725,-10.9736213684,84.2941436768,104.1369094849,0.0092055798,0.0134808421,0.0184240341,42.4966125488,43.3796234131,87.0706710815,0.0715947747,-0.0125893056,0.0030537844,
138.603,-3.2812125683,1.3849118948,15.6606140137,0.0646962672,0.0406184159,0.0082799196,-114.2646255493,72.6754989624,61.9426765442,0.0273874402,0.0652793646,0.0172837973,-10.9661684036,84.2968978882,104.1460876465,0.0223939419,0.0242009759,0.0184684396,42.4900093079,43.3801765442,87.0691604614,0.0672071576,-0.0183825195,0.0049551129,
138.613,-3.2817788124,1.3860380650,15.6610097885,0.0647159144,0.0425813757,0.0097458363,-114.2572250366,72.6793823242,61.9497566223,0.0239896774,0.0652368963,0.0152690411,-10.9593696594,84.2952499390,104.1556015015,0.0306918621,0.0256595016,0.0301564336,42.4930686951,43.3802604675,87.0728073120,0.0686731339,-0.0076681674,-0.0038068295,
138.623,-3.2844512463,1.3838999271,15.6603116989,0.0651668906,0.0353037566,0.0092593431,-114.2535781860,72.6826629639,61.9526329041,0.0196121931,0.0686119199,0.0186472535,-10.9436340332,84.2950439453,104.1779861450,0.0189727545,0.0246565640,0.0237978101,42.4974822998,43.3806076050,87.0811767578,0.0623298883,-0.0062417984,-0.0018128157,
138.633,-3.2863683701,1.3819885254,15.6602621078,0.0622038506,0.0358254835,0.0053542256,-114.2570495605,72.6827926636,61.9555625916,0.0244956613,0.0783697665,0.0123151541,-10.9504804611,84.2921600342,104.1808471680,0.0223857164,0.0271185338,0.0276625156,42.5019912720,43.3806800842,87.0905075073,0.0633073449,-0.0097014606,-0.0100743175,
138.643,-3.2878303528,1.3829995394,15.6619920731,0.0568503961,0.0392688997,0.0121921897,-114.2673721313,72.6842346191,61.9573059082,0.0235266089,0.0768598020,0.0133310556,-10.9526605606,84.2919845581,104.1908645630,0.0238502622,0.0266351700,0.0266800523,42.5106735229,43.3785743713,87.1044692993,0.0749993324,-0.0024755895,-0.0168546438,
138.653,-3.2873184681,1.3840076923,15.6637210846,0.0588211119,0.0441427603,0.0063323975,-114.2881774902,72.6841125488,61.9556121826,0.0269439220,0.0738881826,0.0080595613,-10.9483070374,84.2920837402,104.2080993652,0.0248270035,0.0276031196,0.0247315764,42.5073776245,43.3757057190,87.1114044189,0.0681270361,-0.0127218664,-0.0007948279,
138.663,-3.2855296135,1.3852293491,15.6667680740,0.0539596155,0.0485061072,0.0034017563,-114.3195190430,72.6780624390,61.9474563599,0.0283773541,0.0670762360,0.0023904443,-10.9471559525,84.2911987305,104.2244644165,0.0292199850,0.0241866112,0.0266658068,42.5070991516,43.3718147278,87.1222229004,0.0832144022,-0.0137272179,-0.0042494535,
138.673,-3.2841782570,1.3856023550,15.6685047150,0.0588489398,0.0406700559,0.0048654079,-114.3430709839,72.6720886230,61.9438972473,0.0283463001,0.0715108514,0.0088909864,-10.9589433670,84.2973098755,104.2284851074,0.0223946571,0.0266287029,0.0155417919,42.5067901611,43.3685569763,87.1320724487,0.0743840337,-0.0054499209,0.0006018877,
138.683,-3.2812259197,1.3871499300,15.6702785492,0.0593642220,0.0547787473,0.0146283507,-114.3799362183,72.6640853882,61.9301567078,0.0278164148,0.0569038391,0.0027733445,-10.9701719284,84.3001632690,104.2306442261,0.0287472606,0.0198029280,0.0190121531,42.5014381409,43.3660621643,87.1377792358,0.0777703524,-0.0122559667,0.0078580976,
138.693,-3.2812285423,1.3840792179,15.6721820831,0.0622403249,0.0445249602,0.0024201870,-114.3955459595,72.6535415649,61.9311332703,0.0292264223,0.0492174029,0.0131738186,-10.9782114029,84.3027420044,104.2355804443,0.0287517309,0.0183441043,0.0185672641,42.4978637695,43.3674621582,87.1436920166,0.0675342083,-0.0170940459,-0.0043671131,
138.703,-3.2825019360,1.3854842186,15.6732444763,0.0573820323,0.0357580408,0.0087698698,-114.4147109985,72.6445007324,61.9175262451,0.0238082409,0.0483364165,0.0050263405,-10.9737548828,84.3015060425,104.2513961792,0.0258198977,0.0178514719,0.0185490251,42.4955482483,43.3701400757,87.1500930786,0.0651267767,-0.0092381537,-0.0019217730,
138.713,-3.2818686962,1.3849245310,15.6744022369,0.0622550771,0.0445360951,0.0121870041,-114.4405136108,72.6409301758,61.8953208923,0.0286724567,0.0639597774,0.0095680952,-10.9752016068,84.3019180298,104.2593917847,0.0214260817,0.0178534687,0.0209926367,42.4910697937,43.3750267029,87.1529617310,0.0539582968,-0.0174574554,-0.0043585300,
138.723,-3.2827808857,1.3860163689,15.6736631393,0.0583678782,0.0391808599,0.0165829659,-114.4677963257,72.6407623291,61.8732528687,0.0203708410,0.0726927519,0.0092106462,-10.9576587677,84.3009490967,104.2837982178,0.0263072252,0.0251496434,0.0243927836,42.4884986877,43.3726348877,87.1570510864,0.0759006143,-0.0096402466,0.0009694099,
138.733,-3.2829134464,1.3853455782,15.6754608154,0.0603092983,0.0440659970,0.0033991337,-114.4832382202,72.6457290649,61.8718719482,0.0174670219,0.0750254989,0.0253632069,-10.9512681961,84.3012313843,104.2989349365,0.0219131708,0.0202554166,0.0195086002,42.4892921448,43.3708877563,87.1633377075,0.0729487538,-0.0038024783,-0.0009924769,
138.743,-3.2846047878,1.3848189116,15.6765842438,0.0617649518,0.0387243778,0.0019354820,-114.5031356812,72.6495666504,61.8726730347,0.0248112082,0.0700416863,0.0181070566,-10.9524297714,84.2984771729,104.3089294434,0.0253263712,0.0212421715,0.0272799730,42.4883384705,43.3701667786,87.1704177856,0.0685450435,-0.0106353760,0.0028993487,
138.753,-3.2841627598,1.3848968744,15.6771688461,0.0554186553,0.0396932364,0.0068181753,-114.5145874023,72.6552505493,61.8798027039,0.0214228034,0.0660248697,0.0156809688,-10.9466762543,84.2936019897,104.3255462646,0.0223882198,0.0197834074,0.0320773125,42.4896697998,43.3693771362,87.1791763306,0.0680467486,-0.0057713091,-0.0034438372,
138.763,-3.2852065563,1.3873454332,15.6794118881,0.0583910681,0.0406879298,0.0126795769,-114.5143585205,72.6638412476,61.8982658386,0.0190261006,0.0634538531,0.0175738335,-10.9386272430,84.2948379517,104.3450927734,0.0233669281,0.0246482491,0.0179349184,42.4868392944,43.3695869446,87.1855392456,0.0656080246,-0.0164853930,-0.0024898648,
138.773,-3.2841322422,1.3879694939,15.6799240112,0.0598668009,0.0440871678,0.0048663020,-114.5071258545,72.6782531738,61.9207572937,0.0239838362,0.0725288987,0.0237877965,-10.9400577545,84.2952117920,104.3537979126,0.0228793025,0.0246495306,0.0242893696,42.4894790649,43.3695449829,87.1951370239,0.0685371757,-0.0126041770,-0.0117450953,
138.783,-3.2835860252,1.3864922523,15.6824007034,0.0593527481,0.0440776907,0.0146307945,-114.5034637451,72.6956329346,61.9380302429,0.0294451714,0.0683680475,0.0173029304,-10.9413280487,84.2953491211,104.3607635498,0.0238561034,0.0280692279,0.0247805119,42.4893074036,43.3673744202,87.2036437988,0.0704627633,-0.0096904337,-0.0029764771,
138.793,-3.2864856720,1.3878542185,15.6834659576,0.0598647892,0.0407101922,0.0141459107,-114.4971694946,72.7112884521,61.9584312439,0.0270850062,0.0696098208,0.0132588744,-10.9537096024,84.2939453125,104.3567352295,0.0258067846,0.0212593973,0.0247611403,42.4843711853,43.3642959595,87.2069396973,0.0782361627,-0.0111339986,0.0033019185,
138.803,-3.2845585346,1.3874799013,15.6840324402,0.0613231026,0.0470242985,0.0077961683,-114.5028991699,72.7279281616,61.9648780823,0.0271712542,0.0703219175,0.0058472753,-10.9342699051,84.2940063477,104.3837432861,0.0253186226,0.0265961289,0.0237810612,42.4837112427,43.3648490906,87.2135162354,0.0655478835,-0.0081936717,-0.0069532394,
138.813,-3.2867248058,1.3890203238,15.6857404709,0.0569554493,0.0412026197,0.0063343048,-114.5079193115,72.7476196289,61.9711990356,0.0287380815,0.0695255995,0.0101296306,-10.9327745438,84.2933197021,104.3937530518,0.0262939930,0.0222015679,0.0257200003,42.4814910889,43.3626251221,87.2170486450,0.0723556280,-0.0091672838,-0.0074796081,
138.823,-3.2853281498,1.3893439770,15.6850948334,0.0564728118,0.0431314074,0.0073091388,-114.5255126953,72.7618331909,61.9581451416,0.0346710086,0.0580419302,-0.0064867735,-10.9392910004,84.2878952026,104.3973464966,0.0228666067,0.0193006098,0.0324681997,42.4794387817,43.3604736328,87.2224960327,0.0684220791,-0.0101422071,0.0032255054,
138.833,-3.2860202789,1.3865748644,15.6863479614,0.0613073111,0.0377724357,0.0092621446,-114.5410079956,72.7789916992,61.9300117493,0.0284120440,0.0572612286,0.0017687678,-10.9200029373,84.2872467041,104.4261398315,0.0282365680,0.0246399045,0.0217103362,42.4816398621,43.3585319519,87.2302932739,0.0723036528,-0.0077370703,-0.0036084056,
138.843,-3.2837293148,1.3853698969,15.6857061386,0.0637276918,0.0484747477,0.0009584427,-114.5712280273,72.7946243286,61.8725013733,0.0343521833,0.0559828281,-0.0079624653,-10.8920459747,84.2871475220,104.4625167847,0.0228652954,0.0294747353,0.0197435021,42.4768409729,43.3586273193,87.2321777344,0.0713282824,-0.0111093819,0.0041636825,
138.853,-3.2850370407,1.3846122026,15.6863069534,0.0583433807,0.0421498902,0.0068188310,-114.6290206909,72.8160934448,61.7927093506,0.0334864259,0.0662764907,0.0029031634,-10.8619194031,84.2872467041,104.4990310669,0.0223771930,0.0216087699,0.0221804380,42.4747772217,43.3588256836,87.2348022461,0.0737722516,-0.0115767121,-0.0031763315,
138.863,-3.2849223614,1.3849340677,15.6880588531,0.0593255535,0.0426361598,0.0136549473,-114.7077636719,72.8326950073,61.6931076050,0.0350368023,0.0663435757,-0.0007481575,-10.8086290359,84.2863159180,104.5592041016,0.0223755836,0.0244491994,0.0201895833,42.4740409851,43.3618545532,87.2398452759,0.0659981370,-0.0115452409,-0.0007142425,
138.873,-3.2841796875,1.3838539124,15.6886157990,0.0637012422,0.0450646542,0.0053529143,-114.7893295288,72.8489379883,61.5907440186,0.0307258964,0.0693413317,0.0083103776,-10.7683238983,84.2820739746,104.6046218872,0.0321338177,0.0219503045,0.0210860968,42.4748573303,43.3648223877,87.2439041138,0.0665241480,-0.0115289390,-0.0075173974,
138.883,-3.2856390476,1.3839412928,15.6891860962,0.0578433946,0.0436252281,0.0165848732,-114.8738327026,72.8644256592,61.4858703613,0.0293407440,0.0659943819,0.0051802993,-10.7241773605,84.2823410034,104.6549453735,0.0262749195,0.0199193656,0.0186338425,42.4749488831,43.3670806885,87.2485427856,0.0763184428,-0.0090701282,-0.0055434704,
138.893,-3.2882688046,1.3840647936,15.6903915405,0.0573572628,0.0461124443,0.0014508367,-114.9630737305,72.8861618042,61.3860206604,0.0245696306,0.0757272542,0.0142344236,-10.6553039551,84.2822723389,104.7295150757,0.0165091753,0.0237062573,0.0210471749,42.4738235474,43.3706932068,87.2506179810,0.0641571879,-0.0109834969,-0.0030797720,
138.903,-3.2883484364,1.3843659163,15.6897716522,0.0563859567,0.0466021039,0.0019393563,-115.0560913086,72.9065628052,61.2913017273,0.0246743560,0.0737524629,0.0111072063,-10.6030073166,84.2832336426,104.7882537842,0.0189522505,0.0255644917,0.0190966129,42.4747428894,43.3723869324,87.2557678223,0.0719912052,-0.0085369647,-0.0040335059,
138.913,-3.2895746231,1.3820956945,15.6891412735,0.0636705607,0.0402758680,0.0141463876,-115.1425704956,72.9219741821,61.2105484009,0.0223119855,0.0728431642,0.0167725682,-10.5455789566,84.2837524414,104.8546676636,0.0189531446,0.0298571289,0.0195747018,42.4743080139,43.3738212585,87.2611312866,0.0700562596,-0.0085212290,-0.0020710826,
138.923,-3.2895367146,1.3812937737,15.6914863586,0.0631682873,0.0402752236,0.0073103309,-115.2284698486,72.9301986694,61.1330986023,0.0257720947,0.0603251159,0.0097898245,-10.5184936523,84.2821426392,104.8926010132,0.0262745619,0.0229787827,0.0195395947,42.4759140015,43.3760833740,87.2694168091,0.0652021766,-0.0060766041,-0.0078971982,
138.933,-3.2917912006,1.3799754381,15.6926870346,0.0607038811,0.0408028029,0.0146362185,-115.2911453247,72.9304046631,61.0732192993,0.0218669176,0.0523723960,0.0095914602,-10.4861383438,84.2829589844,104.9388122559,0.0199283361,0.0273142457,0.0234490633,42.4740180969,43.3742370605,87.2749176025,0.0642021894,-0.0046089590,0.0086718798,
138.943,-3.2916913033,1.3796168566,15.6920242310,0.0587444976,0.0408010744,0.0038937926,-115.3318099976,72.9300079346,61.0335960388,0.0184469223,0.0537535250,0.0122247934,-10.4546718597,84.2817306519,104.9805603027,0.0233441591,0.0223804712,0.0234171748,42.4714393616,43.3759689331,87.2816772461,0.0681303740,-0.0162896216,-0.0020769835,
138.953,-3.2906858921,1.3808312416,15.6931066513,0.0582774058,0.0393186845,0.0156119466,-115.3419189453,72.9243850708,61.0254974365,0.0242774487,0.0440502763,0.0215889812,-10.4613971710,84.2846069336,104.9824981689,0.0238374472,0.0175004005,0.0132142305,42.4651679993,43.3754653931,87.2836456299,0.0647060275,-0.0128169060,0.0086074471,
138.963,-3.2904512882,1.3813176155,15.6941823959,0.0626804233,0.0432208404,0.0068229437,-115.3396606445,72.9157562256,61.0255928040,0.0276511908,0.0573687255,0.0079680681,-10.4575719833,84.2855987549,104.9924774170,0.0233508945,0.0170024931,0.0244593620,42.4632911682,43.3760490417,87.2870559692,0.0642251372,-0.0093767643,0.0017599463,
138.973,-3.2925205231,1.3823884726,15.6946430206,0.0583045781,0.0373974815,0.0048723221,-115.3128051758,72.9058456421,61.0444107056,0.0212526917,0.0458581448,0.0098668933,-10.4478797913,84.2825851440,105.0080108643,0.0243222117,0.0228541493,0.0292891264,42.4588241577,43.3768348694,87.2899322510,0.0632585883,-0.0195823908,0.0056353211,
138.983,-3.2940206528,1.3829108477,15.6970310211,0.0563605689,0.0413298532,0.0063390136,-115.2749252319,72.8934936523,61.0735893250,0.0226541758,0.0554041862,0.0053836703,-10.4578056335,84.2816619873,105.0002746582,0.0252971649,0.0223860443,0.0292770863,42.4612960815,43.3784408569,87.2961425781,0.0637671947,-0.0112918019,-0.0084894896,
138.993,-3.2922866344,1.3834620714,15.6982173920,0.0558819063,0.0442293175,0.0019429326,-115.2315139771,72.8809585571,61.1103019714,0.0279608369,0.0610596240,0.0106414557,-10.4668445587,84.2833023071,104.9957809448,0.0204172134,0.0292327106,0.0195417404,42.4618225098,43.3794288635,87.3007049561,0.0628032088,-0.0127535462,-0.0045700073,
139.003,-3.2936275005,1.3824461699,15.7005605698,0.0636766851,0.0398581736,0.0009671450,-115.1830749512,72.8647308350,61.1551895142,0.0278774500,0.0609214008,0.0129716992,-10.4709129333,84.2812118530,104.9949569702,0.0194370151,0.0282697976,0.0302498341,42.4664344788,43.3795127869,87.3080749512,0.0647573471,-0.0098663568,-0.0035532713,
139.013,-3.2928428650,1.3850656748,15.7009696960,0.0593278520,0.0452155359,0.0053620934,-115.1414108276,72.8507003784,61.1879386902,0.0238990188,0.0636654198,0.0065286160,-10.4883518219,84.2822418213,104.9803390503,0.0213919282,0.0253674686,0.0292955637,42.4659614563,43.3797225952,87.3129119873,0.0613421202,-0.0142547488,0.0018156767,
139.023,-3.2949938774,1.3838286400,15.7027530670,0.0602828339,0.0369522460,0.0073167086,-115.0948028564,72.8411636353,61.2235260010,0.0277562141,0.0687938333,0.0141904354,-10.5251464844,84.2832336426,104.9475250244,0.0209053755,0.0254285932,0.0239533782,42.4731292725,43.3813629150,87.3235244751,0.0642925501,-0.0123555064,-0.0166631341,
139.033,-3.2949509621,1.3837211132,15.7026863098,0.0602809526,0.0447640084,0.0082933903,-115.0643920898,72.8353042603,61.2407836914,0.0247963071,0.0748082399,0.0106714964,-10.5505475998,84.2854690552,104.9267959595,0.0233506560,0.0240012109,0.0225338936,42.4758148193,43.3796882629,87.3321762085,0.0706189871,-0.0079996288,0.0009230971,
139.043,-3.2932381630,1.3861823082,15.7032461166,0.0515348390,0.0461989529,0.0131754279,-115.0346298218,72.8286361694,61.2633628845,0.0247619748,0.0764382780,0.0081375241,-10.5852098465,84.2848815918,104.8971939087,0.0218847990,0.0235750377,0.0269315243,42.4780502319,43.3774681091,87.3377227783,0.0725439787,-0.0129213035,-0.0034719110,
139.053,-3.2939236164,1.3867644072,15.7048940659,0.0622871816,0.0379101038,0.0019460320,-115.0144348145,72.8282928467,61.2832069397,0.0252485275,0.0803937316,0.0148813128,-10.6212291718,84.2867355347,104.8660430908,0.0238411427,0.0221677423,0.0235531330,42.4754867554,43.3763656616,87.3402023315,0.0637408495,-0.0148593783,0.0043089390,
139.063,-3.2945816517,1.3872414827,15.7059335709,0.0627837852,0.0379215516,0.0087828040,-115.0044097900,72.8310241699,61.2987098694,0.0286805630,0.0798859596,0.0157916546,-10.6228952408,84.2883834839,104.8712387085,0.0238440037,0.0285126865,0.0191897750,42.4771919250,43.3749618530,87.3453063965,0.0661644936,-0.0090273321,-0.0059427619,
139.073,-3.2928140163,1.3872456551,15.7064361572,0.0642487034,0.0486329459,0.0068278313,-115.0080337524,72.8374252319,61.3007469177,0.0331080556,0.0768525898,0.0133221745,-10.6319198608,84.2878646851,104.8671112061,0.0248196721,0.0236478150,0.0225982070,42.4770050049,43.3724365234,87.3503341675,0.0754097700,-0.0095343292,-0.0064549446,
139.083,-3.2929525375,1.3873389959,15.7063741684,0.0574143939,0.0398462936,0.0078046322,-115.0176849365,72.8429565430,61.2941741943,0.0341131091,0.0699115396,0.0128402710,-10.6010246277,84.2866287231,104.9048309326,0.0233526826,0.0275034010,0.0264777541,42.4768867493,43.3738899231,87.3554153442,0.0695688725,-0.0119628012,-0.0010721087,
139.093,-3.2930169106,1.3876510859,15.7081069946,0.0613260902,0.0442419425,0.0082927942,-115.0316772461,72.8521194458,61.2800369263,0.0322071314,0.0712082088,0.0128412843,-10.5647544861,84.2848815918,104.9466476440,0.0218847990,0.0240281522,0.0278976560,42.4739036560,43.3739280701,87.3575515747,0.0681045055,-0.0168174207,0.0032972693,
139.103,-3.2928397655,1.3893798590,15.7091627121,0.0584265627,0.0408208445,0.0097585320,-115.0659790039,72.8701934814,61.2477302551,0.0249758363,0.0840448439,0.0123862624,-10.5681409836,84.2846374512,104.9471435547,0.0267671943,0.0215928555,0.0225273967,42.4751701355,43.3763351440,87.3634185791,0.0671584606,-0.0114388466,-0.0103430152,
139.113,-3.2924249172,1.3901178837,15.7115039825,0.0599042885,0.0437432826,0.0068283081,-115.0946807861,72.8832397461,61.2258262634,0.0265077353,0.0749960244,0.0065689087,-10.5718498230,84.2855682373,104.9526138306,0.0272570848,0.0215969086,0.0200996995,42.4783401489,43.3791427612,87.3722000122,0.0652409792,-0.0065627694,-0.0083369017,
139.123,-3.2920746803,1.3894605637,15.7144632339,0.0628225058,0.0412957929,0.0082927346,-115.1174392700,72.8962402344,61.2132873535,0.0246213675,0.0723096132,0.0148839951,-10.5431575775,84.2835769653,104.9876937866,0.0243239403,0.0239939094,0.0225017071,42.4803657532,43.3807106018,87.3807144165,0.0662373900,-0.0099872649,-0.0097718239,
139.133,-3.2934527397,1.3905550241,15.7155570984,0.0604001954,0.0462025851,0.0024353266,-115.1324081421,72.9085388184,61.2097129822,0.0222430825,0.0657440722,0.0241442919,-10.5205507278,84.2821426392,105.0211181641,0.0218800306,0.0298185945,0.0239329934,42.4813880920,43.3827705383,87.3887176514,0.0599158406,-0.0050971806,-0.0082792044,
139.143,-3.2947702408,1.3924076557,15.7166080475,0.0579911172,0.0398778357,0.0097618103,-115.1488952637,72.9159774780,61.2048759460,0.0291171670,0.0675487518,0.0124499202,-10.5179386139,84.2800827026,105.0355148315,0.0218764544,0.0293321311,0.0243860483,42.4809722900,43.3823318481,87.3962249756,0.0662579536,-0.0090031326,-0.0092635751,
139.153,-3.2950701714,1.3908714056,15.7177810669,0.0633354038,0.0413479395,0.0068312883,-115.1719970703,72.9202728271,61.1942176819,0.0306040049,0.0605979562,0.0047146082,-10.4955053329,84.2771987915,105.0686111450,0.0272425413,0.0268602669,0.0253081918,42.4782791138,43.3819808960,87.4010925293,0.0647886992,-0.0148401558,0.0038939714,
139.163,-3.2935025692,1.3888849020,15.7171726227,0.0623241812,0.0437620915,0.0048763752,-115.1967239380,72.9191513062,61.1830978394,0.0242506266,0.0551899374,0.0019079447,-10.5008888245,84.2751846313,105.0750732422,0.0262624621,0.0224812925,0.0272302628,42.4775466919,43.3816642761,87.4088516235,0.0686909556,-0.0104412138,-0.0034390092,
139.173,-3.2942712307,1.3900755644,15.7189178467,0.0559972972,0.0418223292,0.0048775673,-115.2088928223,72.9152221680,61.1884918213,0.0276484489,0.0591286421,0.0093165040,-10.4870510101,84.2766571045,105.0980758667,0.0233353376,0.0258708000,0.0155296326,42.4756927490,43.3824501038,87.4148178101,0.0667477250,-0.0143239200,-0.0044250488,
139.183,-3.2948675156,1.3880872726,15.7213153839,0.0652399510,0.0423210412,0.0087835789,-115.2111740112,72.9086074829,61.2017974854,0.0285910964,0.0538522005,0.0127919912,-10.4739341736,84.2775802612,105.1201324463,0.0243135095,0.0253566802,0.0272598863,42.4751396179,43.3821029663,87.4218063354,0.0691847205,-0.0065090060,0.0043566227,
139.193,-3.2952711582,1.3890514374,15.7218341827,0.0589091145,0.0452577323,0.0117135048,-115.2089309692,72.9011764526,61.2158660889,0.0270881057,0.0549451113,0.0142991543,-10.4721498489,84.2767257690,105.1302490234,0.0248003006,0.0243795216,0.0238276720,42.4722900391,43.3848228455,87.4273376465,0.0614067912,-0.0147610307,-0.0000382662,
139.203,-3.2958440781,1.3900856972,15.7240886688,0.0613685697,0.0379434675,0.0170862675,-115.2176361084,72.8899230957,61.2176895142,0.0265420675,0.0629085004,0.0056303144,-10.4805364609,84.2762756348,105.1307678223,0.0223581195,0.0234190524,0.0223579407,42.4738540649,43.3844985962,87.4364776611,0.0638440847,-0.0001298785,-0.0053989887,
139.213,-3.2952179909,1.3944488764,15.7257003784,0.0536321960,0.0423269942,0.0107393861,-115.2120208740,72.8784332275,61.2295951843,0.0245299339,0.0596750975,0.0081269145,-10.4668064117,84.2767257690,105.1541595459,0.0267534256,0.0233936608,0.0223609805,42.4721679688,43.3871574402,87.4418258667,0.0594832301,-0.0166942179,-0.0068545341,
139.223,-3.2940878868,1.3934708834,15.7262468338,0.0633807629,0.0442604609,0.0063433647,-115.2056808472,72.8674850464,61.2383728027,0.0244736671,0.0647366047,0.0037804842,-10.4966268539,84.2780990601,105.1332702637,0.0282206535,0.0234414339,0.0287417769,42.4687271118,43.3873519897,87.4466857910,0.0648568273,-0.0137306750,0.0019067526,
139.233,-3.2932324409,1.3943096399,15.7286272049,0.0575360171,0.0452220961,0.0107374191,-115.1768188477,72.8599548340,61.2596015930,0.0215052366,0.0566124916,0.0115114450,-10.5318117142,84.2820739746,105.1060333252,0.0267627239,0.0186078548,0.0180770755,42.4690055847,43.3852844238,87.4536514282,0.0731313825,-0.0039843321,0.0014026165,
139.243,-3.2922155857,1.3932934999,15.7273988724,0.0609362572,0.0461809672,0.0043882728,-115.1392898560,72.8515396118,61.2843894958,0.0302510262,0.0626812875,0.0123720765,-10.5524377823,84.2822418213,105.0925750732,0.0184622407,0.0210847855,0.0219928026,42.4656066895,43.3815460205,87.4568023682,0.0755253434,-0.0132601857,0.0023168921,
139.253,-3.2937188148,1.3950260878,15.7296857834,0.0565719530,0.0369297713,0.0117148161,-115.1046600342,72.8489608765,61.3100013733,0.0277963281,0.0715844631,0.0151580572,-10.5903253555,84.2839889526,105.0600814819,0.0238363743,0.0196806490,0.0127571225,42.4675407410,43.3820915222,87.4643707275,0.0682080984,-0.0074145198,-0.0025445223,
139.263,-3.2932190895,1.3959627151,15.7289342880,0.0585414246,0.0378976092,0.0053670406,-115.0734252930,72.8477172852,61.3391532898,0.0185126066,0.0721598268,0.0150207281,-10.6085634232,84.2853622437,105.0501861572,0.0243270397,0.0250794888,0.0240153074,42.4703941345,43.3841094971,87.4707412720,0.0618859529,-0.0137725472,-0.0088499188,
139.273,-3.2938349247,1.3964438438,15.7294635773,0.0605029464,0.0466973893,0.0087857842,-115.0506744385,72.8469924927,61.3638496399,0.0243682265,0.0727090240,0.0080835819,-10.6163196564,84.2832641602,105.0494613647,0.0209054351,0.0241228938,0.0298429132,42.4749374390,43.3866500854,87.4797897339,0.0643596649,-0.0074468255,-0.0131829977,
139.283,-3.2953329086,1.3977583647,15.7292928696,0.0595493168,0.0393992253,0.0073231459,-115.0427551270,72.8439407349,61.3783111572,0.0209345818,0.0693540871,-0.0031626821,-10.6192827225,84.2816238403,105.0558547974,0.0233439803,0.0309691727,0.0244451761,42.4745864868,43.3847007751,87.4845275879,0.0672645569,-0.0118539035,-0.0009963512,
139.293,-3.2939906120,1.3981834650,15.7316732407,0.0590684563,0.0447469242,0.0131813884,-115.0355453491,72.8417358398,61.3956527710,0.0214114785,0.0664734244,0.0051199794,-10.6479616165,84.2788467407,105.0348739624,0.0267571211,0.0188209414,0.0322206616,42.4765281677,43.3862571716,87.4918899536,0.0619132519,-0.0157656670,-0.0126847625,
139.303,-3.2944881916,1.3983174562,15.7346668243,0.0580942295,0.0403610617,0.0141581893,-115.0404891968,72.8400421143,61.4036979675,0.0253090262,0.0708822310,0.0041785240,-10.6787061691,84.2789840698,105.0149993896,0.0243159533,0.0188741684,0.0229560733,42.4796600342,43.3835868835,87.5008010864,0.0672504902,-0.0045860410,-0.0053569674,
139.313,-3.2955355644,1.3978421688,15.7364511490,0.0619921871,0.0472152494,0.0097646117,-115.0422058105,72.8403625488,61.4176254272,0.0292169452,0.0689210892,0.0129732490,-10.7065954208,84.2764511108,104.9966125488,0.0252881050,0.0199072063,0.0273189545,42.4781455994,43.3802452087,87.5076828003,0.0755088329,-0.0138764977,-0.0019825697,
139.323,-3.2959051132,1.3973097801,15.7375593185,0.0639360175,0.0433154479,0.0024408102,-115.0403671265,72.8373565674,61.4341735840,0.0257834792,0.0611568689,0.0124976635,-10.7204113007,84.2786788940,104.9925384521,0.0208974481,0.0233427584,0.0180805326,42.4802970886,43.3776512146,87.5148086548,0.0788938999,-0.0095228851,-0.0083337426,
139.333,-3.2942821980,1.3965132236,15.7406244278,0.0590393096,0.0457286127,0.0087863803,-115.0614395142,72.8399429321,61.4263534546,0.0297030210,0.0664438903,0.0067187548,-10.7358798981,84.2804260254,104.9883651733,0.0272481441,0.0253170133,0.0200701356,42.4763603210,43.3770065308,87.5187377930,0.0686318278,-0.0163272917,-0.0020258427,
139.343,-3.2949202061,1.3959712982,15.7417678833,0.0619595423,0.0423217714,0.0058570504,-115.0809326172,72.8452224731,61.4128646851,0.0292419195,0.0668096840,0.0097024441,-10.7421388626,84.2791900635,104.9911727905,0.0296874046,0.0194726586,0.0263981223,42.4765205383,43.3759880066,87.5245742798,0.0749666095,-0.0090127289,-0.0044748187,
139.353,-3.2912523746,1.3986717463,15.7410755157,0.0546824448,0.0510468781,0.0107371807,-115.0972595215,72.8512878418,61.3989219666,0.0258551836,0.0622885525,0.0077827573,-10.7292470932,84.2805633545,105.0131988525,0.0248069763,0.0213989913,0.0195804834,42.4779739380,43.3788414001,87.5325393677,0.0691434145,-0.0148626268,-0.0098081827,
139.363,-3.2894585133,1.3972431421,15.7428712845,0.0653997064,0.0485742539,0.0112231970,-115.1144180298,72.8579940796,61.3845939636,0.0234482884,0.0660562515,0.0102571845,-10.7032690048,84.2789459229,105.0480422974,0.0218744874,0.0281946659,0.0263807774,42.4785041809,43.3783721924,87.5392837524,0.0710905194,-0.0114534497,-0.0054132342,
139.373,-3.2905220985,1.3992582560,15.7445020676,0.0595754869,0.0407802314,0.0063424706,-115.1360015869,72.8638305664,61.3665695190,0.0264080167,0.0634799004,0.0059223175,-10.6753244400,84.2769241333,105.0853500366,0.0233358145,0.0247339308,0.0273165107,42.4763298035,43.3799209595,87.5420837402,0.0623211265,-0.0158151090,-0.0020002127,
139.383,-3.2921760082,1.3995748758,15.7461776733,0.0634872615,0.0408090390,0.0092740059,-115.1558380127,72.8686294556,61.3478279114,0.0274091959,0.0628762543,0.0059810281,-10.6332292557,84.2722091675,105.1345291138,0.0223510265,0.0290699303,0.0335696936,42.4772644043,43.3793296814,87.5474472046,0.0725675821,-0.0099692643,-0.0088335276,
139.393,-3.2917788029,1.3990629911,15.7485542297,0.0620134883,0.0437318087,0.0034135580,-115.1713562012,72.8732147217,61.3325080872,0.0240148306,0.0578904450,0.0084624887,-10.6145820618,84.2690582275,105.1589813232,0.0228338242,0.0217226148,0.0281420350,42.4780960083,43.3819389343,87.5530929565,0.0662530065,-0.0148387253,-0.0039204955,
139.403,-3.2908720970,1.4016486406,15.7496328354,0.0557109453,0.0432276763,0.0195273757,-115.1824493408,72.8822250366,61.3275260925,0.0221080184,0.0689602792,0.0138216019,-10.6002998352,84.2701187134,105.1823425293,0.0213708282,0.0216944218,0.0232715607,42.4767761230,43.3838996887,87.5576171875,0.0638364553,-0.0138339996,-0.0058676004,
139.413,-3.2934541702,1.4015851021,15.7495498657,0.0581512414,0.0354601517,0.0136702061,-115.1896057129,72.8852310181,61.3284416199,0.0245648623,0.0586456358,0.0192046762,-10.5971126556,84.2689895630,105.1926803589,0.0223454237,0.0221806765,0.0252047181,42.4791030884,43.3823127747,87.5637435913,0.0711405277,-0.0094740987,-0.0058616400,
139.423,-3.2942194939,1.4022704363,15.7500085831,0.0620694496,0.0418211296,0.0126948357,-115.1971435547,72.8852615356,61.3298835754,0.0265181065,0.0581403673,0.0070326328,-10.5838928223,84.2695388794,105.2149581909,0.0282057524,0.0250858366,0.0242309570,42.4749374390,43.3796195984,87.5689468384,0.0774540305,-0.0128747821,0.0009148717,
139.433,-3.2951488495,1.4024857283,15.7517690659,0.0596318021,0.0433021486,0.0117194057,-115.1984176636,72.8895492554,61.3389358521,0.0250753164,0.0634441972,0.0201918483,-10.5799560547,84.2704238892,105.2279205322,0.0247893333,0.0201931000,0.0222930312,42.4718856812,43.3803329468,87.5730361938,0.0613498092,-0.0118639171,0.0018715858,
139.443,-3.2934534550,1.4019097090,15.7523307800,0.0620631576,0.0462023243,0.0087876320,-115.2258453369,72.8905029297,61.3241882324,0.0250802040,0.0677639246,0.0017583370,-10.5653247833,84.2710418701,105.2528076172,0.0223490000,0.0240716636,0.0222994089,42.4745941162,43.3791847229,87.5820159912,0.0706126094,-0.0060391426,-0.0078806281,
139.453,-3.2934041023,1.4029659033,15.7534170151,0.0606167428,0.0447365902,0.0048819780,-115.2267456055,72.8902587891,61.3334426880,0.0236141086,0.0594654083,0.0134829283,-10.5792226791,84.2720031738,105.2492065430,0.0282100439,0.0206753314,0.0232947469,42.4771003723,43.3788909912,87.5911178589,0.0740268230,-0.0050885379,-0.0049326420,
139.463,-3.2943651676,1.4055553675,15.7544279099,0.0596853569,0.0432884321,0.0092787147,-115.2218856812,72.8900909424,61.3427124023,0.0241015553,0.0599663556,0.0159028172,-10.5893907547,84.2708358765,105.2473907471,0.0223486423,0.0221616626,0.0266962647,42.4753646851,43.3785133362,87.5962142944,0.0637681484,-0.0133760870,0.0043266416,
139.473,-3.2918984890,1.4049725533,15.7550954819,0.0577220656,0.0510579757,0.0063458085,-115.2309265137,72.8896789551,61.3343925476,0.0245876908,0.0648355484,0.0012995005,-10.5873289108,84.2716598511,105.2572097778,0.0223500729,0.0211785138,0.0203641057,42.4746131897,43.3776321411,87.6030273438,0.0705928802,-0.0065402091,-0.0035000443,
139.483,-3.2929899693,1.4048690796,15.7568531036,0.0606499463,0.0427762046,0.0087884665,-115.2157211304,72.8905868530,61.3477325439,0.0211743712,0.0629023612,0.0144059062,-10.5891857147,84.2750854492,105.2658996582,0.0208911896,0.0221480429,0.0170012712,42.4779891968,43.3782882690,87.6119232178,0.0676714778,-0.0099844635,-0.0088360906,
139.493,-3.2942662239,1.4060244560,15.7561626434,0.0557872951,0.0423101299,0.0102552176,-115.2081680298,72.8920516968,61.3585777283,0.0265529752,0.0648501217,0.0114303827,-10.6023960114,84.2740554810,105.2602310181,0.0208894014,0.0231506228,0.0257795453,42.4778594971,43.3784866333,87.6175918579,0.0676741004,-0.0109581351,-0.0054174662,
139.503,-3.2947695255,1.4039378166,15.7549333572,0.0625868291,0.0408541039,0.0058603287,-115.2026062012,72.8957366943,61.3696098328,0.0255953670,0.0672479868,0.0147963762,-10.5974416733,84.2698822021,105.2721786499,0.0223469734,0.0251080394,0.0310796499,42.4828109741,43.3769721985,87.6276168823,0.0681431293,-0.0032042563,-0.0068533421,
139.513,-3.2931833267,1.4027215242,15.7579288483,0.0645187274,0.0457093157,0.0014635921,-115.2013092041,72.9002227783,61.3747978210,0.0197589993,0.0666952431,0.0162234902,-10.6220960617,84.2711410522,105.2559661865,0.0257671475,0.0207528472,0.0174360871,42.4857673645,43.3778991699,87.6353302002,0.0681548715,-0.0115253925,-0.0131685734,
139.523,-3.2929859161,1.4046310186,15.7584104538,0.0577161089,0.0452175476,0.0112300515,-115.1963272095,72.9041213989,61.3844375610,0.0275915265,0.0646943450,0.0161725283,-10.6183633804,84.2710723877,105.2686614990,0.0213724971,0.0236760974,0.0218290091,42.4861564636,43.3795852661,87.6414337158,0.0628051758,-0.0139566064,-0.0019187927,
139.533,-3.2945952415,1.4030500650,15.7596311569,0.0611064881,0.0432925001,0.0000001192,-115.1872253418,72.9073410034,61.3951454163,0.0285845995,0.0602712035,0.0141541958,-10.6054878235,84.2726898193,105.2886657715,0.0169807673,0.0251134038,0.0238047838,42.4842453003,43.3784332275,87.6468963623,0.0725561976,-0.0105300546,0.0019609928,
139.543,-3.2955091000,1.4038090706,15.7618589401,0.0664908290,0.0433084033,0.0126969814,-115.1796875000,72.9115295410,61.4028244019,0.0242115259,0.0636421740,0.0165310502,-10.6195793152,84.2724151611,105.2824325562,0.0267459154,0.0231860280,0.0189203620,42.4834175110,43.3784637451,87.6524581909,0.0627909899,-0.0129635334,-0.0034173727,
139.553,-3.2950274944,1.4024727345,15.7636728287,0.0625612587,0.0462297313,0.0014653802,-115.1711502075,72.9161834717,61.4109916687,0.0247237086,0.0606615543,0.0154817104,-10.6290349960,84.2723464966,105.2819366455,0.0213747025,0.0212494433,0.0208768249,42.4803543091,43.3812370300,87.6563491821,0.0623378158,-0.0138888955,0.0029293299,
139.563,-3.2940382957,1.4038535357,15.7654161453,0.0577025414,0.0457241833,0.0122073889,-115.1877288818,72.9234161377,61.3967857361,0.0247607827,0.0722349584,-0.0035353303,-10.6108112335,84.2744598389,105.3061752319,0.0316323042,0.0246290565,0.0165108442,42.4810142517,43.3807144165,87.6631088257,0.0662374496,-0.0104815364,-0.0009770989,
139.573,-3.2938435078,1.4043049812,15.7659368515,0.0606401041,0.0452324972,0.0097655654,-115.1975097656,72.9320220947,61.3912658691,0.0248048902,0.0725725293,0.0086563230,-10.5832815170,84.2721023560,105.3407516479,0.0282102227,0.0255647898,0.0320875645,42.4777755737,43.3805618286,87.6673507690,0.0696535110,-0.0148468614,0.0004595518,
139.583,-3.2934725285,1.4047739506,15.7651891708,0.0626014173,0.0437611751,0.0131837130,-115.2007369995,72.9394531250,61.3952751160,0.0238663554,0.0646406412,0.0178961158,-10.5669975281,84.2708358765,105.3639984131,0.0208837986,0.0245634317,0.0305980444,42.4795875549,43.3822250366,87.6731948853,0.0638151765,-0.0094792247,-0.0078111291,
139.593,-3.2925157547,1.4038226604,15.7651271820,0.0630730987,0.0437445380,0.0039045811,-115.2050247192,72.9480056763,61.4010467529,0.0258632898,0.0635261834,0.0149255991,-10.5874319077,84.2696762085,105.3516311646,0.0233231783,0.0163024962,0.0242346525,42.4788703918,43.3822975159,87.6786117554,0.0652809739,-0.0124017000,-0.0083053708,
139.603,-3.2926726341,1.4021992683,15.7663345337,0.0615799278,0.0417941846,0.0092757344,-115.2160491943,72.9548568726,61.4028244019,0.0244334936,0.0638873875,0.0085806251,-10.5705776215,84.2681732178,105.3778839111,0.0218557119,0.0275079310,0.0251818895,42.4798316956,43.3828849792,87.6862640381,0.0638235211,-0.0099644363,-0.0024317503,
139.613,-3.2919871807,1.4008910656,15.7650375366,0.0639985055,0.0408057123,0.0019499063,-115.2111434937,72.9631805420,61.4151573181,0.0274057388,0.0603545904,0.0187526941,-10.5552148819,84.2674179077,105.4034423828,0.0267372131,0.0255302191,0.0222347975,42.4830017090,43.3834228516,87.6947326660,0.0667601228,-0.0070602298,-0.0063071847,
139.623,-3.2912664413,1.4017298222,15.7655735016,0.0571772046,0.0427462645,0.0112270117,-115.2187805176,72.9718170166,61.4121894836,0.0298913121,0.0621610284,0.0074965954,-10.5586242676,84.2667312622,105.4077377319,0.0189235210,0.0245618224,0.0217357874,42.4812889099,43.3830833435,87.6993484497,0.0706620812,-0.0080232918,-0.0004644990,
139.633,-3.2929372787,1.4005862474,15.7648983002,0.0615517832,0.0388691463,0.0058570504,-115.2289199829,72.9845199585,61.4063224792,0.0250734091,0.0643890798,0.0123363137,-10.5350513458,84.2642364502,105.4395370483,0.0218488574,0.0225748420,0.0265713334,42.4793968201,43.3860473633,87.7043075562,0.0648403168,-0.0138410926,-0.0082676411,
139.643,-3.2924382687,1.4003058672,15.7648029327,0.0630117357,0.0442315564,0.0078094602,-115.2396163940,72.9978179932,61.3983230591,0.0270944238,0.0675835609,0.0093619227,-10.5141448975,84.2633819580,105.4670181274,0.0257536173,0.0240058303,0.0250846148,42.4840393066,43.3894767761,87.7129821777,0.0639072061,-0.0079973638,-0.0121033192,
139.653,-3.2934484482,1.3976771832,15.7647686005,0.0668721199,0.0432726517,0.0058563352,-115.2391357422,73.0101928711,61.4016609192,0.0242278576,0.0590980649,0.0180608630,-10.5127325058,84.2624588013,105.4761276245,0.0233106017,0.0240061581,0.0221394300,42.4846687317,43.3911895752,87.7188339233,0.0688117146,-0.0104308724,-0.0091533065,
139.663,-3.2939758301,1.3956927061,15.7678289413,0.0629312396,0.0447467305,0.0014614463,-115.2533721924,73.0228424072,61.3938903809,0.0223392248,0.0603407919,0.0038768053,-10.5158414841,84.2612304688,105.4801864624,0.0194022059,0.0220623314,0.0255376101,42.4837303162,43.3920707703,87.7226028442,0.0600338578,-0.0152977109,0.0030534267,
139.673,-3.2929902077,1.3954145908,15.7702789307,0.0570670180,0.0457061343,0.0078081489,-115.2569732666,73.0356445313,61.3957672119,0.0277755260,0.0576987863,0.0135682225,-10.5041542053,84.2646102905,105.4977951050,0.0218495131,0.0274024606,0.0192426443,42.4850730896,43.3873214722,87.7289428711,0.0746220350,-0.0070480108,-0.0038130879,
139.683,-3.2928221226,1.3963249922,15.7707691193,0.0609891489,0.0452148989,0.0043899417,-115.2554168701,73.0472793579,61.4064788818,0.0263699293,0.0604567528,0.0198259354,-10.5260677338,84.2630386353,105.4831237793,0.0272178650,0.0215866268,0.0226396322,42.4872589111,43.3839988708,87.7360229492,0.0731151104,-0.0056304336,-0.0004057288,
139.693,-3.2914946079,1.3969610929,15.7724866867,0.0580705628,0.0383558199,0.0092722774,-115.2651290894,73.0540084839,61.4072151184,0.0278689861,0.0603350997,0.0056628585,-10.5179853439,84.2632827759,105.4957275391,0.0223354697,0.0259660184,0.0226426125,42.4870262146,43.3860168457,87.7412109375,0.0638633370,-0.0153775513,-0.0077140331,
139.703,-3.2912826538,1.3970587254,15.7730369568,0.0575839877,0.0388404094,0.0097598433,-115.2670059204,73.0590667725,61.4136085510,0.0298478603,0.0597653687,0.0110066533,-10.5282068253,84.2624969482,105.4907302856,0.0223340988,0.0254979730,0.0187272429,42.4897689819,43.3847312927,87.7497177124,0.0677532554,-0.0076011419,-0.0037956834,
139.713,-3.2916212082,1.3966745138,15.7742166519,0.0595304035,0.0432408489,0.0136668682,-115.2660903931,73.0626525879,61.4191551208,0.0269364119,0.0567843914,0.0031643510,-10.5481338501,84.2627716064,105.4805068970,0.0247759819,0.0221145153,0.0236184001,42.4865760803,43.3839302063,87.7533264160,0.0623720288,-0.0207612813,0.0074008107,
139.723,-3.2927594185,1.3968358040,15.7741165161,0.0595332161,0.0383778550,0.0141557455,-115.2519912720,73.0652847290,61.4362983704,0.0328091383,0.0606818795,0.0152876973,-10.5451383591,84.2639999390,105.4917678833,0.0296609402,0.0260115266,0.0226624012,42.4877243042,43.3861770630,87.7596664429,0.0624005198,-0.0119649768,-0.0038011074,
139.733,-3.2928049564,1.3981168270,15.7740049362,0.0576024428,0.0422848761,0.0097621083,-115.2267303467,73.0707473755,61.4648551941,0.0264892578,0.0611426234,0.0185503364,-10.5630340576,84.2638626099,105.4803924561,0.0179419518,0.0216486156,0.0187607408,42.4921417236,43.3857612610,87.7700195313,0.0702077150,-0.0076150000,-0.0106019974,
139.743,-3.2909007072,1.3980251551,15.7750787735,0.0644367859,0.0427399799,-0.0000054836,-115.2212295532,73.0717315674,61.4704437256,0.0269825459,0.0572334826,0.0058225989,-10.5800161362,84.2606506348,105.4728622437,0.0233074427,0.0231533349,0.0309190750,42.4967041016,43.3850784302,87.7787322998,0.0701990724,-0.0081514418,-0.0115454197,
139.753,-3.2896122932,1.3995161057,15.7767438889,0.0615331121,0.0446706228,0.0097593665,-115.1945343018,73.0771026611,61.4910621643,0.0187090635,0.0562338233,0.0144504905,-10.5823822021,84.2605133057,105.4782791138,0.0286782980,0.0231578946,0.0187106133,42.4939460754,43.3848114014,87.7824859619,0.0648245811,-0.0120341182,0.0064945817,
139.763,-3.2864305973,1.4005224705,15.7760829926,0.0561795756,0.0451034643,0.0058504343,-115.1860961914,73.0844650269,61.4927291870,0.0275355577,0.0683479905,0.0031289458,-10.5762786865,84.2627029419,105.4909210205,0.0208696127,0.0270467401,0.0167913437,42.4946823120,43.3823471069,87.7890167236,0.0706527233,-0.0110844374,-0.0032866001,
139.773,-3.2880690098,1.4019110203,15.7765865326,0.0571803674,0.0431788415,0.0043879747,-115.1861190796,73.0918273926,61.4903335571,0.0251315236,0.0653072000,0.0055182576,-10.6009674072,84.2614059448,105.4734268188,0.0228204727,0.0187931955,0.0280085802,42.4942474365,43.3837471008,87.7943038940,0.0643228292,-0.0193697810,-0.0062075853,
139.783,-3.2909963131,1.4013237953,15.7790231705,0.0581466854,0.0427415669,0.0078086257,-115.1860275269,73.1004333496,61.4903793335,0.0227337480,0.0695728958,0.0113161206,-10.5957698822,84.2621231079,105.4844894409,0.0277045369,0.0256177783,0.0226478577,42.4976463318,43.3836326599,87.8013153076,0.0682275891,-0.0067071915,-0.0017848015,
139.793,-3.2894763947,1.4013887644,15.7825822830,0.0625423491,0.0432033688,0.0078066587,-115.1836090088,73.1061706543,61.4965057373,0.0315518975,0.0685146451,0.0117526650,-10.6037206650,84.2605133057,105.4836730957,0.0223306417,0.0222188830,0.0240877867,42.4980812073,43.3843688965,87.8064880371,0.0692135096,-0.0091466308,-0.0012863874,
139.803,-3.2914278507,1.4031075239,15.7855091095,0.0567129627,0.0417724773,0.0107394457,-115.1769104004,73.1136245728,61.5091819763,0.0228006840,0.0669521093,0.0170401931,-10.6222362518,84.2636566162,105.4723281860,0.0233126879,0.0256594419,0.0158456564,42.4978179932,43.3849449158,87.8126754761,0.0731270909,-0.0149989128,-0.0066545010,
139.813,-3.2899360657,1.4017323256,15.7867584229,0.0605952181,0.0476059020,0.0058546066,-115.1829910278,73.1214370728,61.5133819580,0.0252816677,0.0638911724,0.0101768970,-10.6373167038,84.2656402588,105.4649353027,0.0242927074,0.0222613215,0.0173507929,42.4963607788,43.3835678101,87.8173751831,0.0618790984,-0.0037660301,-0.0013081431,
139.823,-3.2917795181,1.4027011395,15.7879438400,0.0547527447,0.0422668904,0.0131806135,-115.1977081299,73.1293106079,61.5120391846,0.0238566995,0.0681355298,0.0092122555,-10.6427783966,84.2658386230,105.4697265625,0.0189219713,0.0252003074,0.0276075602,42.5002021790,43.3853530884,87.8275604248,0.0594603419,-0.0101351738,-0.0061422586,
139.833,-3.2906980515,1.4040646553,15.7890386581,0.0596593469,0.0461542718,0.0082975626,-115.2097015381,73.1392822266,61.5136108398,0.0234189034,0.0733304918,0.0106615424,-10.6440382004,84.2635879517,105.4785385132,0.0233125687,0.0252094567,0.0285475850,42.5000724792,43.3868560791,87.8348007202,0.0604559779,-0.0115866363,0.0011941195,
139.843,-3.2914805412,1.4047491550,15.7895698547,0.0577181689,0.0417733565,0.0112284422,-115.2121200562,73.1456069946,61.5213279724,0.0317516923,0.0654175580,0.0076979995,-10.6392335892,84.2633132935,105.4939651489,0.0238003731,0.0286200345,0.0226812363,42.4975242615,43.3858528137,87.8399810791,0.0682557225,-0.0115709305,-0.0003014207,
139.853,-3.2939167023,1.4056329727,15.7900304794,0.0591984317,0.0359563939,0.0122077465,-115.2174606323,73.1539459229,61.5257873535,0.0303290486,0.0643039048,0.0096164346,-10.6375617981,84.2636871338,105.5045928955,0.0286838412,0.0232445300,0.0212239027,42.4964179993,43.3889465332,87.8477935791,0.0604825020,-0.0154417753,-0.0061429143,
139.863,-3.2926702499,1.4031443596,15.7900819778,0.0620846972,0.0447238088,0.0053691864,-115.2192764282,73.1619338989,61.5340995789,0.0284163356,0.0612492263,0.0124979019,-10.6189641953,84.2649536133,105.5340042114,0.0208735466,0.0280908942,0.0187969804,42.4950714111,43.3927650452,87.8528976440,0.0649254322,-0.0193044543,-0.0090499520,
139.873,-3.2936406136,1.4043047428,15.7918033600,0.0562455729,0.0388813093,0.0097659230,-115.2362670898,73.1690826416,61.5299682617,0.0289407372,0.0659883022,0.0061773658,-10.6142892838,84.2677612305,105.5508193970,0.0233198404,0.0246561170,0.0168882012,42.4950027466,43.3928985596,87.8601760864,0.0702982545,-0.0085605979,-0.0080732107,
139.883,-3.2941763401,1.4028373957,15.7929601669,0.0630559027,0.0384023972,0.0058585405,-115.2439727783,73.1763153076,61.5358619690,0.0289772749,0.0600028634,0.0134856105,-10.6176052094,84.2666625977,105.5576477051,0.0306421518,0.0251535475,0.0237073302,42.4906578064,43.3932533264,87.8634490967,0.0668847561,-0.0109584928,0.0036115050,
139.893,-3.2928667068,1.4047440290,15.7934732437,0.0557649508,0.0447271876,0.0175775290,-115.2574844360,73.1794586182,61.5353012085,0.0324111581,0.0633444488,0.0125486255,-10.5951204300,84.2660827637,105.5885925293,0.0223403573,0.0212098360,0.0227132440,42.4884529114,43.3934173584,87.8692474365,0.0639572144,-0.0075185597,0.0006644726,
139.903,-3.2933650017,1.4041246176,15.7935056686,0.0577072725,0.0471772961,0.0058588982,-115.2793502808,73.1787109375,61.5262603760,0.0309424996,0.0589138567,-0.0010176897,-10.5985641479,84.2655334473,105.5954132080,0.0179448724,0.0192643702,0.0256354213,42.4831695557,43.3940277100,87.8713302612,0.0668945909,-0.0089289844,0.0025775433,
139.913,-3.2931802273,1.4018236399,15.7947053909,0.0640147775,0.0408264771,0.0107405782,-115.2922515869,73.1787643433,61.5193748474,0.0255717039,0.0613270402,0.0034355521,-10.5852289200,84.2652969360,105.6196594238,0.0277100801,0.0211949646,0.0246499777,42.4855270386,43.3965072632,87.8804168701,0.0669260621,-0.0060012937,-0.0090990663,
139.923,-3.2935745716,1.4011642933,15.7945690155,0.0664446801,0.0432747602,0.0068345666,-115.3040618896,73.1825408936,61.5114784241,0.0231493711,0.0622212887,0.0142049789,-10.5623273849,84.2648162842,105.6508712769,0.0164787769,0.0235974491,0.0226833224,42.4861297607,43.3993568420,87.8886871338,0.0728215575,-0.0108666718,-0.0105331540,
139.933,-3.2935934067,1.4039850235,15.7962150574,0.0567282736,0.0422984622,0.0053709745,-115.3076019287,73.1875991821,61.5094299316,0.0221983194,0.0636017025,0.0171148777,-10.5533800125,84.2648849487,105.6683120728,0.0262445211,0.0211401582,0.0212166309,42.4859428406,43.4000663757,87.8946228027,0.0669711828,-0.0113475025,-0.0041813254,
139.943,-3.2930691242,1.4039345980,15.7973012924,0.0645398945,0.0442424528,0.0063469410,-115.3135757446,73.1876754761,61.5053253174,0.0256167054,0.0601701140,0.0103057623,-10.5367412567,84.2634506226,105.6920547485,0.0203826427,0.0245334804,0.0294877291,42.4879684448,43.4011077881,87.9008255005,0.0669844151,-0.0118462741,-0.0061078668,
139.953,-3.2931399345,1.4019539356,15.7991056442,0.0649936199,0.0442437343,0.0063461065,-115.3187484741,73.1884231567,61.5046768188,0.0261087418,0.0630771816,0.0103242397,-10.5383405685,84.2575759888,105.6985397339,0.0203723907,0.0284610689,0.0328062773,42.4869041443,43.4019584656,87.9067535400,0.0665069222,-0.0113411844,0.0017029643,
139.963,-3.2935242653,1.4041794538,15.8002243042,0.0523371324,0.0388792753,0.0078122616,-115.3127212524,73.1824798584,61.5190200806,0.0246139169,0.0524374545,0.0118036866,-10.5636806488,84.2602081299,105.6809768677,0.0286777616,0.0211728811,0.0162584186,42.4893188477,43.4001655579,87.9155197144,0.0728318095,-0.0030775070,-0.0036633015,
139.973,-3.2926743031,1.4054412842,15.8013410568,0.0577302426,0.0432589799,0.0039056540,-115.3099136353,73.1792984009,61.5318603516,0.0221564174,0.0568858385,0.0142549872,-10.5638713837,84.2606506348,105.6921844482,0.0228191614,0.0255662799,0.0304263830,42.4876365662,43.4000015259,87.9209594727,0.0684351921,-0.0108755231,-0.0041671395,
139.983,-3.2902328968,1.4053485394,15.8043222427,0.0630997196,0.0485875420,0.0112273693,-115.3007202148,73.1755065918,61.5513038635,0.0289732218,0.0662402511,0.0200991631,-10.5523967743,84.2563858032,105.7111053467,0.0179288983,0.0275126696,0.0347453952,42.4892959595,43.4003944397,87.9285125732,0.0640456676,-0.0099113286,-0.0075674653,
139.993,-3.2911703587,1.4052323103,15.8054218292,0.0626094043,0.0412796587,0.0058572292,-115.2983551025,73.1692276001,61.5616645813,0.0308945775,0.0565746427,0.0084142089,-10.5556526184,84.2553253174,105.7161712646,0.0218333006,0.0245921016,0.0269155502,42.4898643494,43.3988380432,87.9352569580,0.0664673448,-0.0074878037,-0.0095294714,
140.003,-3.2890529633,1.4044340849,15.8078260422,0.0611306429,0.0431959219,0.0107377172,-115.2955780029,73.1604614258,61.5685768127,0.0264557600,0.0557359457,0.0074874163,-10.5875215530,84.2557373047,105.6947097778,0.0237871408,0.0163459182,0.0220501423,42.4895133972,43.3995170593,87.9414978027,0.0650111437,-0.0089438856,-0.0031787753,
140.013,-3.2898592949,1.4044561386,15.8089294434,0.0621075891,0.0417451225,0.0053673983,-115.2924270630,73.1515274048,61.5697135925,0.0293402672,0.0583187342,0.0065599680,-10.5859785080,84.2578201294,105.7040939331,0.0218376517,0.0217078626,0.0230606794,42.4893646240,43.4000129700,87.9474563599,0.0655056834,-0.0094268322,-0.0021994114,
140.023,-3.2895200253,1.4045577049,15.8088340759,0.0616210774,0.0436923355,0.0063437223,-115.2883300781,73.1412658691,61.5689277649,0.0283117890,0.0570169687,0.0027077794,-10.5752859116,84.2560424805,105.7234573364,0.0232993960,0.0251120329,0.0313320160,42.4870071411,43.3974571228,87.9519271851,0.0718209147,-0.0108903050,0.0041054487,
140.033,-3.2914559841,1.4057836533,15.8106060028,0.0538299680,0.0398197733,0.0082992315,-115.2813720703,73.1340789795,61.5724525452,0.0258339643,0.0639764667,0.0129809976,-10.5671606064,84.2560729980,105.7396316528,0.0247642994,0.0246102512,0.0244884491,42.4833450317,43.3970985413,87.9562683105,0.0703514814,-0.0113470852,0.0035832524,
140.043,-3.2902913094,1.4054343700,15.8123788834,0.0616363734,0.0441940278,0.0122038722,-115.2761459351,73.1257553101,61.5778541565,0.0199324489,0.0626483262,0.0144808888,-10.5663299561,84.2565536499,105.7484512329,0.0247651339,0.0270480216,0.0249888897,42.4821548462,43.3966674805,87.9618911743,0.0630218387,-0.0113396645,0.0011267066,
140.053,-3.2929136753,1.4050126076,15.8134307861,0.0635821372,0.0354506560,0.0034179091,-115.2848587036,73.1164855957,61.5732765198,0.0306276679,0.0642337203,0.0053096414,-10.5620517731,84.2572326660,105.7623367310,0.0276960135,0.0285037458,0.0235307813,42.4829292297,43.3953514099,87.9712066650,0.0717942119,-0.0113573968,-0.0032719374,
140.063,-3.2931621075,1.4066872597,15.8162956238,0.0611699522,0.0413143188,0.0107422471,-115.2789154053,73.1088485718,61.5888175964,0.0261943936,0.0638733208,0.0170553327,-10.5685882568,84.2590103149,105.7633895874,0.0237928629,0.0250911117,0.0162422061,42.4825439453,43.3940620422,87.9792098999,0.0693364143,-0.0069697499,-0.0008454323,
140.073,-3.2935743332,1.4067404270,15.8174877167,0.0577529147,0.0452277474,0.0063487887,-115.2793273926,73.0973663330,61.5964660645,0.0319955349,0.0567208230,0.0049319267,-10.5653076172,84.2590484619,105.7739562988,0.0228163600,0.0289923549,0.0264900327,42.4844169617,43.3916435242,87.9871215820,0.0737002492,-0.0099365115,-0.0032923222,
140.083,-3.2958459854,1.4078696966,15.8186016083,0.0563077740,0.0364782214,0.0122104883,-115.2831802368,73.0900955200,61.5970726013,0.0290289521,0.0573107600,0.0020715594,-10.5671253204,84.2579193115,105.7802505493,0.0179315805,0.0231389701,0.0225701928,42.4842414856,43.3917846680,87.9936904907,0.0722372532,-0.0148165524,-0.0052456856,
140.093,-3.2966160774,1.4061127901,15.8203868866,0.0621364936,0.0374682471,0.0083044171,-115.2719192505,73.0884399414,61.6094512939,0.0314619541,0.0681021214,0.0171680450,-10.5853366852,84.2579193115,105.7699356079,0.0262323618,0.0178000033,0.0240398645,42.4808769226,43.3911895752,87.9971694946,0.0649054646,-0.0147899091,0.0020445585,
140.103,-3.2959160805,1.4041602612,15.8210430145,0.0606375784,0.0447803251,0.0141623616,-115.2704772949,73.0884628296,61.6123886108,0.0309737921,0.0729876757,0.0088607073,-10.5903453827,84.2597656250,105.7714920044,0.0233058929,0.0251272023,0.0167482495,42.4788894653,43.3914985657,88.0024337769,0.0668625832,-0.0147688091,-0.0072470903,
140.113,-3.2933743000,1.4051090479,15.8227777481,0.0591892898,0.0447360203,0.0112304688,-115.2774810791,73.0907897949,61.6089439392,0.0246379375,0.0709845424,0.0098530054,-10.6116895676,84.2607879639,105.7585601807,0.0179365873,0.0217435956,0.0236074924,42.4796218872,43.3913955688,88.0090255737,0.0668612123,-0.0098937154,-0.0057768822,
140.123,-3.2927913666,1.4041215181,15.8245334625,0.0635665953,0.0422844887,0.0039051771,-115.2881088257,73.0975875854,61.6047706604,0.0266255736,0.0708590746,0.0118065476,-10.6012048721,84.2580184937,105.7765960693,0.0198848844,0.0280814469,0.0250230432,42.4795150757,43.3915252686,88.0143890381,0.0688160062,-0.0094032884,-0.0052882433,
140.133,-3.2943954468,1.4043886662,15.8250398636,0.0611298457,0.0432889871,0.0053718090,-115.3034896851,73.1031112671,61.5951881409,0.0266535878,0.0629300177,0.0050022602,-10.5689229965,84.2587738037,105.8165054321,0.0218393207,0.0314404666,0.0230719447,42.4784393311,43.3885345459,88.0208969116,0.0765905976,-0.0108823180,-0.0033707023,
140.143,-3.2952520847,1.4056571722,15.8242940903,0.0596871376,0.0437921584,0.0102560520,-115.3115539551,73.1076660156,61.5898895264,0.0286298394,0.0647969842,0.0162373185,-10.5695762634,84.2583618164,105.8247299194,0.0247682929,0.0260718465,0.0245298147,42.4755134583,43.3900642395,88.0246200562,0.0668443441,-0.0167018771,-0.0019174814,
140.153,-3.2945098877,1.4040629864,15.8248643875,0.0655186921,0.0471972376,0.0058600307,-115.3324127197,73.1117858887,61.5735702515,0.0271858573,0.0720139146,0.0138625503,-10.5644006729,84.2595596313,105.8395156860,0.0272117853,0.0250825584,0.0235710740,42.4776077271,43.3916168213,88.0323181152,0.0653991699,-0.0113378763,-0.0072569847,
140.163,-3.2949118614,1.4024199247,15.8267030716,0.0615837760,0.0452511497,0.0039067864,-115.3594589233,73.1122817993,61.5548629761,0.0252352357,0.0636463761,0.0061708689,-10.5608625412,84.2596969604,105.8520202637,0.0233057737,0.0216577947,0.0250381231,42.4778366089,43.3908081055,88.0393753052,0.0722248554,-0.0074402690,-0.0057972074,
140.173,-3.2965736389,1.4031653404,15.8290271759,0.0596436635,0.0408855490,0.0000020862,-115.3816299438,73.1103363037,61.5442428589,0.0252254009,0.0606993437,0.0097045302,-10.5558834076,84.2586669922,105.8665847778,0.0267219543,0.0216521025,0.0264850855,42.4770278931,43.3931884766,88.0453033447,0.0615128279,-0.0127846301,-0.0057832599,
140.183,-3.2966108322,1.4053261280,15.8306055069,0.0591930822,0.0335619226,0.0102575421,-115.3970794678,73.1044235229,61.5376091003,0.0251954198,0.0534290969,0.0078648925,-10.5200042725,84.2573013306,105.9110336304,0.0267195702,0.0211056173,0.0323069096,42.4745674133,43.3928298950,88.0509567261,0.0654145479,-0.0103230178,-0.0014127493,
140.193,-3.2948462963,1.4037755728,15.8305406570,0.0674668103,0.0486679487,0.0078131557,-115.4084701538,73.1035919189,61.5346450806,0.0251911879,0.0631824732,0.0142708421,-10.5136785507,84.2603073120,105.9262390137,0.0237951279,0.0264559388,0.0196620822,42.4771842957,43.3942642212,88.0582733154,0.0659210086,-0.0093593895,-0.0062606931,
140.203,-3.2918913364,1.4031722546,15.8293275833,0.0596437827,0.0486164913,0.0087867379,-115.4113540649,73.0976104736,61.5406646729,0.0241842866,0.0515474081,0.0148151517,-10.5037841797,84.2601013184,105.9444274902,0.0242830515,0.0254625678,0.0264918804,42.4752006531,43.3961715698,88.0619277954,0.0635038614,-0.0156730115,-0.0033310652,
140.213,-3.2915816307,1.4031926394,15.8310728073,0.0601324141,0.0412868708,0.0063450336,-115.4024429321,73.0943908691,61.5523147583,0.0280742049,0.0564980507,0.0138204694,-10.4981527328,84.2614059448,105.9588012695,0.0223321915,0.0186131597,0.0221144557,42.4743041992,43.3947563171,88.0679931641,0.0747163296,-0.0127463937,-0.0004215837,
140.223,-3.2936708927,1.4041541815,15.8321952820,0.0567312241,0.0393701158,0.0068358779,-115.4104919434,73.0933456421,61.5437507629,0.0275806189,0.0613785982,0.0070291162,-10.5009918213,84.2598342896,105.9652404785,0.0218411684,0.0249700844,0.0216045976,42.4769859314,43.3973617554,88.0759582520,0.0586361289,-0.0059144497,0.0001127124,
140.233,-3.2941763401,1.4037556648,15.8345394135,0.0640484914,0.0447500311,0.0112308264,-115.4023513794,73.0938034058,61.5512771606,0.0300243497,0.0594370365,0.0177305341,-10.4749631882,84.2592163086,105.9997406006,0.0213518143,0.0244385004,0.0298838019,42.4781455994,43.3981628418,88.0825119019,0.0659704804,-0.0151962340,-0.0023118258,
140.243,-3.2948262691,1.4034167528,15.8369159698,0.0616011694,0.0442730747,0.0087898970,-115.4092330933,73.0950241089,61.5453071594,0.0236828923,0.0642864108,0.0079877973,-10.4907884598,84.2580566406,105.9939193726,0.0237911940,0.0230047107,0.0279184580,42.4760894775,43.3986930847,88.0871582031,0.0684185624,-0.0151726604,-0.0018362999,
140.253,-3.2962636948,1.4027229548,15.8392982483,0.0606125034,0.0394153111,0.0063492060,-115.4004898071,73.0937118530,61.5518722534,0.0310004354,0.0589539409,0.0123515129,-10.5068616867,84.2556686401,105.9862442017,0.0223221779,0.0235288441,0.0264170766,42.4724998474,43.3982276917,88.0912933350,0.0684127212,-0.0131896734,0.0000820756,
140.263,-3.2947750092,1.4022485018,15.8416919708,0.0596276633,0.0432956479,0.0000005960,-115.3873519897,73.0958251953,61.5619735718,0.0236869454,0.0579741895,0.0176469684,-10.4990968704,84.2559738159,106.0034942627,0.0242758393,0.0254673660,0.0269082189,42.4731674194,43.3991432190,88.0983505249,0.0664711595,-0.0146535039,-0.0042991638,
140.273,-3.2937438488,1.4046279192,15.8427820206,0.0562512092,0.0437659100,0.0131831765,-115.3819732666,73.1010437012,61.5705184937,0.0232251287,0.0681614280,0.0122140646,-10.4823760986,84.2568283081,106.0285186768,0.0203710794,0.0264117420,0.0195941329,42.4705505371,43.3977928162,88.1026382446,0.0688954592,-0.0131749809,0.0025027394,
140.283,-3.2957203388,1.4039744139,15.8439855576,0.0581929311,0.0418472290,0.0097677708,-115.3763275146,73.1058731079,61.5830039978,0.0286207199,0.0622416437,0.0116654038,-10.4824161530,84.2573699951,106.0368728638,0.0242782831,0.0225039423,0.0298567414,42.4665489197,43.3941917419,88.1054916382,0.0693380833,-0.0097487569,0.0048779845,
140.293,-3.2961361408,1.4009224176,15.8452281952,0.0644873381,0.0408779867,0.0102546811,-115.3689117432,73.1144104004,61.5970954895,0.0286640525,0.0645709038,0.0164530873,-10.4670791626,84.2547760010,106.0604248047,0.0242737532,0.0259030163,0.0327380896,42.4662895203,43.3946495056,88.1123886108,0.0669024587,-0.0077894628,0.0004856586,
140.303,-3.2947475910,1.4017307758,15.8458261490,0.0552240945,0.0472014323,0.0141601563,-115.3665466309,73.1245651245,61.6107482910,0.0277389288,0.0653997660,0.0119752288,-10.4608068466,84.2566528320,106.0763549805,0.0213473439,0.0258863270,0.0200713277,42.4658050537,43.3929748535,88.1172180176,0.0688343644,-0.0077984035,-0.0034395456,
140.313,-3.2974033356,1.4034731388,15.8468494415,0.0606255904,0.0394351557,0.0126987100,-115.3638992310,73.1376419067,61.6271934509,0.0214574933,0.0676503778,0.0138229132,-10.4588441849,84.2568969727,106.0878982544,0.0252540112,0.0234406590,0.0244697928,42.4669151306,43.3929367065,88.1252670288,0.0722518563,-0.0102505982,-0.0019660592,
140.323,-3.2991168499,1.4053993225,15.8478889465,0.0596826375,0.0428829156,0.0039120913,-115.3642654419,73.1506347656,61.6389923096,0.0200583935,0.0713596940,0.0093374848,-10.4589862823,84.2555313110,106.0971984863,0.0242750645,0.0258866251,0.0278643966,42.4662475586,43.3942031860,88.1323471069,0.0629906058,-0.0131636858,-0.0058664083,
140.333,-3.2989478111,1.4031169415,15.8497142792,0.0640373453,0.0428800359,0.0097703338,-115.3704376221,73.1592483521,61.6472282410,0.0244964957,0.0643809438,0.0000268817,-10.4778375626,84.2578506470,106.0885925293,0.0262322426,0.0239594877,0.0205846429,42.4662666321,43.3930969238,88.1400222778,0.0727422237,-0.0170790553,-0.0039228201,
140.343,-3.2983362675,1.4034333229,15.8521184921,0.0591600537,0.0487287417,0.0043988228,-115.3698272705,73.1675491333,61.6646232605,0.0269798636,0.0662108958,0.0146132112,-10.4872951508,84.2568969727,106.0909500122,0.0223243237,0.0259319246,0.0259443521,42.4659194946,43.3922233582,88.1480789185,0.0673599839,-0.0097587705,-0.0039337277,
140.353,-3.2994291782,1.4032659531,15.8538789749,0.0606219731,0.0428884104,0.0014697909,-115.3765716553,73.1667709351,61.6742630005,0.0294173360,0.0569297969,0.0009779930,-10.4988288879,84.2561798096,106.0897445679,0.0223230720,0.0225367844,0.0298398137,42.4668045044,43.3879814148,88.1566848755,0.0780484080,-0.0112662017,0.0009192228,
140.363,-3.2974705696,1.4070957899,15.8554668427,0.0577591099,0.0448073260,0.0141651034,-115.3718338013,73.1628417969,61.6888656616,0.0264678001,0.0526051521,0.0087965727,-10.5181684494,84.2594223022,106.0799942017,0.0189107656,0.0201188922,0.0220900774,42.4655990601,43.3896675110,88.1649627686,0.0678158998,-0.0151474774,-0.0112832785,
140.373,-3.2973783016,1.4082622528,15.8565940857,0.0582677461,0.0448056906,0.0102593899,-115.3574066162,73.1572418213,61.7061309814,0.0352285504,0.0546735823,0.0141415596,-10.5243186951,84.2603073120,106.0835113525,0.0296545029,0.0230568349,0.0216172934,42.4618148804,43.3900527954,88.1681442261,0.0639144778,-0.0180387497,-0.0000817776,
140.383,-3.2958819866,1.4081779718,15.8584003448,0.0607076809,0.0496624410,0.0122106671,-115.3561782837,73.1506805420,61.7060546875,0.0312891006,0.0581931472,0.0049054027,-10.5278272629,84.2570648193,106.0887908936,0.0218363404,0.0255143642,0.0318187475,42.4609756470,43.3932380676,88.1749801636,0.0615134835,-0.0160519183,-0.0049436688,
140.393,-3.2968549728,1.4089974165,15.8595170975,0.0573040098,0.0389371812,0.0092825294,-115.3498153687,73.1426467896,61.7114105225,0.0302718878,0.0573516488,0.0117694139,-10.5364007950,84.2563171387,106.0860443115,0.0237881541,0.0221137404,0.0249733329,42.4605598450,43.3957557678,88.1806640625,0.0610571504,-0.0165159702,-0.0054132938,
140.403,-3.2986307144,1.4092402458,15.8600378036,0.0612144992,0.0448274836,0.0053781867,-115.3487777710,73.1320343018,61.7095680237,0.0307064652,0.0589780807,0.0079341531,-10.5578918457,84.2583312988,106.0731353760,0.0228151083,0.0201922357,0.0176885724,42.4580039978,43.3965454102,88.1849060059,0.0718093514,-0.0135559142,0.0014081597,
140.413,-3.2997686863,1.4097338915,15.8617410660,0.0607348308,0.0404527634,0.0097741485,-115.3478012085,73.1214370728,61.7130355835,0.0218636990,0.0610925853,0.0138645172,-10.5456781387,84.2574386597,106.0911102295,0.0252549648,0.0250559747,0.0240200162,42.4557304382,43.3950500488,88.1895904541,0.0742318034,-0.0067108572,0.0008866191,
140.423,-3.3002314568,1.4090079069,15.8622798920,0.0626752898,0.0429022498,0.0112391114,-115.3561096191,73.1104812622,61.7087402344,0.0222964287,0.0612397790,0.0061683655,-10.5390777588,84.2603073120,106.1050567627,0.0208654404,0.0216176212,0.0167408586,42.4527778625,43.3938522339,88.1919937134,0.0654275417,-0.0130404830,0.0003625751,
140.433,-3.2992758751,1.4079619646,15.8629055023,0.0592390671,0.0458153151,0.0034252405,-115.3471221924,73.1007919312,61.7168540955,0.0202941895,0.0657995939,0.0149851441,-10.5180339813,84.2581253052,106.1343460083,0.0281858444,0.0259819627,0.0269517899,42.4536209106,43.3918495178,88.1979141235,0.0727263689,-0.0067169964,-0.0020893812,
140.443,-3.3003194332,1.4082808495,15.8628301620,0.0568032265,0.0365561396,0.0136799216,-115.3337783813,73.0920715332,61.7261581421,0.0241561532,0.0669366419,0.0179156065,-10.5120592117,84.2587051392,106.1456909180,0.0252571702,0.0235283673,0.0235410333,42.4556198120,43.3904876709,88.2056884766,0.0702676773,-0.0082114637,-0.0069667101,
140.453,-3.3028995991,1.4073925018,15.8633594513,0.0631353855,0.0419721976,0.0083111525,-115.3294754028,73.0847091675,61.7274742126,0.0241187811,0.0641272068,0.0062295794,-10.5029935837,84.2571716309,106.1623229980,0.0247662067,0.0303533077,0.0288825035,42.4555931091,43.3935737610,88.2108612061,0.0615177155,-0.0140456855,-0.0035218596,
140.463,-3.3015761375,1.4088544846,15.8638372421,0.0592546426,0.0448788032,0.0102638006,-115.3135604858,73.0775527954,61.7390823364,0.0294535160,0.0657341778,0.0145078897,-10.5121612549,84.2590103149,106.1589431763,0.0242811441,0.0235275030,0.0181758404,42.4597206116,43.3918075562,88.2201080322,0.0737023950,-0.0057978034,-0.0118028522,
140.473,-3.3014860153,1.4099496603,15.8655042648,0.0607385933,0.0404826701,0.0087993145,-115.2851867676,73.0729827881,61.7613601685,0.0269889235,0.0643997192,0.0192923546,-10.5324583054,84.2593536377,106.1461105347,0.0267231464,0.0211213231,0.0274608135,42.4635314941,43.3905334473,88.2272186279,0.0741745234,-0.0073085427,-0.0088517666,
140.483,-3.3022689819,1.4104791880,15.8659715652,0.0602595545,0.0375666097,0.0068472028,-115.2710037231,73.0738296509,61.7703819275,0.0235752463,0.0693007708,0.0104318857,-10.5446777344,84.2588729858,106.1407546997,0.0306285620,0.0235852301,0.0225768685,42.4655189514,43.3914070129,88.2338104248,0.0663731098,-0.0097615421,-0.0058974028,
140.493,-3.3015868664,1.4100915194,15.8671483994,0.0617176294,0.0468320772,0.0141706467,-115.2468261719,73.0793457031,61.7973365784,0.0275095105,0.0726878643,0.0215117931,-10.5542306900,84.2547073364,106.1394653320,0.0281798840,0.0226382613,0.0293470025,42.4591598511,43.3894233704,88.2346954346,0.0653713942,-0.0111829638,0.0101438761,
140.503,-3.3014159203,1.4113075733,15.8682241440,0.0602740087,0.0429228246,0.0112412572,-115.2372665405,73.0847549438,61.8131065369,0.0246073008,0.0701862872,0.0106869340,-10.5252857208,84.2550201416,106.1729736328,0.0242741704,0.0289342105,0.0259245038,42.4595375061,43.3904266357,88.2402343750,0.0707551837,-0.0102018118,-0.0044926405,
140.513,-3.3041181564,1.4097390175,15.8693695068,0.0636646003,0.0371105522,0.0127081275,-115.2303237915,73.0883102417,61.8319282532,0.0285316110,0.0662406683,0.0135595798,-10.5383491516,84.2559356689,106.1670303345,0.0252523422,0.0240714550,0.0191081762,42.4580574036,43.3907279968,88.2450714111,0.0736886859,-0.0150683224,-0.0088970661,
140.523,-3.3045377731,1.4105767012,15.8698205948,0.0612378158,0.0410240926,0.0044080019,-115.2278823853,73.0936050415,61.8454742432,0.0231873989,0.0642134845,0.0061863661,-10.5488824844,84.2546081543,106.1636123657,0.0228086114,0.0236058235,0.0249485373,42.4549827576,43.3900260925,88.2476959229,0.0673321486,-0.0155335367,-0.0006287694,
140.533,-3.3065307140,1.4113796949,15.8721971512,0.0553924553,0.0395939425,0.0068518519,-115.2199325562,73.0960922241,61.8667221069,0.0329656601,0.0627286434,0.0124796629,-10.5416250229,84.2531127930,106.1796951294,0.0252473950,0.0260391533,0.0263860822,42.4545898438,43.3919067383,88.2547073364,0.0634497404,-0.0125849247,0.0008493066,
140.543,-3.3070752621,1.4102847576,15.8734188080,0.0578147545,0.0381386131,0.0166172385,-115.2214202881,73.0972442627,61.8780937195,0.0251590014,0.0612428188,0.0027128458,-10.5299348831,84.2565536499,106.1998748779,0.0247651339,0.0221014619,0.0122811198,42.4534835815,43.3918495178,88.2602157593,0.0717498064,-0.0106219053,-0.0074614882,
140.553,-3.3051722050,1.4088205099,15.8751239777,0.0695079565,0.0468945652,0.0039200783,-115.2049484253,73.1000061035,61.9041519165,0.0256612897,0.0578189194,0.0206837654,-10.5511484146,84.2576446533,106.1883392334,0.0237904787,0.0201821327,0.0225602388,42.4530715942,43.3927497864,88.2678375244,0.0654135346,-0.0062162876,-0.0015977025,
140.563,-3.3084976673,1.4089876413,15.8744411469,0.0592569634,0.0415813960,0.0102701783,-115.1875839233,73.0976104736,61.9291992188,0.0310202241,0.0539864898,0.0191559196,-10.5465402603,84.2595901489,106.2012939453,0.0228173137,0.0270040929,0.0216138363,42.4491386414,43.3930053711,88.2725143433,0.0615105629,-0.0149664283,-0.0011408329,
140.573,-3.3090467453,1.4094947577,15.8755140305,0.0607306547,0.0381729715,0.0146661401,-115.1733779907,73.0932998657,61.9476470947,0.0251389742,0.0579890013,0.0074020624,-10.5328788757,84.2599716187,106.2233581543,0.0257476568,0.0250257850,0.0225924850,42.4484901428,43.3964157104,88.2788314819,0.0625303984,-0.0159092844,-0.0084404349,
140.583,-3.3101093769,1.4095424414,15.8765516281,0.0661025792,0.0430743024,0.0005070567,-115.1593856812,73.0897445679,61.9635810852,0.0309802890,0.0585609972,0.0112690330,-10.5529823303,84.2609558105,106.2116470337,0.0252611041,0.0221283138,0.0206621885,42.4481849670,43.3943176270,88.2863464355,0.0659217238,-0.0090875626,-0.0060201287,
140.593,-3.3095185757,1.4103649855,15.8771343231,0.0548864640,0.0445288308,0.0044130683,-115.1523132324,73.0849533081,61.9718246460,0.0304676890,0.0601125360,0.0088290572,-10.5430946350,84.2612686157,106.2310943604,0.0281913280,0.0240632296,0.0245699883,42.4485321045,43.3949928284,88.2918930054,0.0673951507,-0.0095734596,-0.0035694838,
140.603,-3.3074941635,1.4091602564,15.8783140182,0.0621896647,0.0430287533,0.0073401928,-115.1610412598,73.0808792114,61.9686775208,0.0328884125,0.0674798489,0.0059684515,-10.5489368439,84.2612686157,106.2337799072,0.0296561718,0.0201674104,0.0265236497,42.4491462708,43.3968162537,88.2972030640,0.0654651523,-0.0124942660,-0.0055018067,
140.613,-3.3044369221,1.4070757627,15.8813772202,0.0655712634,0.0507880524,0.0053831935,-115.1617889404,73.0710906982,61.9755020142,0.0318620801,0.0559071004,0.0109240413,-10.5663080215,84.2612991333,106.2260437012,0.0203788877,0.0167794228,0.0221377015,42.4462852478,43.3943290710,88.3012008667,0.0771523118,-0.0105344653,-0.0026183128,
140.623,-3.3036088943,1.4079922438,15.8818998337,0.0587513149,0.0454025120,0.0019643307,-115.1720886230,73.0625991821,61.9780616760,0.0254712701,0.0604067147,0.0124965310,-10.5738964081,84.2624282837,106.2270812988,0.0272167921,0.0202075839,0.0211797953,42.4467430115,43.3922424316,88.3074188232,0.0737078786,-0.0095790625,-0.0094688535,
140.633,-3.3031857014,1.4089134932,15.8841810226,0.0616970807,0.0414888598,0.0151482224,-115.1652069092,73.0536422729,61.9961128235,0.0283554196,0.0590923727,0.0198523998,-10.5645580292,84.2622909546,106.2452087402,0.0272165537,0.0255623758,0.0255712867,42.4427986145,43.3940811157,88.3124084473,0.0668953061,-0.0144100785,-0.0031386614,
140.643,-3.3025345802,1.4104077816,15.8870973587,0.0597700216,0.0444071777,0.0141716003,-115.1613388062,73.0411605835,62.0067825317,0.0263387561,0.0573357940,0.0077158213,-10.5701999664,84.2638244629,106.2485198975,0.0238012671,0.0255674124,0.0177867413,42.4423217773,43.3921127319,88.3189849854,0.0751711726,-0.0100269020,-0.0060894489,
140.653,-3.3037807941,1.4087297916,15.8882541656,0.0660884082,0.0444289222,0.0097776651,-115.1444396973,73.0311889648,62.0265426636,0.0184755325,0.0575220883,0.0081965327,-10.6036796570,84.2646484375,106.2253875732,0.0198964477,0.0222059190,0.0173206925,42.4401206970,43.3912544250,88.3246765137,0.0683242679,-0.0075719655,0.0041373968,
140.663,-3.3035089970,1.4094355106,15.8906354904,0.0577999353,0.0454007387,0.0044066906,-115.1117706299,73.0190582275,62.0617866516,0.0232964754,0.0577758551,0.0135020614,-10.6185741425,84.2639617920,106.2193069458,0.0213600993,0.0232103467,0.0265936852,42.4417533875,43.3889427185,88.3321075439,0.0736660361,-0.0115121007,-0.0056342483,
140.673,-3.3031904697,1.4102941751,15.8942251205,0.0553735085,0.0390475094,0.0044066906,-115.0686950684,73.0119934082,62.1072158813,0.0213073492,0.0623706877,0.0172585249,-10.6118946075,84.2657089233,106.2335891724,0.0189217329,0.0295408666,0.0290619135,42.4460983276,43.3908042908,88.3420410156,0.0619708896,-0.0130026937,-0.0138819814,
140.683,-3.3027317524,1.4100744724,15.8965606689,0.0631821752,0.0439223312,0.0048944354,-115.0318527222,73.0050201416,62.1488151550,0.0266428590,0.0635314882,0.0146954656,-10.6402254105,84.2665939331,106.2137374878,0.0247826576,0.0212873220,0.0188297033,42.4484481812,43.3903236389,88.3503799438,0.0688007474,-0.0115636587,-0.0104472637,
140.693,-3.3028514385,1.4107160568,15.8970985413,0.0578222796,0.0419712737,0.0097776055,-114.9891357422,73.0005035400,62.1979408264,0.0266198516,0.0636918843,0.0145290494,-10.6593475342,84.2658386230,106.2034835815,0.0252696276,0.0237643123,0.0261492133,42.4514541626,43.3890037537,88.3592681885,0.0712254047,-0.0062313974,-0.0104337335,
140.703,-3.3013248444,1.4082207680,15.8989257813,0.0646146834,0.0434095934,0.0053803921,-114.9548645020,72.9961395264,62.2402114868,0.0324569345,0.0662732124,0.0070764422,-10.6845865250,84.2648162842,106.1858139038,0.0281975269,0.0272296369,0.0222344398,42.4523353577,43.3889923096,88.3676986694,0.0687838793,-0.0067280233,-0.0031018257,
140.713,-3.2984039783,1.4102094173,15.8993787766,0.0592782833,0.0462883525,0.0019603372,-114.9321060181,72.9894714355,62.2746620178,0.0285166502,0.0678878129,0.0109236836,-10.6846265793,84.2641372681,106.1950302124,0.0198955536,0.0326029956,0.0261291265,42.4543647766,43.3860588074,88.3745727539,0.0721646547,-0.0038410127,-0.0065284371,
140.723,-3.2988650799,1.4081405401,15.8999862671,0.0631484315,0.0428784750,0.0127022266,-114.8982391357,72.9834823608,62.3251037598,0.0265329480,0.0690278709,0.0200856328,-10.7101697922,84.2640686035,106.1772918701,0.0238016844,0.0194643438,0.0280895233,42.4563674927,43.3876419067,88.3827514648,0.0653487444,-0.0101948082,-0.0113807321,
140.733,-3.2985739708,1.4058076143,15.9018163681,0.0640842915,0.0433617383,0.0063531995,-114.8740234375,72.9741516113,62.3675994873,0.0259969831,0.0599430799,0.0122258663,-10.7472562790,84.2667312622,106.1498870850,0.0247828960,0.0219622850,0.0183804035,42.4574775696,43.3870582581,88.3911361694,0.0653414130,-0.0082565248,0.0018082857,
140.743,-3.2969491482,1.4055411816,15.9023294449,0.0631030798,0.0438217185,0.0083047152,-114.8499526978,72.9619750977,62.4051322937,0.0352120996,0.0572497547,0.0087809563,-10.7682313919,84.2679672241,106.1378402710,0.0203905106,0.0263897181,0.0184072852,42.4621276855,43.3878173828,88.4035873413,0.0614447594,-0.0112237930,-0.0064465404,
140.753,-3.2984278202,1.4040026665,15.9028921127,0.0635645166,0.0414061099,0.0161179900,-114.8225097656,72.9506835938,62.4424324036,0.0214824677,0.0550373495,0.0126383901,-10.7919673920,84.2701492310,106.1230850220,0.0194177628,0.0239828825,0.0213813782,42.4643211365,43.3896408081,88.4123916626,0.0658624172,-0.0126943290,-0.0083647370,
140.763,-3.2975080013,1.4032590389,15.9047193527,0.0586687289,0.0433432274,0.0107455254,-114.8158950806,72.9473571777,62.4514541626,0.0287896395,0.0702386200,0.0072596669,-10.8324327469,84.2722091675,106.0916595459,0.0164916515,0.0181877315,0.0253355503,42.4659805298,43.3890876770,88.4182662964,0.0668320060,-0.0132025778,-0.0024961233,
140.773,-3.2967641354,1.4028595686,15.9059352875,0.0571969151,0.0428420007,0.0063502789,-114.8203811646,72.9465179443,62.4450759888,0.0234142542,0.0643825531,0.0043567419,-10.8529682159,84.2724838257,106.0806274414,0.0257694721,0.0240820944,0.0229057074,42.4664726257,43.3884010315,88.4252395630,0.0673115253,-0.0132128298,-0.0020096302,
140.783,-3.2978329659,1.4031680822,15.9088411331,0.0615968332,0.0384660810,0.0087926388,-114.8293380737,72.9556884766,62.4341697693,0.0215080380,0.0676425993,0.0038461685,-10.8829250336,84.2697448730,106.0558624268,0.0247881413,0.0217017233,0.0277534723,42.4638710022,43.3908195496,88.4289093018,0.0566000342,-0.0151219964,-0.0024988055,
140.793,-3.2978208065,1.4026432037,15.9099855423,0.0620759539,0.0423721336,0.0107456446,-114.8230514526,72.9667739868,62.4433135986,0.0274240971,0.0704184473,0.0174114108,-10.8763103485,84.2727508545,106.0707244873,0.0311410427,0.0324227810,0.0151056647,42.4672927856,43.3891448975,88.4364089966,0.0746451020,-0.0112614036,-0.0088319778,
140.803,-3.2976970673,1.4019466639,15.9112014771,0.0581575483,0.0428582765,0.0039094687,-114.8139724731,72.9757003784,62.4584960938,0.0289345980,0.0615140200,0.0221895576,-10.8838844299,84.2707977295,106.0713806152,0.0277196765,0.0246297121,0.0307009220,42.4675598145,43.3857612610,88.4445953369,0.0760670900,-0.0078733265,-0.0054417253,
140.813,-3.2975823879,1.4004036188,15.9124202728,0.0610603169,0.0428563133,0.0024433732,-114.8087539673,72.9871597290,62.4719047546,0.0304579735,0.0662349164,0.0201320648,-10.8921527863,84.2698822021,106.0715332031,0.0243000984,0.0187878609,0.0258049965,42.4672393799,43.3873786926,88.4509658813,0.0585094690,-0.0127400160,0.0014057159,
140.823,-3.2977352142,1.3986939192,15.9130544662,0.0595656410,0.0418824553,0.0078140497,-114.8165283203,72.9987258911,62.4765701294,0.0241693854,0.0689731836,0.0093451738,-10.8930273056,84.2691955566,106.0789413452,0.0267403126,0.0256274641,0.0292121172,42.4672851563,43.3883857727,88.4572906494,0.0629168153,-0.0141971409,-0.0029794574,
140.833,-3.2953939438,1.3989437819,15.9141864777,0.0615231246,0.0462362021,0.0112299919,-114.8348159790,73.0119323730,62.4672622681,0.0271664262,0.0638512373,0.0034785271,-10.9164009094,84.2686843872,106.0633773804,0.0282042623,0.0178575218,0.0228636265,42.4697036743,43.3886260986,88.4661712646,0.0673143864,-0.0112881362,-0.0039333105,
140.843,-3.2948925495,1.4001699686,15.9147138596,0.0581265539,0.0462274291,0.0161126256,-114.8582839966,73.0328445435,62.4467773438,0.0316675305,0.0659272373,0.0068591237,-10.9385128021,84.2661132813,106.0519714355,0.0242935419,0.0242522061,0.0262456536,42.4696731567,43.3869972229,88.4730606079,0.0687586069,-0.0113008618,0.0033767223,
140.853,-3.2931313515,1.3995747566,15.9171266556,0.0600692928,0.0442436486,0.0004853010,-114.8853988647,73.0633926392,62.4189453125,0.0269401670,0.0707778931,0.0116537213,-10.9515295029,84.2666625977,106.0472640991,0.0228296518,0.0223197937,0.0204015970,42.4677925110,43.3898162842,88.4770812988,0.0634232163,-0.0176082551,-0.0044273138,
140.863,-3.2937843800,1.3995963335,15.9200754166,0.0605579466,0.0398604870,0.0117170811,-114.9343566895,73.1010284424,62.3744926453,0.0251781940,0.0759647191,0.0106395483,-10.9264154434,84.2645797729,106.0800704956,0.0238025784,0.0271654427,0.0213345289,42.4702453613,43.3886718750,88.4855575562,0.0726860166,-0.0117811263,-0.0024633408,
140.873,-3.2946107388,1.4012486935,15.9211645126,0.0586336553,0.0437810905,0.0078116059,-115.0095596313,73.1380157471,62.3125686646,0.0297601819,0.0781741738,0.0053552389,-10.9156484604,84.2588043213,106.0998229980,0.0252573490,0.0203296542,0.0349039435,42.4725532532,43.3886718750,88.4931182861,0.0702446103,-0.0103379190,-0.0083029866,
140.883,-3.2940993309,1.4013134241,15.9204187393,0.0640058815,0.0442604609,0.0126945972,-115.1096115112,73.1685562134,62.2334098816,0.0362622738,0.0687101483,0.0046232343,-10.9009456635,84.2560043335,106.1252212524,0.0247641802,0.0222655535,0.0246011615,42.4685935974,43.3895797729,88.4945831299,0.0687913299,-0.0161527991,-0.0049108267,
140.893,-3.2949326038,1.3996595144,15.9240970612,0.0600707680,0.0413453281,0.0102533102,-115.2132263184,73.1842422485,62.1535224915,0.0353649855,0.0545781851,0.0059641004,-10.8582277298,84.2508239746,106.1781234741,0.0276848078,0.0217191577,0.0303587317,42.4659309387,43.3909454346,88.5007553101,0.0707617402,-0.0126989186,-0.0044332147,
140.903,-3.2932741642,1.3973047733,15.9259271622,0.0644242167,0.0437579080,0.0131801963,-115.3400421143,73.1897354126,62.0447044373,0.0368575454,0.0439684987,-0.0032596588,-10.8032474518,84.2492218018,106.2453079224,0.0276820064,0.0226042569,0.0171305537,42.4624061584,43.3916015625,88.5042114258,0.0712583661,-0.0087543130,0.0014019012,
140.913,-3.2930576801,1.3952547312,15.9252853394,0.0648767278,0.0432659015,0.0097611547,-115.4381713867,73.1890106201,61.9580650330,0.0300179720,0.0369309187,0.0177024603,-10.7306795120,84.2460556030,106.3280792236,0.0310944319,0.0249282718,0.0229130983,42.4619789124,43.3963241577,88.5102005005,0.0644823313,-0.0077355504,-0.0107670426,
140.923,-3.2930507660,1.3941606283,15.9258728027,0.0594865419,0.0403361171,0.0058544874,-115.5089416504,73.1848144531,61.8890647888,0.0285319686,0.0417222977,0.0200095177,-10.6647872925,84.2442169189,106.4031677246,0.0252318382,0.0189589560,0.0209074020,42.4588241577,43.4016723633,88.5138473511,0.0674798489,-0.0120572746,-0.0039108396,
140.933,-3.2902173996,1.3931953907,15.9277477264,0.0594696999,0.0500524156,0.0112223029,-115.5576171875,73.1815872192,61.8382835388,0.0221679807,0.0480129719,0.0222082734,-10.6077508926,84.2465362549,106.4670639038,0.0203530788,0.0217812359,0.0092081428,42.4544372559,43.4051589966,88.5159225464,0.0689889193,-0.0110114813,0.0024298429,
140.943,-3.2896752357,1.3924978971,15.9308042526,0.0584809706,0.0441836156,0.0024324059,-115.5788803101,73.1764984131,61.8138160706,0.0206774473,0.0519485772,0.0199007988,-10.5584001541,84.2461242676,106.5211257935,0.0193758011,0.0231602788,0.0213943720,42.4533157349,43.4061393738,88.5185546875,0.0709544420,-0.0178288519,-0.0039180517,
140.953,-3.2897903919,1.3931156397,15.9313125610,0.0599565879,0.0441856049,0.0068271756,-115.5958938599,73.1759948730,61.7995948792,0.0133506656,0.0621734858,0.0180289149,-10.5426378250,84.2484359741,106.5429382324,0.0198681355,0.0260554254,0.0194725394,42.4553947449,43.4073371887,88.5238494873,0.0636453629,-0.0061201155,-0.0043790936,
140.963,-3.2907500267,1.3944514990,15.9311561584,0.0594916157,0.0412725955,0.0078054667,-115.5956726074,73.1690444946,61.8065986633,0.0157569647,0.0569067895,0.0131951571,-10.5488853455,84.2453002930,106.5455245972,0.0247454643,0.0246112943,0.0330940485,42.4601249695,43.4086799622,88.5341262817,0.0621976256,-0.0076181293,-0.0131148100,
140.973,-3.2904992104,1.3963450193,15.9322729111,0.0575715303,0.0476158448,0.0009696484,-115.5955505371,73.1633987427,61.8162269592,0.0250057578,0.0638282597,0.0078642368,-10.5700702667,84.2458190918,106.5333023071,0.0227932334,0.0217171311,0.0160205364,42.4598312378,43.4053764343,88.5399627686,0.0714330673,-0.0105720758,0.0010123253,
140.983,-3.2902886868,1.3957061768,15.9347515106,0.0560955442,0.0451707840,0.0048761368,-115.5763397217,73.1519622803,61.8463020325,0.0303190351,0.0552526116,0.0122531056,-10.6033477783,84.2420349121,106.5102691650,0.0237631798,0.0173931718,0.0340328813,42.4599227905,43.4039154053,88.5485305786,0.0675082803,-0.0125377178,-0.0033934116,
140.993,-3.2897992134,1.3965824842,15.9365720749,0.0551342703,0.0461388007,0.0107344389,-115.5423812866,73.1374282837,61.8832435608,0.0370814204,0.0526157022,0.0146433115,-10.6079769135,84.2446899414,106.5145034790,0.0232795477,0.0266700089,0.0160145760,42.4583244324,43.4000587463,88.5554504395,0.0767366886,-0.0130422413,-0.0044177175,
141.003,-3.2886667252,1.3971588612,15.9382591248,0.0624685436,0.0441659354,0.0063397884,-115.5178604126,73.1198501587,61.9073829651,0.0325978398,0.0519568026,0.0107508302,-10.6155204773,84.2459182739,106.5135650635,0.0237699747,0.0217966735,0.0228731036,42.4569625854,43.4008827209,88.5615081787,0.0703995228,-0.0110697150,-0.0078400970,
141.013,-3.2871320248,1.3978571892,15.9393587112,0.0619924478,0.0456040315,0.0082911253,-115.4870986938,73.0995635986,61.9305801392,0.0339598060,0.0547707081,0.0102666020,-10.6100940704,84.2495346069,106.5269470215,0.0257294178,0.0198227465,0.0219549537,42.4567031860,43.4029235840,88.5676956177,0.0767730474,-0.0105624795,-0.0058712959,
141.023,-3.2883822918,1.3973827362,15.9411106110,0.0619841740,0.0422078446,0.0097577572,-115.4687423706,73.0771560669,61.9375724792,0.0211507678,0.0566126406,0.0035066605,-10.5816640854,84.2471389771,106.5629882813,0.0276783705,0.0261278450,0.0302070379,42.4566879272,43.4066200256,88.5723190308,0.0621715188,-0.0090675652,-0.0048620701,
141.033,-3.2885262966,1.3982445002,15.9434328079,0.0615109242,0.0461165793,0.0038979650,-115.4278411865,73.0536422729,61.9691963196,0.0190780759,0.0590081811,0.0137404799,-10.5700101852,84.2453384399,106.5805435181,0.0179095864,0.0222067833,0.0306610465,42.4615211487,43.4074783325,88.5811386108,0.0699948668,-0.0066644549,-0.0111607313,
141.043,-3.2871267796,1.4031207561,15.9438056946,0.0537835062,0.0451155230,0.0126884580,-115.3848495483,73.0308685303,62.0060539246,0.0243332386,0.0643276870,0.0117515922,-10.5917949677,84.2492218018,106.5642623901,0.0213343501,0.0222332478,0.0199888945,42.4640617371,43.4109268188,88.5890350342,0.0612495542,-0.0139845312,-0.0081787705,
141.053,-3.2879204750,1.4024363756,15.9442796707,0.0669551566,0.0417114012,0.0141532421,-115.3525466919,73.0093383789,62.0395278931,0.0242235065,0.0696050823,0.0127323270,-10.6174526215,84.2522583008,106.5449600220,0.0242693424,0.0271512568,0.0215150714,42.4679145813,43.4120292664,88.5961532593,0.0695642829,-0.0086406171,-0.0105776191,
141.063,-3.2869100571,1.4032423496,15.9459981918,0.0615981258,0.0480414331,0.0043872595,-115.3309783936,72.9910049438,62.0679206848,0.0231533647,0.0645571649,0.0127632022,-10.6388521194,84.2513046265,106.5305862427,0.0179200172,0.0242623091,0.0322473049,42.4678344727,43.4118270874,88.6017837524,0.0661437511,-0.0145007670,-0.0056968331,
141.073,-3.2889041901,1.4020266533,15.9478502274,0.0581589490,0.0417285413,0.0102481842,-115.3197860718,72.9718780518,62.0828857422,0.0250087976,0.0726816952,0.0016169548,-10.6517086029,84.2529373169,106.5243682861,0.0223174095,0.0223266482,0.0171419382,42.4707412720,43.4106483459,88.6104965210,0.0719881654,-0.0077016354,-0.0081244111,
141.083,-3.2871782780,1.4001638889,15.9508895874,0.0649623871,0.0460930578,0.0097569823,-115.3103866577,72.9547195435,62.0947074890,0.0278507471,0.0617299378,0.0041368604,-10.6516046524,84.2542037964,106.5322799683,0.0272024274,0.0228106380,0.0205816627,42.4742927551,43.4095954895,88.6197738647,0.0719748139,-0.0067669153,-0.0129859447,
141.093,-3.2890124321,1.4003020525,15.9527082443,0.0556874499,0.0422187522,0.0146420598,-115.3046264648,72.9418792725,62.0980224609,0.0268085003,0.0658420920,0.0173848867,-10.6519985199,84.2511672974,106.5389633179,0.0223143101,0.0218444467,0.0293193460,42.4748458862,43.4085350037,88.6254882813,0.0704964995,-0.0087336898,-0.0032245517,
141.103,-3.2891283035,1.4017002583,15.9537668228,0.0596180968,0.0397793278,0.0107364655,-115.3036117554,72.9344940186,62.0966148376,0.0287237763,0.0683965683,0.0149914026,-10.6361608505,84.2511672974,106.5606002808,0.0286619663,0.0247460008,0.0210155249,42.4753990173,43.4098777771,88.6329193115,0.0724666715,-0.0106812418,-0.0056499839,
141.113,-3.2895045280,1.4024623632,15.9524316788,0.0591431111,0.0412507169,0.0087841749,-115.3131790161,72.9300613403,62.0825042725,0.0238182545,0.0694187582,0.0048136115,-10.6079425812,84.2502746582,106.5949020386,0.0232893229,0.0242112577,0.0219659209,42.4736518860,43.4104499817,88.6372299194,0.0651497245,-0.0135897696,0.0045948625,
141.123,-3.2900378704,1.4011750221,15.9535827637,0.0644917414,0.0427248739,0.0039010048,-115.3342819214,72.9294281006,62.0581741333,0.0252798796,0.0669407845,0.0054042339,-10.5806646347,84.2491226196,106.6267166138,0.0267052650,0.0295380950,0.0219376087,42.4758033752,43.4138107300,88.6440963745,0.0642157793,-0.0126062632,-0.0046353936,
141.133,-3.2901036739,1.4044030905,15.9552764893,0.0533175990,0.0441907793,0.0107384920,-115.3537902832,72.9401397705,62.0369186401,0.0180104971,0.0760143101,0.0156725645,-10.5739078522,84.2504806519,106.6399993896,0.0232896805,0.0226858258,0.0209829807,42.4720802307,43.4154281616,88.6477050781,0.0681425333,-0.0149995983,0.0090197325,
141.143,-3.2889001369,1.4038648605,15.9564409256,0.0596558638,0.0402635783,0.0014597178,-115.3723526001,72.9512481689,62.0208473206,0.0244150162,0.0699471235,0.0239803791,-10.5443553925,84.2496719360,106.6748428345,0.0276827812,0.0265429914,0.0253524780,42.4725112915,43.4177474976,88.6546249390,0.0632891059,-0.0081489980,-0.0002335310,
141.153,-3.2897503376,1.4023920298,15.9570455551,0.0586536005,0.0373487435,0.0053662062,-115.3976211548,72.9645462036,62.0016860962,0.0308306813,0.0731096268,0.0166785121,-10.5312385559,84.2494964600,106.6932678223,0.0276824832,0.0255437791,0.0175336599,42.4715499878,43.4174537659,88.6603775024,0.0657267570,-0.0135133862,-0.0021975040,
141.163,-3.2880792618,1.4001774788,15.9582204819,0.0659391880,0.0417142175,0.0126879811,-115.4207534790,72.9793853760,61.9876251221,0.0211409330,0.0630702376,0.0161914229,-10.5254087448,84.2502059937,106.7066726685,0.0242657661,0.0265077353,0.0209627748,42.4700813293,43.4171447754,88.6627731323,0.0652346015,-0.0130138695,-0.0056307316,
141.173,-3.2876014709,1.3984560966,15.9593782425,0.0659091473,0.0441473387,0.0014562607,-115.4505462646,72.9934768677,61.9684448242,0.0187714696,0.0603517294,0.0079278350,-10.4981069565,84.2480621338,106.7393493652,0.0257268548,0.0250018537,0.0277521014,42.4697570801,43.4157981873,88.6681900024,0.0676589012,-0.0061859190,0.0041201115,
141.183,-3.2876796722,1.3982065916,15.9617910385,0.0571157336,0.0397541821,0.0126867294,-115.4706420898,73.0094451904,61.9553108215,0.0203177929,0.0576253235,0.0166955590,-10.4910898209,84.2449951172,106.7551422119,0.0208386779,0.0230455697,0.0296538472,42.4706726074,43.4194679260,88.6730651855,0.0623343587,-0.0115357935,-0.0085347891,
141.193,-3.2848808765,1.3954112530,15.9636602402,0.0634146184,0.0436117463,0.0024288297,-115.4868698120,73.0204010010,61.9477920532,0.0316041112,0.0544970930,0.0069262981,-10.4753389359,84.2446212769,106.7799835205,0.0252325535,0.0254607499,0.0257340074,42.4688301086,43.4198036194,88.6784515381,0.0735690594,-0.0163986683,-0.0012234449,
