Time(sec),Gyr1_X(deg/sec),Gyr1_Y(deg/sec),Gyr1_Z(deg/sec),Acc1_X(m/s^2),Acc1_Y(m/s^2),Acc1_Z(m/s^2),Gyr2_X(deg/sec),Gyr2_Y(deg/sec),Gyr2_Z(deg/sec),Acc2_X(m/s^2),Acc2_Y(m/s^2),Acc2_Z(m/s^2),Gyr_X(deg/sec),Gyr_Y(deg/sec),Gyr_Z(deg/sec),Acc_X(m/s^2),Acc_Y(m/s^2),Acc_Z(m/s^2),Gyr_X(deg/sec),Gyr_Y(deg/sec),Gyr_Z(deg/sec),Acc_X(m/s^2),Acc_Y(m/s^2),Acc_Z(m/s^2),
51.463,-3.2916257381,1.3725109100,5.5956573486,0.0561791062,0.0442180745,0.0043789744,-117.6183090210,73.7013473511,27.3940773010,0.0271947384,0.0634969175,0.0109270811,-10.3784265518,84.2066726685,32.5531768799,0.0222362280,0.0268708467,0.0255597830,42.4287071228,43.5513496399,31.0508232117,0.0693755150,-0.0164226890,0.0020397305,
51.473,-3.2934772968,1.3705161810,5.5962405205,0.0624919571,0.0403441228,0.0019388199,-117.5980682373,73.7041702271,27.4175662994,0.0242788792,0.0595955849,0.0259537101,-10.3615007401,84.2077560425,32.5791091919,0.0227264166,0.0268377066,0.0231302977,42.4285507202,43.5493812561,31.0566082001,0.0713037848,-0.0091127455,-0.0067671537,
51.483,-3.2931902409,1.3715744019,5.5966935158,0.0605572984,0.0413156599,0.0068212748,-117.5962371826,73.7035140991,27.4241313934,0.0257405043,0.0571676344,0.0103257895,-10.3702669144,84.2054595947,32.5786895752,0.0241872072,0.0219774544,0.0260242373,42.4293327332,43.5505523682,31.0633087158,0.0654591322,-0.0154583752,-0.0033329129,
51.493,-3.2925162315,1.3685837984,5.5979156494,0.0663644969,0.0447219647,0.0087731481,-117.5873794556,73.7047348022,27.4372291565,0.0257464647,0.0576581806,0.0210201740,-10.3661336899,84.2056579590,32.5930290222,0.0236992836,0.0244109333,0.0250497162,42.4301452637,43.5501174927,31.0698318481,0.0698481798,-0.0110749006,-0.0038176775,
51.503,-3.2951390743,1.3671462536,5.6003031731,0.0629214421,0.0418379940,-0.0014795661,-117.5891571045,73.7046127319,27.4415817261,0.0213513374,0.0630271882,0.0107747912,-10.3481187820,84.2073135376,32.6177787781,0.0271201730,0.0204677880,0.0226298124,42.4320869446,43.5505371094,31.0774173737,0.0679004192,-0.0096247196,-0.0047738552,
51.513,-3.2944538593,1.3665609360,5.6020283699,0.0643760711,0.0447557606,0.0058442354,-117.5819854736,73.7066879272,27.4543266296,0.0340568423,0.0600829720,0.0209813118,-10.3598423004,84.2085037231,32.6145286560,0.0222394466,0.0209731758,0.0187473148,42.4327621460,43.5491828918,31.0856342316,0.0732543468,-0.0120836198,-0.0042924285,
51.523,-3.2916274071,1.3667724133,5.6031389236,0.0614500754,0.0437299572,0.0053531528,-117.5854949951,73.7063751221,27.4563674927,0.0252662301,0.0600796491,0.0068389177,-10.3615379333,84.2110748291,32.6237335205,0.0222439766,0.0219448209,0.0212326050,42.4353523254,43.5500755310,31.0935840607,0.0669180155,-0.0067292452,-0.0125622749,
51.533,-3.2928328514,1.3659000397,5.6055283546,0.0614348538,0.0422861315,0.0117017627,-117.5895004272,73.7070465088,27.4603290558,0.0272226334,0.0625025630,0.0102691650,-10.3613805771,84.2120513916,32.6334915161,0.0212691426,0.0253595412,0.0183191299,42.4325866699,43.5506629944,31.0988712311,0.0679019690,-0.0130463839,0.0001143813,
51.543,-3.2928836346,1.3671610355,5.6077904701,0.0624334142,0.0442401133,0.0087726712,-117.5882186890,73.7065124512,27.4687519073,0.0223371983,0.0581182688,0.0117326379,-10.3643951416,84.2095794678,32.6418800354,0.0237061977,0.0248842835,0.0231607258,42.4330024719,43.5518302917,31.1059265137,0.0674284697,-0.0101112127,-0.0057316422,
51.553,-3.2941412926,1.3705213070,5.6106643677,0.0551678278,0.0442619398,0.0077983737,-117.5868377686,73.7048416138,27.4773025513,0.0291649699,0.0537521392,0.0107629299,-10.3653316498,84.2118225098,32.6499977112,0.0251749754,0.0234143138,0.0178269297,42.4328308105,43.5534210205,31.1133499146,0.0601243973,-0.0110732317,-0.0052305460,
51.563,-3.2939414978,1.3731018305,5.6104683876,0.0576542616,0.0408404283,0.0195182562,-117.5829696655,73.7052078247,27.4864044189,0.0257487893,0.0591261387,0.0141612887,-10.3755111694,84.2143325806,32.6481094360,0.0281090736,0.0244008303,0.0154331625,42.4317474365,43.5520172119,31.1194267273,0.0693839192,-0.0115628242,-0.0018340945,
51.573,-3.2941484451,1.3751672506,5.6126985550,0.0596434213,0.0393791385,0.0097537041,-117.5866699219,73.7053833008,27.4890708923,0.0277027488,0.0596036613,0.0127112269,-10.3713064194,84.2139205933,32.6588287354,0.0173661709,0.0248830318,0.0256782174,42.4311256409,43.5523071289,31.1259117126,0.0684110522,-0.0125310719,-0.0081843138,
51.583,-3.2957451344,1.3759953976,5.6132040024,0.0572164692,0.0389186554,0.0112205148,-117.5826873779,73.7056350708,27.4973049164,0.0233094692,0.0586323589,0.0107387304,-10.3751440048,84.2146606445,32.6615371704,0.0193206072,0.0248875320,0.0188560486,42.4346580505,43.5520286560,31.1343288422,0.0684075356,-0.0086601079,-0.0105981231,
51.593,-3.2953484058,1.3799806833,5.6135935783,0.0524031892,0.0374468006,0.0048741102,-117.5830688477,73.7059097290,27.4986953735,0.0262405276,0.0581392199,0.0073203444,-10.3639898300,84.2125015259,32.6805572510,0.0276175737,0.0224332809,0.0266269892,42.4384193420,43.5530624390,31.1432666779,0.0679323673,-0.0052689910,-0.0100691319,
51.603,-3.2953457832,1.3813028336,5.6159157753,0.0577973574,0.0423295312,0.0048745871,-117.5770416260,73.7068862915,27.5082378387,0.0281984210,0.0591150522,0.0136340857,-10.3644666672,84.2102584839,32.6890258789,0.0241956711,0.0209758878,0.0261030495,42.4359703064,43.5514564514,31.1485023499,0.0669354796,-0.0081887841,0.0030796528,
51.613,-3.2930355072,1.3800787926,5.6177244186,0.0621705279,0.0461955741,0.0014538765,-117.5761566162,73.7080917358,27.5150756836,0.0242980719,0.0581225604,0.0111795664,-10.3727931976,84.2093505859,32.6890258789,0.0246823430,0.0229465365,0.0256021321,42.4342689514,43.5507392883,31.1546669006,0.0674146414,-0.0091552734,-0.0028005242,
51.623,-3.2936830521,1.3798767328,5.6194081306,0.0631435663,0.0379060730,0.0087787509,-117.5625381470,73.7098464966,27.5349159241,0.0243066549,0.0581274778,0.0233136415,-10.3689584732,84.2093811035,32.7017974854,0.0197995901,0.0258693993,0.0260894001,42.4351692200,43.5504989624,31.1615982056,0.0664350986,-0.0140483975,-0.0057244301,
51.633,-3.2943804264,1.3772974014,5.6218180656,0.0650516897,0.0398714133,0.0058486462,-117.5675735474,73.7084579468,27.5381946564,0.0282061100,0.0547188073,0.0086979866,-10.3540077209,84.2139205933,32.7246246338,0.0222489834,0.0277822614,0.0115117431,42.4360237122,43.5526237488,31.1686611176,0.0625556707,-0.0096447468,-0.0081403852,
51.643,-3.2929604053,1.3761687279,5.6218228340,0.0616140217,0.0496123247,0.0053585172,-117.5705566406,73.7097549438,27.5444412231,0.0277241468,0.0615283400,0.0091893077,-10.3805274963,84.2127304077,32.7069625854,0.0271297097,0.0229498744,0.0207782537,42.4314041138,43.5516777039,31.1711711884,0.0654734373,-0.0135153532,-0.0008628964,
51.653,-3.2905974388,1.3736790419,5.6205878258,0.0659651160,0.0466415398,0.0014488101,-117.5843811035,73.7073898315,27.5395317078,0.0325953960,0.0542083085,0.0048731565,-10.4162483215,84.2127990723,32.6789817810,0.0232235789,0.0200832784,0.0188369453,42.4312362671,43.5525016785,31.1753730774,0.0615775585,-0.0120424628,-0.0047644377,
51.663,-3.2883822918,1.3717222214,5.6206192970,0.0625130013,0.0480678417,0.0092583299,-117.5831375122,73.7083358765,27.5448036194,0.0306469202,0.0551735312,0.0102314949,-10.4435815811,84.2103958130,32.6568412781,0.0256607533,0.0186738074,0.0285734385,42.4327545166,43.5519638062,31.1809043884,0.0688950419,-0.0096193552,-0.0032904744,
51.673,-3.2869992256,1.3692518473,5.6193971634,0.0639347434,0.0431610048,0.0058377981,-117.5910339355,73.7112121582,27.5372543335,0.0345672369,0.0570661426,0.0048725605,-10.4405670166,84.2086029053,32.6645126343,0.0222396255,0.0250219703,0.0275638849,42.4354286194,43.5511322021,31.1876316071,0.0781617761,-0.0096513033,-0.0096234679,
51.683,-3.2856955528,1.3684550524,5.6205387115,0.0629442781,0.0426500253,0.0082775354,-117.5941848755,73.7153244019,27.5316371918,0.0350756645,0.0579742193,0.0107139945,-10.4492874146,84.2047119141,32.6609306335,0.0227210522,0.0221194029,0.0309216380,42.4358444214,43.5506095886,31.1899623871,0.0762020350,-0.0116125047,-0.0047415495,
51.693,-3.2863037586,1.3701263666,5.6203756332,0.0585789084,0.0402191766,0.0156031847,-117.5957870483,73.7171096802,27.5299243927,0.0277601480,0.0559909791,0.0136367679,-10.4437952042,84.2033233643,32.6706809998,0.0285779834,0.0196728706,0.0255234689,42.4371566772,43.5510940552,31.1957492828,0.0674191117,-0.0082027614,-0.0032607913,
51.703,-3.2831783295,1.3727350235,5.6226782799,0.0556947365,0.0445591994,0.0131598711,-117.6026687622,73.7170562744,27.5257301331,0.0262950659,0.0574416369,0.0082960725,-10.4523878098,84.2022781372,32.6681365967,0.0222284794,0.0157847404,0.0216045976,42.4350738525,43.5513992310,31.2007026672,0.0723057985,-0.0072044432,0.0045361519,
51.713,-3.2815258503,1.3729920387,5.6226472855,0.0566757843,0.0440421216,0.0024160743,-117.6033096313,73.7159423828,27.5295505524,0.0223833323,0.0584326535,0.0131902099,-10.4506998062,84.2011947632,32.6782264709,0.0290625095,0.0221328437,0.0284212530,42.4395713806,43.5518875122,31.2093086243,0.0723119974,-0.0077307224,-0.0110460520,
51.723,-3.2799994946,1.3774330616,5.6236662865,0.0552884266,0.0498748012,0.0072988868,-117.6108627319,73.7157440186,27.5290508270,0.0223823786,0.0608604252,0.0107832551,-10.4464702606,84.1988983154,32.6932868958,0.0256404877,0.0231092572,0.0313094407,42.4388694763,43.5541381836,31.2179794312,0.0650162697,-0.0135651827,-0.0027310252,
51.733,-3.2797510624,1.3795534372,5.6259136200,0.0592316762,0.0410813615,0.0033934116,-117.6200332642,73.7109680176,27.5266342163,0.0257769823,0.0613977909,0.0045124888,-10.4429273605,84.2005844116,32.7070693970,0.0241786242,0.0230973959,0.0196202546,42.4398269653,43.5544166565,31.2251071930,0.0645315051,-0.0047827959,-0.0032086968,
51.743,-3.2800235748,1.3805946112,5.6258816719,0.0543670282,0.0435274951,0.0170660019,-117.6208648682,73.7073898315,27.5334854126,0.0267360210,0.0585208684,0.0143094659,-10.4287700653,84.2027893066,32.7310295105,0.0212528110,0.0225776434,0.0240444690,42.4403152466,43.5540580750,31.2326564789,0.0655035377,-0.0052785277,-0.0027195811,
51.753,-3.2828369141,1.3805421591,5.6251111031,0.0621786118,0.0347874388,0.0102330446,-117.6206054688,73.7042236328,27.5426044464,0.0281853676,0.0658910275,0.0089617968,-10.4221277237,84.2009963989,32.7470970154,0.0266207457,0.0259890556,0.0288972110,42.4389305115,43.5525894165,31.2385311127,0.0684146285,-0.0111369193,-0.0003026724,
51.763,-3.2830789089,1.3788090944,5.6269416809,0.0621483736,0.0435807630,0.0107203722,-117.6172332764,73.6989898682,27.5532646179,0.0310894251,0.0571871996,0.0114290118,-10.4166555405,84.2032241821,32.7628860474,0.0212535858,0.0240194798,0.0230727345,42.4376182556,43.5512924194,31.2441558838,0.0718162060,-0.0150415003,-0.0061854124,
51.773,-3.2826800346,1.3783825636,5.6280932426,0.0621409304,0.0435738191,0.0219510198,-117.6110000610,73.6963806152,27.5668830872,0.0203344226,0.0552869141,0.0104455948,-10.4038772583,84.2029876709,32.7852020264,0.0236945748,0.0269272327,0.0269710869,42.4335479736,43.5519905090,31.2505455017,0.0703601837,-0.0154859424,-0.0052364469,
51.783,-3.2842993736,1.3782626390,5.6304659843,0.0587208718,0.0387192182,0.0097446442,-117.6048126221,73.6970214844,27.5803852081,0.0310797691,0.0611505955,0.0148081183,-10.4010124207,84.2014007568,32.7981834412,0.0261331797,0.0249738693,0.0284086764,42.4332962036,43.5499992371,31.2588653564,0.0693584085,-0.0096404850,0.0010907054,
51.793,-3.2831225395,1.3784378767,5.6316041946,0.0597004928,0.0421166830,0.0131623745,-117.6035537720,73.6976776123,27.5883102417,0.0257118940,0.0626086444,0.0050318837,-10.4155015945,84.2018737793,32.7933349609,0.0227160454,0.0220685005,0.0210963339,42.4292678833,43.5530471802,31.2627773285,0.0567016602,-0.0134843290,-0.0023341775,
51.803,-3.2848176956,1.3774939775,5.6327381134,0.0635902733,0.0406813882,0.0116979480,-117.6012649536,73.6989974976,27.5955715179,0.0315777659,0.0577114373,0.0084295869,-10.4481954575,84.2003555298,32.7706909180,0.0207602382,0.0231077373,0.0225459486,42.4294929504,43.5539741516,31.2675457001,0.0630610585,-0.0120141506,-0.0047661066,
51.813,-3.2859656811,1.3790314198,5.6331653595,0.0611756928,0.0426544808,0.0112121701,-117.5897750854,73.6989364624,27.6137409210,0.0296243429,0.0523675680,0.0132628679,-10.4527826309,84.2023773193,32.7737121582,0.0241817832,0.0299454927,0.0181871206,42.4275283813,43.5547294617,31.2731838226,0.0635588765,-0.0154074728,0.0020607710,
51.823,-3.2855494022,1.3795032501,5.6348781586,0.0606956407,0.0416706540,0.0063287616,-117.5916442871,73.7056427002,27.6183719635,0.0233095288,0.0630060583,0.0137073994,-10.4526014328,84.2033615112,32.7834091187,0.0178358555,0.0275007188,0.0186918974,42.4279975891,43.5556182861,31.2804851532,0.0674763918,-0.0114985704,-0.0023228526,
51.833,-3.2848010063,1.3775689602,5.6354632378,0.0645681396,0.0450756326,0.0058391094,-117.5913543701,73.7085571289,27.6262168884,0.0291831493,0.0531987101,0.0131953955,-10.4837350845,84.2044754028,32.7600440979,0.0251620412,0.0202282071,0.0153024346,42.4298324585,43.5563774109,31.2881565094,0.0669977069,-0.0129742622,-0.0115769506,
51.843,-3.2838022709,1.3793543577,5.6353406906,0.0577633567,0.0460347496,0.0029093623,-117.6007537842,73.7120285034,27.6219062805,0.0316415429,0.0589845926,0.0083267689,-10.4672231674,84.2013626099,32.7844429016,0.0217385888,0.0216736495,0.0308685899,42.4297218323,43.5555877686,31.2943305969,0.0748002529,-0.0144446194,-0.0027967691,
51.853,-3.2832610607,1.3766715527,5.6390371323,0.0635759234,0.0440722629,0.0073016882,-117.6035308838,73.7146453857,27.6222763062,0.0331192017,0.0584527701,0.0151543617,-10.4857683182,84.2009963989,32.7711677551,0.0236910582,0.0187775195,0.0225704908,42.4326133728,43.5576667786,31.3017997742,0.0679906011,-0.0095717907,-0.0076354146,
51.863,-3.2830979824,1.3753242493,5.6414194107,0.0630641282,0.0406514890,0.0107191801,-117.6116714478,73.7167968750,27.6182003021,0.0282469392,0.0564477593,0.0039426684,-10.4714689255,84.1986923218,32.7919464111,0.0271049738,0.0251070857,0.0313156098,42.4311065674,43.5554122925,31.3052616119,0.0708917379,-0.0046933889,0.0006313920,
51.873,-3.2852818966,1.3764026165,5.6424827576,0.0606415421,0.0411777869,0.0077923536,-117.6258087158,73.7174377441,27.6078968048,0.0277617574,0.0583599806,0.0064407587,-10.4549875259,84.1994400024,32.8150596619,0.0236883163,0.0236105919,0.0215579569,42.4348411560,43.5574760437,31.3139324188,0.0733592510,-0.0135004222,-0.0120127797,
51.883,-3.2846281528,1.3749896288,5.6436686516,0.0650114194,0.0489789359,0.0058379769,-117.6217803955,73.7171783447,27.6140174866,0.0302019119,0.0573958606,0.0132610798,-10.4401350021,84.1990280151,32.8378410339,0.0285704136,0.0206559300,0.0249636918,42.4331321716,43.5576286316,31.3178596497,0.0689666867,-0.0100654364,-0.0017731190,
51.893,-3.2866303921,1.3785063028,5.6446528435,0.0562837161,0.0397363789,0.0043762326,-117.6281280518,73.7163772583,27.6107654572,0.0248268843,0.0544640124,0.0098769069,-10.4238309860,84.1999816895,32.8612518311,0.0261306763,0.0279484987,0.0230203718,42.4330863953,43.5591926575,31.3236427307,0.0689864755,-0.0100521445,-0.0085945725,
51.903,-3.2893464565,1.3803509474,5.6457352638,0.0558276214,0.0392953642,0.0082865357,-117.6376266479,73.7121276855,27.6070270538,0.0267592072,0.0593882948,0.0084865093,-10.3935585022,84.1972732544,32.8998336792,0.0251493454,0.0269265473,0.0317546874,42.4334945679,43.5610885620,31.3318824768,0.0709635615,-0.0119936764,-0.0022268295,
51.913,-3.2912259102,1.3792341948,5.6475558281,0.0597143844,0.0422578193,0.0029163957,-117.6348953247,73.7124786377,27.6163444519,0.0238312483,0.0628064722,0.0226318836,-10.3769330978,84.1971740723,32.9286613464,0.0158718228,0.0229912400,0.0302819014,42.4340782166,43.5595703125,31.3410453796,0.0709443092,-0.0071288347,0.0021586418,
51.923,-3.2909750938,1.3779852390,5.6493096352,0.0645754039,0.0432300493,0.0063337684,-117.6374893188,73.7112731934,27.6212882996,0.0194308162,0.0652604401,0.0177696943,-10.3686323166,84.2000808716,32.9465217590,0.0236894488,0.0293152630,0.0142147690,42.4352645874,43.5594825745,31.3494911194,0.0709432364,-0.0139764547,-0.0046675801,
51.933,-3.2901260853,1.3760257959,5.6510643959,0.0669826269,0.0432153046,0.0043789148,-117.6388168335,73.7058944702,27.6282672882,0.0247755647,0.0614301711,0.0051220059,-10.3692131042,84.2007904053,32.9555397034,0.0227141380,0.0249197185,0.0191089213,42.4382591248,43.5591659546,31.3590965271,0.0675212741,-0.0047296286,-0.0095273852,
51.943,-3.2904794216,1.3750423193,5.6528534889,0.0615943670,0.0432214737,0.0087735057,-117.6315231323,73.7034225464,27.6428165436,0.0257400274,0.0605073720,0.0163398385,-10.3851671219,84.2018737793,32.9491004944,0.0232043266,0.0220146179,0.0225525200,42.4385528564,43.5604515076,31.3691215515,0.0665609241,-0.0081399679,-0.0095142126,
51.953,-3.2938718796,1.3734936714,5.6540603638,0.0591259375,0.0369329564,0.0077996254,-117.6295928955,73.7015991211,27.6508350372,0.0281724930,0.0576090813,0.0099978447,-10.4100189209,84.2011642456,32.9332389832,0.0232030749,0.0196196437,0.0328009874,42.4402084351,43.5599136353,31.3781299591,0.0670424700,-0.0081596375,-0.0070624948,
51.963,-3.2939426899,1.3722790480,5.6546030045,0.0644758418,0.0442584343,0.0131703019,-117.6161499023,73.7001571655,27.6704502106,0.0315834284,0.0605904460,0.0167863369,-10.4236249924,84.2032928467,32.9267730713,0.0222302675,0.0225667357,0.0152639300,42.4390754700,43.5603828430,31.3849163055,0.0660718679,-0.0164462030,-0.0075572133,
51.973,-3.2951006889,1.3734370470,5.6562652588,0.0605897978,0.0403723344,0.0107307434,-117.6275863647,73.6989212036,27.6647682190,0.0223000050,0.0581409037,-0.0017088652,-10.4476165771,84.2055587769,32.9118385315,0.0193045735,0.0196725726,0.0211687088,42.4370269775,43.5621109009,31.3898563385,0.0641405582,-0.0149480700,-0.0002341270,
51.983,-3.2961952686,1.3724936247,5.6555671692,0.0630147457,0.0408797078,0.0063364506,-117.6162338257,73.6987915039,27.6801872253,0.0247407556,0.0523097217,0.0143559575,-10.4773569107,84.2054595947,32.8904342651,0.0197926760,0.0202137828,0.0221533924,42.4366683960,43.5638237000,31.3940753937,0.0675801635,-0.0163957775,-0.0041289926,
51.993,-3.2953941822,1.3749766350,5.6560144424,0.0557338484,0.0408656932,0.0121964216,-117.6154937744,73.7057037354,27.6830081940,0.0291691422,0.0634396970,0.0152757764,-10.4843378067,84.2032241821,32.8906211853,0.0236949921,0.0221862793,0.0260237455,42.4340057373,43.5624809265,31.3965511322,0.0690280199,-0.0149168372,0.0007200837,
52.003,-3.2953143120,1.3758860826,5.6577420235,0.0591676831,0.0447705276,0.0063373446,-117.6039657593,73.7103576660,27.6977958679,0.0252857208,0.0609557629,0.0215370655,-10.4851512909,84.2023162842,32.8967971802,0.0271113515,0.0251201093,0.0255213827,42.4370613098,43.5651626587,31.4034156799,0.0671088696,-0.0124823451,-0.0104614496,
52.013,-3.2945952415,1.3773411512,5.6575975418,0.0591930747,0.0428048484,0.0112196207,-117.5954284668,73.7121658325,27.7087879181,0.0262711048,0.0585069358,0.0117202997,-10.4841346741,84.2046432495,32.9043159485,0.0178381205,0.0275524259,0.0182362199,42.4400138855,43.5658035278,31.4111881256,0.0661403537,-0.0115280747,-0.0045708418,
52.023,-3.2941911221,1.3771349192,5.6574773788,0.0626074448,0.0418212451,0.0038951635,-117.6039505005,73.7157058716,27.7047176361,0.0297064185,0.0564819872,0.0083120465,-10.4546928406,84.2021102905,32.9404106140,0.0197867751,0.0260435641,0.0216004252,42.4417610168,43.5677719116,31.4176692963,0.0671418309,-0.0081104934,-0.0069800019,
52.033,-3.2939043045,1.3775943518,5.6579356194,0.0606623366,0.0369334221,0.0112192631,-117.6065063477,73.7184600830,27.7064666748,0.0253253579,0.0569232851,0.0136729479,-10.4754142761,84.2006912231,32.9261970520,0.0192959905,0.0177836418,0.0225615799,42.4417190552,43.5685157776,31.4241657257,0.0637332797,-0.0134750605,-0.0089267492,
52.043,-3.2929587364,1.3769658804,5.6578993797,0.0596748069,0.0437529013,-0.0000122786,-117.6147460938,73.7209014893,27.7033233643,0.0238724351,0.0597988516,0.0107602477,-10.4592170715,84.1979522705,32.9500350952,0.0256388187,0.0280173421,0.0288578868,42.4456634521,43.5701141357,31.4346599579,0.0657065511,-0.0071513355,-0.0020430088,
52.053,-3.2925179005,1.3779734373,5.6589989662,0.0587158240,0.0417920761,0.0068235993,-117.6334762573,73.7220764160,27.6901397705,0.0263196230,0.0612030327,0.0069263577,-10.4618110657,84.1965942383,32.9546279907,0.0227067471,0.0221667886,0.0234647095,42.4472198486,43.5678710938,31.4424018860,0.0725141764,-0.0037660897,0.0008800030,
52.063,-3.2927763462,1.3777326345,5.6595377922,0.0606647469,0.0437497012,0.0024293661,-117.6299057007,73.7210311890,27.6997871399,0.0307090282,0.0534141809,0.0171728134,-10.4388246536,84.1960906982,32.9853630066,0.0271003842,0.0255452693,0.0234507024,42.4504318237,43.5686187744,31.4509983063,0.0691056252,-0.0091611445,-0.0122694969,
52.073,-3.2929074764,1.3795129061,5.6605534554,0.0602075309,0.0398456976,0.0043832660,-117.6300048828,73.7207870483,27.7074108124,0.0248484612,0.0534174293,0.0181517601,-10.4324865341,84.1942367554,33.0007057190,0.0227025747,0.0255401134,0.0282979310,42.4518280029,43.5680465698,31.4582138062,0.0666570067,-0.0062491298,0.0009209514,
52.083,-3.2939443588,1.3814154863,5.6610269547,0.0553579107,0.0388871506,0.0034081340,-117.6318054199,73.7181015015,27.7108001709,0.0272767544,0.0568710417,0.0108561516,-10.4107036591,84.1970748901,33.0339241028,0.0231958628,0.0284221470,0.0151567757,42.4517517090,43.5676040649,31.4648761749,0.0690928102,-0.0072285533,-0.0093374252,
52.093,-3.2955186367,1.3813143969,5.6622123718,0.0563327149,0.0389145799,0.0121994019,-117.6276779175,73.7147445679,27.7231960297,0.0218892097,0.0559536517,0.0147705078,-10.4098091125,84.1991653442,33.0438232422,0.0256409645,0.0259731710,0.0230011493,42.4561119080,43.5694198608,31.4748554230,0.0642329454,-0.0053014755,-0.0092847943,
52.103,-3.2963786125,1.3794108629,5.6628355980,0.0626471564,0.0457655452,0.0146408081,-117.6311340332,73.7104339600,27.7284126282,0.0223563910,0.0584515780,0.0070065260,-10.3943576813,84.1999130249,33.0693473816,0.0183180571,0.0308261514,0.0244745463,42.4563751221,43.5717353821,31.4807643890,0.0662153363,-0.0130976140,-0.0092614889,
52.113,-3.2959041595,1.3783440590,5.6646604538,0.0621402599,0.0481987037,0.0156159401,-117.6314086914,73.7084274292,27.7345523834,0.0282059312,0.0579916984,0.0123942494,-10.3613929749,84.2008972168,33.1107559204,0.0261322856,0.0258818865,0.0259454101,42.4544715881,43.5725784302,31.4876899719,0.0652494431,-0.0106315315,0.0004955530,
52.123,-3.2949223518,1.3774282932,5.6664996147,0.0591945946,0.0457402244,0.0082909465,-117.6311950684,73.7051773071,27.7419338226,0.0213540792,0.0541347563,0.0104653239,-10.3640155792,84.2015686035,33.1183776855,0.0256451964,0.0244196355,0.0186333060,42.4520492554,43.5718307495,31.4953289032,0.0662165880,-0.0101267695,0.0038855076,
52.133,-3.2956764698,1.3755472898,5.6653213501,0.0596500561,0.0442885607,0.0034076571,-117.6325149536,73.7010040283,27.7482509613,0.0198687911,0.0517510325,0.0080621243,-10.3684883118,84.2016983032,33.1233901978,0.0246688724,0.0273570716,0.0269361883,42.4514007568,43.5710258484,31.5015850067,0.0642532110,-0.0091505647,0.0028972626,
52.143,-3.2948393822,1.3756430149,5.6670575142,0.0601400062,0.0408560075,0.0141491890,-117.6275558472,73.7019577026,27.7590751648,0.0252445936,0.0576091260,0.0163337588,-10.3873920441,84.2037048340,33.1140594482,0.0266255140,0.0215247273,0.0147709399,42.4496574402,43.5744514465,31.5068035126,0.0642966032,-0.0139894485,-0.0039240122,
52.153,-3.2962303162,1.3757990599,5.6675472260,0.0616075732,0.0418567955,0.0078030825,-117.6252899170,73.7011184692,27.7658233643,0.0257287621,0.0566487312,0.0124242306,-10.3948440552,84.2026138306,33.1143531799,0.0246704817,0.0249594450,0.0264722705,42.4475593567,43.5737266541,31.5115509033,0.0701467991,-0.0149521232,-0.0049238801,
52.163,-3.2940740585,1.3740799427,5.6674909592,0.0659721121,0.0457255282,0.0092650056,-117.6183929443,73.6976013184,27.7766265869,0.0335240364,0.0523224920,0.0060736537,-10.4298419952,84.2004470825,33.0852622986,0.0261315107,0.0142856538,0.0210780501,42.4442787170,43.5691680908,31.5154266357,0.0749719739,-0.0139820874,0.0042839646,
52.173,-3.2965590954,1.3736051321,5.6661152840,0.0635224134,0.0360032022,0.0097551942,-117.6211395264,73.6974563599,27.7770652771,0.0257108212,0.0572012961,0.0036453605,-10.4311342239,84.2002868652,33.0905838013,0.0227132440,0.0230777562,0.0240037292,42.4484214783,43.5650482178,31.5248584747,0.0798026919,-0.0018469691,-0.0025522709,
52.183,-3.2970533371,1.3709125519,5.6673603058,0.0629871637,0.0428478122,0.0038954616,-117.6260147095,73.6978836060,27.7749271393,0.0257129073,0.0537659675,0.0065929890,-10.4216670990,84.1989364624,33.1077003479,0.0222225785,0.0245297849,0.0303271413,42.4478416443,43.5620956421,31.5303516388,0.0729294419,-0.0135844052,0.0022985935,
52.193,-3.2956161499,1.3729459047,5.6679425240,0.0508156046,0.0452641360,0.0102425218,-117.6235656738,73.7022628784,27.7809410095,0.0247578025,0.0620068163,0.0114313364,-10.4148473740,84.2010574341,33.1205329895,0.0217380524,0.0249995291,0.0147349089,42.4483108521,43.5630645752,31.5360641479,0.0670822859,-0.0126042664,0.0013354421,
52.203,-3.2950720787,1.3721361160,5.6679382324,0.0605670996,0.0486726426,0.0073121786,-117.6212463379,73.7043609619,27.7872600555,0.0252563357,0.0590519309,0.0143344998,-10.4083528519,84.2004470825,33.1328239441,0.0241783857,0.0274311900,0.0274185985,42.4500923157,43.5645561218,31.5439662933,0.0656362772,-0.0106557608,-0.0074257851,
52.213,-3.2926604748,1.3727874756,5.6696944237,0.0600901842,0.0486306250,0.0068213344,-117.6187057495,73.7059860229,27.7938518524,0.0281940103,0.0624511242,0.0143108964,-10.4019403458,84.1991653442,33.1462364197,0.0222229958,0.0274238288,0.0322775096,42.4545669556,43.5637474060,31.5523433685,0.0753917098,-0.0092392564,-0.0054414272,
52.223,-3.2926847935,1.3734477758,5.6691045761,0.0532657653,0.0466779023,0.0112163424,-117.6170959473,73.7080917358,27.8003101349,0.0208801031,0.0624236912,0.0118461847,-10.3879423141,84.1993026733,33.1655921936,0.0275943279,0.0239806473,0.0229978859,42.4546813965,43.5639190674,31.5573101044,0.0724642277,-0.0131451488,-0.0044623613,
52.233,-3.2926650047,1.3712956905,5.6703286171,0.0629938394,0.0447244905,-0.0024563074,-117.6108551025,73.7083969116,27.8104553223,0.0316237807,0.0595041662,0.0176759362,-10.4117002487,84.1974105835,33.1514167786,0.0241730213,0.0215872824,0.0239495039,42.4558982849,43.5628776550,31.5652122498,0.0744041204,-0.0058407485,-0.0025080442,
52.243,-3.2937757969,1.3727259636,5.6701464653,0.0615539551,0.0427906774,0.0146351457,-117.6113433838,73.7094955444,27.8157920837,0.0301643014,0.0638808906,0.0147400498,-10.4252376556,84.1972122192,33.1454887390,0.0217312574,0.0255182087,0.0254150629,42.4577217102,43.5616073608,31.5730533600,0.0724349618,-0.0097743273,-0.0029920936,
52.253,-3.2954611778,1.3724472523,5.6724700928,0.0635022148,0.0428200439,0.0078008771,-117.6153564453,73.7108306885,27.8181648254,0.0233349204,0.0623872429,0.0137705803,-10.4147968292,84.1997375488,33.1630783081,0.0232005715,0.0269566476,0.0195953697,42.4592819214,43.5595779419,31.5827217102,0.0728975534,-0.0058991313,-0.0049499273,
52.263,-3.2971539497,1.3706629276,5.6725668907,0.0556585789,0.0428495705,0.0156145096,-117.6179428101,73.7075576782,27.8232383728,0.0233188868,0.0555940419,0.0108774304,-10.4378213882,84.1961593628,33.1508178711,0.0246590972,0.0191960037,0.0273552686,42.4577865601,43.5603981018,31.5885848999,0.0631422997,-0.0088081658,-0.0010491610,
52.273,-3.2963304520,1.3710200787,5.6749205589,0.0615241863,0.0472297482,0.0146371722,-117.6180496216,73.7063598633,27.8297576904,0.0296606421,0.0541465878,0.0162583590,-10.4699792862,84.1929550171,33.1267929077,0.0251417160,0.0217039883,0.0248728842,42.4549293518,43.5619163513,31.5946769714,0.0646263361,-0.0146287382,-0.0054553747,
52.283,-3.2980377674,1.3698580265,5.6754875183,0.0619921908,0.0428649895,0.0092672706,-117.6320800781,73.7029342651,27.8236274719,0.0281790495,0.0590486377,0.0036505461,-10.4775037766,84.1957244873,33.1278419495,0.0314942598,0.0212208033,0.0151539743,42.4500846863,43.5629425049,31.5987415314,0.0631744862,-0.0111570358,0.0023257136,
52.293,-3.2975640297,1.3683731556,5.6760754585,0.0629428476,0.0462747328,0.0043832660,-117.6301116943,73.7051467896,27.8332748413,0.0281898975,0.0629255772,0.0158320069,-10.4687213898,84.1928863525,33.1456222534,0.0231884718,0.0217022896,0.0312168747,42.4478797913,43.5623359680,31.6036357880,0.0690261722,-0.0170008540,-0.0016053319,
52.303,-3.2976515293,1.3684712648,5.6777682304,0.0619679987,0.0399285965,0.0053600073,-117.6346359253,73.7026443481,27.8354797363,0.0301307440,0.0541646332,0.0061053634,-10.4557352066,84.1930541992,33.1675109863,0.0285598636,0.0270495117,0.0204753578,42.4486656189,43.5615081787,31.6120471954,0.0670626163,-0.0087140799,-0.0045353174,
52.313,-3.2976846695,1.3683495522,5.6782588959,0.0624541566,0.0423705950,0.0043835640,-117.6342391968,73.7051620483,27.8421401978,0.0281899571,0.0609632879,0.0158498883,-10.4576587677,84.1964035034,33.1740417480,0.0231946707,0.0255781710,0.0210175067,42.4476203918,43.5635528564,31.6180000305,0.0656235814,-0.0174767375,-0.0050141215,
52.323,-3.2994422913,1.3689041138,5.6799564362,0.0605107062,0.0404480696,0.0092678666,-117.6260147095,73.7054519653,27.8554096222,0.0272148252,0.0551183969,0.0177648664,-10.4527635574,84.1960601807,33.1866531372,0.0231940746,0.0255705714,0.0205218792,42.4494934082,43.5634422302,31.6256084442,0.0656222105,-0.0121241808,-0.0069528222,
52.333,-3.2982559204,1.3681466579,5.6804957390,0.0629388988,0.0443336703,0.0151263475,-117.6251144409,73.7071914673,27.8615665436,0.0267350674,0.0604661256,0.0138412714,-10.4515542984,84.1956558228,33.1925544739,0.0285644531,0.0211748481,0.0234462470,42.4492683411,43.5659408569,31.6319198608,0.0602827072,-0.0111250877,-0.0059556365,
52.343,-3.2947165966,1.3665193319,5.6828908920,0.0663284734,0.0481783040,0.0136567950,-117.6222457886,73.7086029053,27.8690853119,0.0301599503,0.0575221181,0.0128412247,-10.4364871979,84.1946411133,33.2154083252,0.0222150087,0.0245691538,0.0234248638,42.4500999451,43.5681571960,31.6375274658,0.0690997839,-0.0125797391,-0.0015342236,
52.353,-3.2944045067,1.3680435419,5.6857895851,0.0595191307,0.0432900228,0.0097511411,-117.6186218262,73.7112731934,27.8759288788,0.0248019099,0.0584671497,0.0157343745,-10.4274930954,84.1957550049,33.2297286987,0.0251466632,0.0269912779,0.0219750255,42.4511108398,43.5696258545,31.6446399689,0.0715597868,-0.0081827044,-0.0073719621,
52.363,-3.2934005260,1.3675218821,5.6857848167,0.0595100261,0.0481553562,0.0058432817,-117.6176528931,73.7115859985,27.8830051422,0.0326159596,0.0569999963,0.0088918805,-10.4200716019,84.1939697266,33.2460060120,0.0251435041,0.0260070264,0.0273140818,42.4497528076,43.5672988892,31.6493663788,0.0734834671,-0.0120952725,0.0013847947,
52.373,-3.2933444977,1.3658341169,5.6863613129,0.0638751090,0.0447364599,0.0102373958,-117.6163253784,73.7117919922,27.8892021179,0.0179685354,0.0604179353,0.0103493929,-10.4139680862,84.1942367554,33.2604904175,0.0227025747,0.0245304406,0.0248757601,42.4515571594,43.5677986145,31.6571044922,0.0666538477,-0.0086899996,-0.0103141665,
52.383,-3.2928190231,1.3651974201,5.6869721413,0.0580046251,0.0442390330,0.0092600584,-117.6116027832,73.7145233154,27.8978824615,0.0213998556,0.0550169647,0.0127491355,-10.4073276520,84.1929855347,33.2749404907,0.0246534944,0.0235460401,0.0214340985,42.4507637024,43.5689811707,31.6633319855,0.0652040243,-0.0106260777,-0.0020095110,
52.393,-3.2918937206,1.3646020889,5.6894669533,0.0560411140,0.0476409011,0.0077940226,-117.6087646484,73.7120513916,27.9051151276,0.0252940059,0.0575015545,0.0078729987,-10.3989934921,84.1933593750,33.2911033630,0.0266072750,0.0230417848,0.0199730545,42.4526481628,43.5684852600,31.6695747375,0.0647093654,-0.0077180862,-0.0044392943,
52.403,-3.2919719219,1.3647294044,5.6911892891,0.0619027093,0.0442242883,0.0063293576,-117.6026992798,73.7104339600,27.9168624878,0.0243095160,0.0536329448,0.0151833892,-10.4262228012,84.1929550171,33.2715492249,0.0256299973,0.0206499696,0.0268107504,42.4498710632,43.5688934326,31.6729621887,0.0705739856,-0.0164778233,-0.0000647306,
52.413,-3.2919449806,1.3648205996,5.6912293434,0.0531152375,0.0447121039,0.0068175793,-117.6105804443,73.7069931030,27.9143352509,0.0272223353,0.0551308841,0.0045021176,-10.4414167404,84.1944732666,33.2653846741,0.0270975232,0.0201838911,0.0209821910,42.4526367188,43.5678138733,31.6808338165,0.0715368986,-0.0008874238,-0.0117694139,
52.423,-3.2936656475,1.3662244081,5.6934509277,0.0619287938,0.0383943841,0.0087731481,-117.6067276001,73.7033538818,27.9229469299,0.0296459198,0.0542171299,0.0098846555,-10.4283189774,84.1931533813,33.2868347168,0.0261186361,0.0279774964,0.0263251811,42.4503479004,43.5649414063,31.6853694916,0.0700356960,-0.0111433864,0.0038099289,
52.433,-3.2926344872,1.3660802841,5.6952786446,0.0565551817,0.0437475145,0.0102365017,-117.6050872803,73.7027740479,27.9283294678,0.0296431184,0.0586240143,0.0162295699,-10.4201450348,84.1941070557,33.3045959473,0.0222140551,0.0240534842,0.0204813033,42.4498710632,43.5632781982,31.6914482117,0.0724560618,-0.0131055117,-0.0035325885,
52.443,-3.2927846909,1.3667006493,5.6957945824,0.0599839762,0.0461915284,0.0077958703,-117.6053466797,73.7027053833,27.9325122833,0.0247599483,0.0576477349,0.0133016109,-10.4187898636,84.1960906982,33.3131637573,0.0183113217,0.0255101621,0.0219766945,42.4476089478,43.5619506836,31.6971340179,0.0709744096,-0.0140716434,-0.0025868416,
52.453,-3.2923331261,1.3659930229,5.6968946457,0.0648544431,0.0417891406,0.0102360845,-117.5982971191,73.7021102905,27.9455223083,0.0291515589,0.0571842492,0.0142521262,-10.4097509384,84.1976165771,33.3299674988,0.0207554102,0.0240244567,0.0210237652,42.4480438232,43.5634117126,31.7040863037,0.0690398216,-0.0125990212,-0.0050116777,
52.463,-3.2931807041,1.3670990467,5.6985845566,0.0585260838,0.0393624753,0.0077962279,-117.5978775024,73.7006912231,27.9507236481,0.0291446447,0.0562289357,0.0084017515,-10.4106063843,84.1972732544,33.3380928040,0.0251493454,0.0240269899,0.0283426493,42.4452819824,43.5625267029,31.7103767395,0.0646340847,-0.0150218904,0.0027688146,
52.473,-3.2908074856,1.3672379255,5.7015399933,0.0624347590,0.0461570695,0.0151181817,-117.5985565186,73.6984481812,27.9558277130,0.0222976804,0.0562615097,0.0123283863,-10.4019136429,84.1972122192,33.3564491272,0.0212429762,0.0235236287,0.0161310434,42.4419937134,43.5629844666,31.7146053314,0.0626867414,-0.0144990087,0.0012809634,
52.483,-3.2945291996,1.3679660559,5.7038006783,0.0600060597,0.0335265733,0.0087745786,-117.5997695923,73.7008895874,27.9620513916,0.0242627859,0.0601284802,0.0084084272,-10.4011058807,84.1978836060,33.3675880432,0.0197793245,0.0235203803,0.0219996423,42.4398994446,43.5638809204,31.7223548889,0.0670925975,-0.0159373283,-0.0001950264,
52.493,-3.2955262661,1.3690530062,5.7048368454,0.0624664277,0.0433095358,-0.0000130534,-117.5955657959,73.7012710571,27.9734172821,0.0252411962,0.0537846684,0.0118051171,-10.4302196503,84.1947784424,33.3471450806,0.0217269659,0.0230926275,0.0248910040,42.4403305054,43.5659294128,31.7277641296,0.0583294034,-0.0134831369,-0.0006605387,
52.503,-3.2946345806,1.3689700365,5.7059102058,0.0649063885,0.0432940088,0.0126813650,-117.5993194580,73.7011184692,27.9772720337,0.0232873559,0.0508489758,0.0084046721,-10.4444055557,84.1969375610,33.3407592773,0.0192893744,0.0245763361,0.0161402375,42.4402542114,43.5663414001,31.7342872620,0.0700533986,-0.0168971419,-0.0040762424,
52.513,-3.2894189358,1.3677599430,5.7065329552,0.0643969923,0.0563867763,0.0112108588,-117.6032028198,73.7037506104,27.9764842987,0.0257416368,0.0556836426,0.0113310218,-10.4673194885,84.1934661865,33.3244438171,0.0212363601,0.0177918673,0.0273190886,42.4424591064,43.5635032654,31.7397823334,0.0724589229,-0.0076632500,0.0022660494,
52.523,-3.2877185345,1.3681133986,5.7063951492,0.0629383177,0.0441501215,0.0077912211,-117.6025161743,73.7044067383,27.9787368774,0.0252565742,0.0503042936,0.0064400434,-10.4902801514,84.1918716431,33.3072509766,0.0305109024,0.0188135505,0.0253502727,42.4393730164,43.5641784668,31.7416229248,0.0705143213,-0.0183713436,-0.0031265020,
52.533,-3.2870748043,1.3672631979,5.7075834274,0.0609703548,0.0446272120,0.0077903867,-117.5935287476,73.7073287964,27.9868392944,0.0242943168,0.0605356693,0.0234682560,-10.5065431595,84.1907272339,33.2957458496,0.0275791883,0.0207993984,0.0214280933,42.4401817322,43.5666427612,31.7460823059,0.0734751821,-0.0139642954,-0.0123747587,
52.543,-3.2857496738,1.3676222563,5.7080326080,0.0629297495,0.0406978615,0.0048594475,-117.5834655762,73.7105331421,27.9953422546,0.0306576490,0.0605111271,0.0165636539,-10.4901838303,84.1890411377,33.3174095154,0.0319707394,0.0237053335,0.0306716561,42.4404602051,43.5680999756,31.7502861023,0.0681225061,-0.0129784942,-0.0006403923,
52.553,-3.2842695713,1.3690557480,5.7090587616,0.0614899173,0.0411603265,0.0063233972,-117.5828094482,73.7094116211,27.9960021973,0.0233279467,0.0619945526,0.0082687140,-10.4639339447,84.1883697510,33.3502120972,0.0280632973,0.0261021852,0.0243045241,42.4416351318,43.5679702759,31.7586116791,0.0720271468,-0.0090842247,-0.0079556704,
52.563,-3.2834110260,1.3709765673,5.7114214897,0.0537109300,0.0430984497,0.0097412467,-117.5736007690,73.7101440430,28.0075225830,0.0272377729,0.0615158081,0.0233595967,-10.4316682816,84.1880950928,33.3908958435,0.0261096954,0.0270221829,0.0257550478,42.4439468384,43.5697517395,31.7674236298,0.0715613365,-0.0076265633,-0.0035256743,
52.573,-3.2846682072,1.3714755774,5.7131004333,0.0629969835,0.0421437733,0.0131607652,-117.5683517456,73.7078247070,28.0194530487,0.0272264481,0.0625386238,0.0145657063,-10.4172630310,84.1901931763,33.4143676758,0.0183008909,0.0245487988,0.0179727674,42.4433059692,43.5662689209,31.7744407654,0.0739587545,-0.0027660728,-0.0030743480,
52.583,-3.2837104797,1.3717132807,5.7148942947,0.0571417548,0.0435919352,0.0033938885,-117.5604324341,73.7056350708,28.0349102020,0.0281922817,0.0552647561,0.0179659724,-10.4379024506,84.1935958862,33.4045982361,0.0222131610,0.0221335888,0.0195008367,42.4424095154,43.5669403076,31.7810363770,0.0627367496,-0.0090998113,-0.0020983815,
52.593,-3.2815608978,1.3711464405,5.7166938782,0.0620146729,0.0499021523,0.0014386773,-117.5595321655,73.7029800415,28.0468692780,0.0286675692,0.0597007573,0.0121231675,-10.4361124039,84.1937255859,33.4159011841,0.0261196494,0.0275010169,0.0204795301,42.4429016113,43.5637207031,31.7879066467,0.0709968209,-0.0047360957,-0.0011472702,
52.603,-3.2805936337,1.3709318638,5.7177591324,0.0649406165,0.0415845290,0.0019260645,-117.5546417236,73.7019958496,28.0599460602,0.0257330537,0.0572855175,0.0174806118,-10.4244880676,84.1919021606,33.4378089905,0.0295343995,0.0216266811,0.0272809565,42.4463233948,43.5630187988,31.7962474823,0.0656168461,-0.0052620173,-0.0064950585,
52.613,-3.2809977531,1.3707164526,5.7201242447,0.0610306114,0.0430564173,0.0048556328,-117.5600357056,73.6999130249,28.0626220703,0.0227931738,0.0582798570,0.0043365955,-10.4191770554,84.1932601929,33.4532661438,0.0246539712,0.0255193114,0.0253490806,42.4474525452,43.5626983643,31.8039302826,0.0675659180,-0.0125993490,-0.0020937920,
52.623,-3.2820012569,1.3733129501,5.7211651802,0.0576579459,0.0430738330,0.0136470199,-117.5598983765,73.6994171143,28.0709686279,0.0183961987,0.0573116392,0.0067811012,-10.4084911346,84.1924133301,33.4754638672,0.0183048248,0.0264797509,0.0258180350,42.4442939758,43.5652198792,31.8104400635,0.0607618690,-0.0169438720,-0.0040513277,
52.633,-3.2817246914,1.3742581606,5.7216477394,0.0610924065,0.0455104038,0.0107176900,-117.5590133667,73.7007522583,28.0809421539,0.0291449428,0.0602233559,0.0126264691,-10.4259243011,84.1944046021,33.4682655334,0.0144020915,0.0201567113,0.0165809840,42.4439277649,43.5639915466,31.8170890808,0.0680705905,-0.0125558674,0.0032591820,
52.643,-3.2829797268,1.3746792078,5.7239928246,0.0586583465,0.0401611626,0.0004650950,-117.5563201904,73.7031326294,28.0937805176,0.0247620344,0.0548233241,0.0140612721,-10.4493408203,84.1958618164,33.4551200867,0.0246585608,0.0177521706,0.0146609694,42.4427947998,43.5614051819,31.8223247528,0.0646198988,-0.0091484189,0.0056673884,
52.653,-3.2827434540,1.3758455515,5.7262873650,0.0606318265,0.0430867076,0.0092543960,-117.5500640869,73.7083053589,28.1079826355,0.0296701789,0.0596431792,0.0139939785,-10.4232788086,84.1976165771,33.4914855957,0.0207554102,0.0328379571,0.0224897861,42.4399223328,43.5600395203,31.8283081055,0.0670440197,-0.0101090074,0.0031901598,
52.663,-3.2817983627,1.3778018951,5.7267227173,0.0596893951,0.0435584746,0.0107191205,-117.5588455200,73.7130355835,28.1074256897,0.0306699276,0.0566234440,0.0091128349,-10.4413852692,84.1984939575,33.4809417725,0.0251514912,0.0226128995,0.0225140601,42.4403839111,43.5594062805,31.8341636658,0.0680125356,-0.0106070340,0.0002577305,
52.673,-3.2813222408,1.3781975508,5.7265768051,0.0626259893,0.0420853272,0.0033941865,-117.5600585938,73.7173385620,28.1089553833,0.0336206555,0.0570455343,0.0105497837,-10.4578838348,84.2013320923,33.4722938538,0.0236916542,0.0221452713,0.0171946287,42.4398994446,43.5631103516,31.8393344879,0.0646414757,-0.0213144124,-0.0085014701,
52.683,-3.2790808678,1.3783609867,5.7277078629,0.0616522729,0.0459525287,0.0063219070,-117.5592269897,73.7224578857,28.1114559174,0.0258331895,0.0574603826,0.0095300078,-10.4759550095,84.2007217407,33.4588088989,0.0241788626,0.0226673782,0.0279328525,42.4429244995,43.5629234314,31.8440303802,0.0646390915,-0.0066958964,-0.0016424656,
52.693,-3.2791495323,1.3796406984,5.7282361984,0.0577683523,0.0464419760,0.0107170939,-117.5647735596,73.7286911011,28.1066169739,0.0346527696,0.0597961694,0.0104825497,-10.4982023239,84.1992034912,33.4395370483,0.0246644616,0.0158755779,0.0201020241,42.4444389343,43.5650672913,31.8481636047,0.0622248650,-0.0081572831,-0.0040507317,
52.703,-3.2787499428,1.3803582191,5.7275276184,0.0592457168,0.0439935923,0.0033929348,-117.5611267090,73.7289505005,28.1072769165,0.0322126150,0.0490590483,0.0094881058,-10.4985589981,84.1966323853,33.4431877136,0.0241716504,0.0232084394,0.0293361694,42.4424247742,43.5618705750,31.8509387970,0.0729265809,-0.0076763630,0.0100626945,
52.713,-3.2770445347,1.3833484650,5.7280340195,0.0539267957,0.0483583435,0.0112048984,-117.5612258911,73.7299652100,28.1038703918,0.0268464684,0.0563679785,0.0065509081,-10.4966478348,84.1985549927,33.4510993958,0.0251516104,0.0231990814,0.0166725218,42.4440155029,43.5641136169,31.8569812775,0.0670955181,-0.0071845353,-0.0069925189,
52.723,-3.2787148952,1.3834713697,5.7316036224,0.0602765977,0.0405749381,0.0102301240,-117.5578765869,73.7268981934,28.1052341461,0.0263432264,0.0627685189,0.0104662776,-10.4900474548,84.1970748901,33.4633827209,0.0236841440,0.0290510356,0.0259249359,42.4419479370,43.5664749146,31.8610267639,0.0695668459,-0.0115407705,-0.0045489073,
52.733,-3.2794833183,1.3831918240,5.7327241898,0.0632014051,0.0440063030,0.0063245296,-117.5573043823,73.7265472412,28.1084651947,0.0268297791,0.0617985278,0.0143728852,-10.4615888596,84.1973114014,33.4998321533,0.0241728425,0.0236291587,0.0288467109,42.4446372986,43.5636215210,31.8713111877,0.0773432255,-0.0018232465,-0.0011323094,
52.743,-3.2793033123,1.3829990625,5.7351040840,0.0612449199,0.0449797288,0.0131602883,-117.5534362793,73.7220687866,28.1179103851,0.0238781571,0.0628492981,0.0192734599,-10.4729700089,84.1980514526,33.4999275208,0.0261272788,0.0177873969,0.0259349346,42.4479789734,43.5633049011,31.8820819855,0.0690384507,-0.0057633817,-0.0074552298,
52.753,-3.2812633514,1.3827232122,5.7374787331,0.0612401068,0.0440373197,0.0048612356,-117.5573425293,73.7164688110,28.1243896484,0.0233625174,0.0624366254,0.0124977231,-10.4817447662,84.2005157471,33.5003623962,0.0261316299,0.0187721848,0.0230473429,42.4440765381,43.5606536865,31.8890933990,0.0758408308,-0.0096547008,0.0071368217,
52.763,-3.2822244167,1.3805063963,5.7380690575,0.0655959547,0.0455189571,0.0068144202,-117.5548324585,73.7107467651,28.1381416321,0.0204048157,0.0586194992,0.0164372921,-10.5066366196,84.2048110962,33.4882011414,0.0241860747,0.0197795630,0.0182443410,42.4454307556,43.5608596802,31.8995361328,0.0675427318,-0.0101538599,-0.0045684576,
52.773,-3.2843060493,1.3800452948,5.7410163879,0.0621699393,0.0392075703,0.0092577338,-117.5615768433,73.7059707642,28.1429634094,0.0252642632,0.0620929301,0.0106440783,-10.5293703079,84.2089080811,33.4768142700,0.0256581306,0.0242012441,0.0183224529,42.4433746338,43.5582847595,31.9063453674,0.0640921593,-0.0106439292,0.0051566958,
52.783,-3.2866311073,1.3801229000,5.7396283150,0.0636361390,0.0387597904,0.0073070526,-117.5632171631,73.7036056519,28.1508960724,0.0306237340,0.0606594980,0.0135993361,-10.5519924164,84.2125015259,33.4657020569,0.0232230425,0.0217887163,0.0144833028,42.4475860596,43.5583572388,31.9170322418,0.0655578971,-0.0077530444,-0.0118965507,
52.793,-3.2882931232,1.3813902140,5.7412986755,0.0602402836,0.0407418385,0.0117033124,-117.5590667725,73.7019729614,28.1626529694,0.0242680907,0.0577639490,0.0087109804,-10.5809640884,84.2146606445,33.4470100403,0.0285979509,0.0203685462,0.0140393227,42.4482955933,43.5594825745,31.9245414734,0.0650838614,-0.0160511732,-0.0079740286,
52.803,-3.2865173817,1.3797329664,5.7418580055,0.0655824617,0.0465703234,0.0019358397,-117.5649261475,73.7031860352,28.1629295349,0.0228092074,0.0587091744,0.0053092241,-10.5853843689,84.2162857056,33.4521560669,0.0266476870,0.0262306631,0.0194389373,42.4487762451,43.5594482422,31.9314575195,0.0709427595,-0.0150795579,-0.0040646791,
52.813,-3.2857193947,1.3809566498,5.7442727089,0.0538850650,0.0450915471,0.0053526163,-117.5598831177,73.7047958374,28.1728115082,0.0237936378,0.0601609349,0.0038100481,-10.5872716904,84.2164611816,33.4579238892,0.0222534537,0.0276982784,0.0184659958,42.4459762573,43.5564918518,31.9353408813,0.0718820095,-0.0141006410,0.0007691979,
52.823,-3.2842803001,1.3805962801,5.7454538345,0.0592498705,0.0431133695,0.0077931881,-117.5471267700,73.7101287842,28.1897506714,0.0238197446,0.0596231520,0.0178732872,-10.5940923691,84.2175140381,33.4582252502,0.0183490515,0.0242889524,0.0219044089,42.4446220398,43.5570068359,31.9407558441,0.0655408502,-0.0106660128,0.0022257566,
52.833,-3.2821366787,1.3809311390,5.7465796471,0.0631619617,0.0499119498,0.0053493381,-117.5498275757,73.7172546387,28.1900501251,0.0277608633,0.0629293025,0.0090409517,-10.5812225342,84.2159881592,33.4774818420,0.0212760568,0.0272005796,0.0228521377,42.4468765259,43.5596275330,31.9474220276,0.0621560216,-0.0150601864,-0.0089609623,
52.843,-3.2822952271,1.3817068338,5.7482571602,0.0621989332,0.0416139103,0.0180454850,-117.5465393066,73.7231521606,28.1991271973,0.0209537745,0.0516191721,0.0202115774,-10.5746154785,84.2163925171,33.4906997681,0.0217650533,0.0281648338,0.0252940059,42.4459152222,43.5594825745,31.9526405334,0.0675252080,-0.0106580257,-0.0055536628,
52.853,-3.2831249237,1.3832492828,5.7500472069,0.0549016297,0.0479759835,0.0092579722,-117.5443954468,73.7280731201,28.2040081024,0.0248841047,0.0598519444,0.0133283734,-10.5743885040,84.2151107788,33.4960021973,0.0212745070,0.0247498453,0.0247882456,42.4464607239,43.5585403442,31.9581527710,0.0680016279,-0.0136002302,-0.0011618733,
52.863,-3.2820928097,1.3848193884,5.7523632050,0.0588352755,0.0460048355,-0.0019727945,-117.5510177612,73.7319030762,28.2024173737,0.0263676643,0.0597803444,0.0040501952,-10.5851497650,84.2148361206,33.4930038452,0.0222505927,0.0242818892,0.0262490958,42.4480323792,43.5576095581,31.9637031555,0.0748257637,-0.0097163916,-0.0035990477,
52.873,-3.2831852436,1.3877087831,5.7539362907,0.0588856861,0.0362581797,0.0131657124,-117.5417022705,73.7355728149,28.2149353027,0.0239441991,0.0524228811,0.0157001019,-10.5839576721,84.2096176147,33.5006942749,0.0237062573,0.0189245343,0.0315353572,42.4487190247,43.5556030273,31.9705829620,0.0684527755,-0.0068093538,-0.0006809235,
52.883,-3.2825820446,1.3870174885,5.7551989555,0.0559439398,0.0445484668,0.0019350052,-117.5401458740,73.7353134155,28.2189788818,0.0317554474,0.0543832034,0.0137420297,-10.5905542374,84.2070159912,33.5018310547,0.0227251053,0.0243158042,0.0256321579,42.4488334656,43.5542373657,31.9751949310,0.0713651776,-0.0082863569,-0.0089927912,
52.893,-3.2843558788,1.3841496706,5.7552337646,0.0637064055,0.0426263101,0.0131655335,-117.5332489014,73.7355575562,28.2294540405,0.0278503895,0.0563483983,0.0195696354,-10.5988826752,84.2081985474,33.5012588501,0.0261451602,0.0199319422,0.0222390592,42.4505043030,43.5536270142,31.9827213287,0.0659863353,-0.0048889220,-0.0021479726,
52.903,-3.2860219479,1.3863724470,5.7569041252,0.0569092482,0.0407021567,0.0126801133,-117.5503616333,73.7341156006,28.2166442871,0.0317496061,0.0646315962,0.0015887618,-10.6014099121,84.2069778442,33.5057945251,0.0256547332,0.0243347883,0.0310083479,42.4495697021,43.5520210266,31.9883632660,0.0703605413,-0.0127058029,0.0022237301,
52.913,-3.2854509354,1.3888421059,5.7574315071,0.0535343699,0.0465515181,0.0087742805,-117.5493087769,73.7323379517,28.2224578857,0.0346705914,0.0641719252,0.0216174722,-10.5753164291,84.2094802856,33.5417060852,0.0197997689,0.0228159428,0.0193230957,42.4491729736,43.5511093140,31.9940528870,0.0693724751,-0.0112445056,0.0002602339,
52.923,-3.2825860977,1.3873301744,5.7592582703,0.0637618974,0.0479664989,0.0170717239,-117.5482482910,73.7301559448,28.2291660309,0.0268474221,0.0651831627,0.0187001228,-10.6069812775,84.2096176147,33.5204925537,0.0271242261,0.0140827298,0.0207986832,42.4492835999,43.5510749817,32.0006866455,0.0708368421,-0.0068514645,-0.0060877800,
52.933,-3.2839887142,1.3849003315,5.7604551315,0.0642077774,0.0396902114,0.0038880110,-117.5477828979,73.7265777588,28.2383270264,0.0253650546,0.0574249327,0.0162843466,-10.6210832596,84.2094802856,33.5158729553,0.0251708627,0.0219202340,0.0222682357,42.4456062317,43.5503082275,32.0062103271,0.0669209361,-0.0102410913,0.0021757483,
52.943,-3.2828607559,1.3839159012,5.7616295815,0.0612609163,0.0421119854,0.0029101372,-117.5603637695,73.7220535278,28.2336483002,0.0233898163,0.0603934377,0.0046552420,-10.6410684586,84.2101974487,33.5054054260,0.0217541456,0.0224415660,0.0261932611,42.4436416626,43.5498580933,32.0128250122,0.0678917766,-0.0121797025,-0.0022403002,
52.953,-3.2817561626,1.3825139999,5.7646117210,0.0651427060,0.0440459102,0.0009554625,-117.5663604736,73.7170791626,28.2352352142,0.0243420601,0.0565465689,0.0096025467,-10.6188001633,84.2098236084,33.5385704041,0.0237066150,0.0263099968,0.0286187679,42.4441452026,43.5496253967,32.0210418701,0.0644708872,-0.0092563629,-0.0041902661,
52.963,-3.2824909687,1.3818653822,5.7669496536,0.0646431074,0.0440587215,0.0038855672,-117.5652542114,73.7152099609,28.2439308167,0.0306805372,0.0575539172,0.0149833560,-10.6081104279,84.2119827271,33.5587921143,0.0198041797,0.0277487934,0.0169350505,42.4459762573,43.5522499084,32.0293045044,0.0645040274,-0.0156000853,-0.0114767551,
52.973,-3.2822151184,1.3814498186,5.7680792809,0.0636592954,0.0455187745,0.0058383942,-117.5556869507,73.7127227783,28.2575263977,0.0248090029,0.0566357076,0.0154491067,-10.5993051529,84.2094497681,33.5759506226,0.0178465843,0.0257883072,0.0290950388,42.4454917908,43.5545845032,32.0356483459,0.0650218725,-0.0170412958,-0.0065764785,
52.983,-3.2826819420,1.3823918104,5.7698559761,0.0548866689,0.0406440683,0.0102332830,-117.5534210205,73.7133712769,28.2631206512,0.0257887244,0.0551664531,0.0115280151,-10.5822839737,84.2080230713,33.6012992859,0.0246800184,0.0272274613,0.0246712863,42.4450340271,43.5556068420,32.0413284302,0.0713825226,-0.0101928711,-0.0021775365,
52.993,-3.2831299305,1.3814328909,5.7710165977,0.0636589974,0.0450464264,0.0121868253,-117.5493392944,73.7161254883,28.2710952759,0.0248256326,0.0624587089,0.0168601871,-10.5895938873,84.2090072632,33.6011466980,0.0266348720,0.0199129283,0.0251796842,42.4414443970,43.5568847656,32.0444908142,0.0601682067,-0.0150318146,0.0061042309,
53.003,-3.2847876549,1.3818720579,5.7720999718,0.0607369766,0.0387276411,0.0077941418,-117.5446243286,73.7177352905,28.2779636383,0.0258101225,0.0575630516,0.0055965185,-10.5797319412,84.2091140747,33.6175003052,0.0227288008,0.0291728079,0.0281058550,42.4416351318,43.5542297363,32.0513496399,0.0679470897,-0.0072426200,0.0021761656,
53.013,-3.2853982449,1.3829748631,5.7738356590,0.0563616864,0.0402030945,0.0068185925,-117.5375747681,73.7181015015,28.2876243591,0.0238587856,0.0585495830,0.0080044866,-10.5729389191,84.2076873779,33.6313514709,0.0261442661,0.0233056545,0.0256398618,42.4391479492,43.5516052246,32.0537490845,0.0732849836,-0.0111469626,-0.0007979274,
53.023,-3.2851076126,1.3829854727,5.7755789757,0.0602681227,0.0411745906,0.0092598200,-117.5403671265,73.7214431763,28.2871360779,0.0224102736,0.0653305352,0.0035963655,-10.5692605972,84.2051849365,33.6428070068,0.0251632929,0.0237954259,0.0275486410,42.4432716370,43.5529212952,32.0607528687,0.0684188604,-0.0087333620,-0.0129582286,
53.033,-3.2836987972,1.3842046261,5.7761611938,0.0558948591,0.0494507998,0.0126769543,-117.5377655029,73.7224273682,28.2929687500,0.0263213515,0.0584851354,0.0060187578,-10.5688962936,84.2064743042,33.6507606506,0.0232124329,0.0291618109,0.0231758803,42.4472084045,43.5529327393,32.0699920654,0.0767197609,-0.0077934265,-0.0085300207,
53.043,-3.2828857899,1.3862020969,5.7766327858,0.0573945567,0.0430889390,0.0107233524,-117.5438995361,73.7250366211,28.2907733917,0.0253575444,0.0642936826,0.0055370331,-10.5737295151,84.2077560425,33.6544036865,0.0271209478,0.0213537514,0.0202698410,42.4479217529,43.5525131226,32.0755195618,0.0659722686,-0.0078035295,-0.0041329265,
53.053,-3.2825725079,1.3881906271,5.7783770561,0.0535230003,0.0411303006,0.0160953403,-117.5532836914,73.7281723022,28.2866134644,0.0307439566,0.0661777258,0.0099483132,-10.5624151230,84.2049179077,33.6745643616,0.0197917223,0.0267137885,0.0319368094,42.4499893188,43.5491142273,32.0826263428,0.0727652311,-0.0049207211,-0.0026807189,
53.063,-3.2849524021,1.3854961395,5.7796039581,0.0612884909,0.0338476077,0.0160965919,-117.5461578369,73.7317047119,28.3001766205,0.0244135857,0.0641889125,0.0206320882,-10.5617275238,84.2032241821,33.6830520630,0.0266246796,0.0232998431,0.0221426487,42.4492835999,43.5491333008,32.0886421204,0.0644646883,-0.0097967982,-0.0026865602,
53.073,-3.2846033573,1.3837645054,5.7796282768,0.0593051538,0.0416540653,0.0014470220,-117.5406112671,73.7318878174,28.3112564087,0.0283207297,0.0602919608,0.0201181769,-10.5563793182,84.2028884888,33.6972465515,0.0271123648,0.0281743705,0.0265291631,42.4498367310,43.5528030396,32.0965080261,0.0645110607,-0.0141666532,-0.0114383698,
53.083,-3.2830922604,1.3852671385,5.7806878090,0.0612844937,0.0455339663,0.0073054433,-117.5474548340,73.7310485840,28.3108215332,0.0268517733,0.0598010570,0.0103889108,-10.5357322693,84.2000808716,33.7261009216,0.0202714801,0.0257046819,0.0338025391,42.4465599060,43.5495796204,32.1018028259,0.0737476349,-0.0107443035,0.0060833693,
53.093,-3.2851388454,1.3849292994,5.7812175751,0.0612785965,0.0416633710,0.0102372766,-117.5649108887,73.7289810181,28.2992973328,0.0278182030,0.0593033582,0.0012036562,-10.5409078598,84.2011947632,33.7311668396,0.0251562595,0.0237576067,0.0279613286,42.4470176697,43.5479698181,32.1075668335,0.0688444972,-0.0053904653,-0.0027161241,
53.103,-3.2860047817,1.3822914362,5.7818312645,0.0651388243,0.0436316393,0.0121896863,-117.5647048950,73.7302627563,28.3067836761,0.0292893648,0.0568440557,0.0187708139,-10.5222826004,84.2008590698,33.7594718933,0.0266205072,0.0247022808,0.0211134106,42.4430580139,43.5455551147,32.1115531921,0.0766264200,-0.0190449953,0.0035763383,
53.113,-3.2867536545,1.3805249929,5.7829823494,0.0660845637,0.0441330150,0.0019364357,-117.5796356201,73.7291717529,28.2988128662,0.0263543129,0.0582906008,0.0056605935,-10.5275039673,84.1999816895,33.7631607056,0.0163650513,0.0222725570,0.0264734179,42.4432983398,43.5466537476,32.1190261841,0.0634567738,-0.0058546960,-0.0061775446,
53.123,-3.2875595093,1.3821272850,5.7858924866,0.0592765883,0.0436587259,0.0107264519,-117.5924530029,73.7278518677,28.2934856415,0.0283010006,0.0587698966,0.0013319850,-10.5104360580,84.2049865723,33.7905731201,0.0295574665,0.0295513868,0.0119007081,42.4423217773,43.5454902649,32.1251525879,0.0707662106,-0.0102497339,-0.0008257627,
53.133,-3.2868266106,1.3838696480,5.7875404358,0.0607718304,0.0426693596,0.0131682158,-117.5873031616,73.7273406982,28.3051471710,0.0268336535,0.0534173250,0.0193800926,-10.5149574280,84.2046432495,33.7973861694,0.0188146830,0.0237006545,0.0265475214,42.4406852722,43.5475463867,32.1304016113,0.0663976669,-0.0199832320,-0.0071681738,
53.143,-3.2880201340,1.3830164671,5.7887687683,0.0588038154,0.0446432941,0.0068209767,-117.5942001343,73.7271347046,28.3032379150,0.0273209214,0.0582881719,0.0037866831,-10.4962348938,84.2086029053,33.8252868652,0.0193099380,0.0270736516,0.0124447346,42.4414253235,43.5482406616,32.1369667053,0.0678713322,-0.0102190375,-0.0061799884,
53.153,-3.2892849445,1.3817459345,5.7899093628,0.0646410212,0.0422239490,0.0092632771,-117.6049346924,73.7267761230,28.2988662720,0.0273191929,0.0548507869,0.0057893395,-10.5190095901,84.2092437744,33.8090362549,0.0207759142,0.0183226466,0.0217418224,42.4377632141,43.5474662781,32.1410980225,0.0751857758,-0.0111675858,-0.0013348460,
53.163,-3.2888104916,1.3790979385,5.7899494171,0.0626416951,0.0441688746,0.0053554177,-117.5969009399,73.7282104492,28.3099517822,0.0239082575,0.0568007976,0.0194150209,-10.4998855591,84.2078933716,33.8348541260,0.0241914988,0.0231760144,0.0226882249,42.4402503967,43.5474205017,32.1491851807,0.0678609014,-0.0067966580,-0.0071732998,
53.173,-3.2889928818,1.3793517351,5.7898683548,0.0592281520,0.0417306386,0.0146331191,-117.5935440063,73.7282562256,28.3168716431,0.0190256238,0.0533901602,0.0086578727,-10.5231723785,84.2061996460,33.8203849792,0.0232119560,0.0217573047,0.0270641595,42.4382705688,43.5470237732,32.1531562805,0.0663910508,-0.0121524036,0.0020837784,
53.183,-3.2878291607,1.3776147366,5.7911119461,0.0596861318,0.0421986878,0.0048656464,-117.5841064453,73.7278976440,28.3307685852,0.0243949890,0.0543934852,0.0169203877,-10.5179052353,84.2034988403,33.8326835632,0.0207657814,0.0261509120,0.0265288800,42.4369544983,43.5460891724,32.1585693359,0.0727269650,-0.0082415938,0.0045049787,
53.193,-3.2896602154,1.3794658184,5.7909569740,0.0558121763,0.0358828865,0.0165869594,-117.5740203857,73.7310028076,28.3430519104,0.0205038786,0.0607176423,0.0163643956,-10.5437250137,84.2034301758,33.8127441406,0.0183242559,0.0227791071,0.0226283222,42.4365653992,43.5447006226,32.1637725830,0.0663617253,-0.0087372661,-0.0033223033,
53.203,-3.2900421619,1.3808684349,5.7920665741,0.0573014915,0.0432137214,0.0058458447,-117.5729675293,73.7305831909,28.3458709717,0.0224549770,0.0587735623,0.0090386271,-10.5533180237,84.2041015625,33.8108863831,0.0241848230,0.0232822299,0.0265492052,42.4364624023,43.5452117920,32.1702079773,0.0649033189,-0.0106854737,-0.0057608485,
53.213,-3.2901065350,1.3802304268,5.7925982475,0.0621731728,0.0422382951,0.0058456063,-117.5745849609,73.7295227051,28.3482379913,0.0253794789,0.0578084588,0.0017296672,-10.5704326630,84.2044372559,33.8019943237,0.0241854191,0.0228228271,0.0226565748,42.4366645813,43.5435218811,32.1742095947,0.0746476054,-0.0111891329,-0.0033318400,
53.223,-3.2907929420,1.3799591064,5.7918400764,0.0650981292,0.0422502607,0.0102407932,-117.5751419067,73.7276611328,28.3524761200,0.0229289532,0.0622301549,0.0036996603,-10.6026582718,84.2051849365,33.7799606323,0.0251632929,0.0204364359,0.0295134038,42.4353408813,43.5450553894,32.1778907776,0.0653896332,-0.0155591071,-0.0033304691,
53.233,-3.2894034386,1.3814728260,5.7917466164,0.0568237565,0.0451557077,0.0107282400,-117.5634231567,73.7265319824,28.3677024841,0.0258531570,0.0603199601,0.0085401535,-10.6000280380,84.2071838379,33.7898368835,0.0193074346,0.0218902826,0.0192926526,42.4387817383,43.5476570129,32.1855888367,0.0624928474,-0.0097105801,-0.0145074725,
53.243,-3.2872171402,1.3817200661,5.7953119278,0.0617108829,0.0456059016,0.0024249554,-117.5575103760,73.7268905640,28.3787918091,0.0341556668,0.0598397255,0.0168125033,-10.6145811081,84.2067718506,33.7841949463,0.0256543756,0.0233822465,0.0256377757,42.4404449463,43.5489234924,32.1930809021,0.0634854436,-0.0062980354,-0.0037407875,
53.253,-3.2857310772,1.3814064264,5.7953014374,0.0612171292,0.0519276708,0.0141423345,-117.5575332642,73.7254409790,28.3822154999,0.0292657614,0.0588847250,0.0109643936,-10.5918512344,84.2045745850,33.8147697449,0.0285801888,0.0243256092,0.0314518213,42.4396667480,43.5487365723,32.1990966797,0.0673893690,-0.0111748576,0.0045527220,
53.263,-3.2856063843,1.3799759150,5.7958221436,0.0650984198,0.0406950712,0.0097472072,-117.5649490356,73.7236938477,28.3795070648,0.0282806754,0.0564518571,0.0051507354,-10.5927553177,84.2052536011,33.8222122192,0.0280930996,0.0223717093,0.0221878588,42.4412574768,43.5511131287,32.2058944702,0.0659545660,-0.0077526867,-0.0081092119,
53.273,-3.2867927551,1.3804106712,5.7988119125,0.0568052232,0.0402274467,0.0068188310,-117.5661849976,73.7219085693,28.3849334717,0.0336430073,0.0598940551,0.0105411410,-10.5829114914,84.2082977295,33.8423118591,0.0183328390,0.0301576853,0.0193032026,42.4412651062,43.5517120361,32.2132911682,0.0698683858,-0.0121424198,-0.0037087202,
53.283,-3.2863535881,1.3778239489,5.8000125885,0.0670139939,0.0460792296,0.0068175793,-117.5668792725,73.7222976685,28.3898887634,0.0307152271,0.0598866343,0.0154238939,-10.5759639740,84.2091140747,33.8562698364,0.0276116133,0.0247712433,0.0198063403,42.4415550232,43.5527229309,32.2205848694,0.0689045787,-0.0131134987,-0.0071151853,
53.293,-3.2860569954,1.3778508902,5.8011426926,0.0621316545,0.0455857813,0.0063284636,-117.5684738159,73.7214050293,28.3940620422,0.0258280635,0.0555007458,0.0100666881,-10.5732889175,84.2098541260,33.8687973022,0.0261480808,0.0218350887,0.0193257034,42.4434776306,43.5539245605,32.2293281555,0.0645253062,-0.0097036958,-0.0075764656,
53.303,-3.2865719795,1.3792113066,5.8023843765,0.0509249195,0.0470595583,0.0014469624,-117.5773544312,73.7192230225,28.3916339874,0.0248408318,0.0540489554,0.0062159896,-10.5849113464,84.2073135376,33.8665885925,0.0241904855,0.0213746727,0.0280801207,42.4451446533,43.5527267456,32.2367362976,0.0713460445,-0.0072875619,-0.0012252331,
53.313,-3.2873141766,1.3788648844,5.8029284477,0.0611727834,0.0441428125,0.0063304901,-117.5845413208,73.7206878662,28.3911342621,0.0268011093,0.0584057122,0.0140485168,-10.5961713791,84.2048797607,33.8642158508,0.0232096314,0.0253088474,0.0290171206,42.4448890686,43.5527572632,32.2424240112,0.0664635897,-0.0150974989,-0.0007385612,
53.323,-3.2857253551,1.3793193102,5.8041081429,0.0582510270,0.0480213687,-0.0009950995,-117.5887069702,73.7224273682,28.3918952942,0.0282744765,0.0549518913,0.0116117597,-10.5806741714,84.2019424438,33.8872070313,0.0261341333,0.0277315378,0.0309192240,42.4434852600,43.5518722534,32.2471847534,0.0688937902,-0.0072791278,0.0031472445,
53.333,-3.2873001099,1.3802404404,5.8065423965,0.0528960079,0.0431659743,0.0087725520,-117.5973815918,73.7235794067,28.3903903961,0.0341394544,0.0573569536,0.0072459579,-10.6005430222,84.2026138306,33.8758468628,0.0217407942,0.0219058394,0.0270265639,42.4439620972,43.5515174866,32.2551040649,0.0713307858,-0.0116807818,0.0002194047,
53.343,-3.2906587124,1.3781422377,5.8095393181,0.0655547082,0.0412713997,0.0038918853,-117.5988159180,73.7234802246,28.3950691223,0.0316975713,0.0588196069,0.0082295537,-10.5687847137,84.2024078369,33.9157447815,0.0275998116,0.0330803990,0.0250618309,42.4422721863,43.5515518188,32.2600898743,0.0693780780,-0.0101999640,-0.0012602806,
53.353,-3.2900557518,1.3791551590,5.8100624084,0.0587364435,0.0466319695,0.0117048025,-117.6035003662,73.7249755859,28.3958072662,0.0263338089,0.0578106791,0.0150743723,-10.5722217560,84.2020111084,33.9187850952,0.0241811275,0.0242987275,0.0221262425,42.4394798279,43.5514259338,32.2651710510,0.0644936562,-0.0145694613,0.0060390234,
53.363,-3.2920424938,1.3771536350,5.8106474876,0.0626077726,0.0398306921,0.0043812990,-117.6055679321,73.7253952026,28.3984432220,0.0292655230,0.0607294142,0.0111737847,-10.5651464462,84.2032928467,33.9336700439,0.0193005800,0.0252588093,0.0221450925,42.4389076233,43.5511398315,32.2726135254,0.0654666424,-0.0087070167,0.0001722574,
53.373,-3.2923634052,1.3771772385,5.8123521805,0.0621199012,0.0413011163,0.0024285913,-117.6043472290,73.7253189087,28.4051876068,0.0258471966,0.0587802231,0.0092160106,-10.5570259094,84.2014694214,33.9499320984,0.0261332989,0.0301329195,0.0294362307,42.4392700195,43.5490722656,32.2782516479,0.0732529759,-0.0136100352,-0.0076554418,
53.383,-3.2939074039,1.3796374798,5.8146109581,0.0582565814,0.0432810858,0.0097553134,-117.6036376953,73.7206268311,28.4112796783,0.0302187800,0.0544565469,0.0082725883,-10.5361595154,84.2015380859,33.9778289795,0.0236920118,0.0291188657,0.0260146707,42.4371185303,43.5492591858,32.2822265625,0.0688607693,-0.0160297751,-0.0052304864,
53.393,-3.2946631908,1.3788238764,5.8152008057,0.0606837906,0.0462239608,0.0068262815,-117.6024932861,73.7208557129,28.4169940948,0.0209425688,0.0612915605,0.0146134496,-10.5326118469,84.2011260986,33.9886512756,0.0241795778,0.0247200131,0.0191662312,42.4366989136,43.5488166809,32.2865257263,0.0659254789,-0.0077288747,0.0020855665,
53.403,-3.2953839302,1.3766418695,5.8169775009,0.0679699332,0.0462365635,0.0092670321,-117.5939636230,73.7208404541,28.4308910370,0.0302197933,0.0608229041,0.0160414577,-10.5141096115,84.1993331909,34.0160675049,0.0207584500,0.0237157345,0.0259695798,42.4354820251,43.5484733582,32.2907791138,0.0722688437,-0.0101614296,-0.0037862659,
53.413,-3.2934505939,1.3775595427,5.8175883293,0.0548023507,0.0491325520,0.0126836300,-117.5885467529,73.7190093994,28.4395027161,0.0204452276,0.0598860085,0.0179850459,-10.5048484802,84.2009963989,34.0331497192,0.0261324644,0.0261358917,0.0225743502,42.4361152649,43.5483055115,32.2983436584,0.0659190416,-0.0091923475,-0.0037834048,
53.423,-3.2919182777,1.3766765594,5.8194417953,0.0591814779,0.0476410389,0.0112169981,-117.5858917236,73.7179031372,28.4479198456,0.0233694911,0.0628381521,0.0087047815,-10.4834527969,84.2014007568,34.0622558594,0.0295511484,0.0275613666,0.0201342702,42.4355812073,43.5458793640,32.3043746948,0.0693063140,-0.0082302690,0.0020509362,
53.433,-3.2930943966,1.3758224249,5.8206019402,0.0611197017,0.0403373279,0.0117061138,-117.5820312500,73.7166213989,28.4569511414,0.0262929201,0.0584713221,0.0072329044,-10.4714632034,84.2014312744,34.0813980103,0.0173441768,0.0280286074,0.0250117034,42.4413108826,43.5468902588,32.3154983521,0.0678542256,-0.0053460896,-0.0091224909,
53.443,-3.2919034958,1.3746304512,5.8205523491,0.0640285909,0.0466642641,0.0068215728,-117.5827484131,73.7163619995,28.4614200592,0.0238502622,0.0609149635,0.0130975842,-10.4665079117,84.2021408081,34.0945434570,0.0232048035,0.0265522599,0.0206310451,42.4388046265,43.5470008850,32.3212623596,0.0698087811,-0.0116693974,0.0020877719,
53.453,-3.2909357548,1.3747613430,5.8210563660,0.0615894720,0.0437177159,0.0048675537,-117.5719757080,73.7151794434,28.4766521454,0.0282390118,0.0585148335,0.0194073915,-10.4592657089,84.1973114014,34.1095771790,0.0261259675,0.0236249864,0.0312878042,42.4399223328,43.5481567383,32.3290023804,0.0717765093,-0.0146001279,-0.0081462264,
53.463,-3.2903165817,1.3756886721,5.8228025436,0.0572111160,0.0422420688,0.0141448379,-117.5651016235,73.7114105225,28.4876575470,0.0223611593,0.0595635772,0.0150119662,-10.4802494049,84.1958618164,34.0969505310,0.0231937170,0.0182953775,0.0244356990,42.4375114441,43.5472564697,32.3344383240,0.0698119998,-0.0121434927,0.0035440326,
53.473,-3.2905709743,1.3751647472,5.8240003586,0.0601316616,0.0456644818,0.0165863037,-117.5693817139,73.7117919922,28.4881153107,0.0282224417,0.0615006834,0.0091682076,-10.4978704453,84.1990966797,34.0877609253,0.0241760015,0.0222229362,0.0157058984,42.4333534241,43.5470504761,32.3408508301,0.0688328743,-0.0140593946,0.0054597259,
53.483,-3.2903542519,1.3751618862,5.8263435364,0.0625730157,0.0451724268,0.0087732077,-117.5737915039,73.7101440430,28.4879665375,0.0267494917,0.0615150481,0.0072471499,-10.4982481003,84.1976852417,34.0981636047,0.0246617794,0.0241810679,0.0278895497,42.4324264526,43.5471954346,32.3479957581,0.0717643499,-0.0096550286,0.0000820756,
53.493,-3.2902598381,1.3767354488,5.8280649185,0.0547879711,0.0383348018,0.0092621446,-117.5684661865,73.7132339478,28.4990901947,0.0248115063,0.0619697869,0.0179422498,-10.4790744781,84.1972427368,34.1256332397,0.0251492858,0.0285431445,0.0259218812,42.4298629761,43.5462379456,32.3541679382,0.0693107843,-0.0096389055,0.0024930239,
53.503,-3.2919948101,1.3775720596,5.8279738426,0.0567556918,0.0408064090,0.0014518499,-117.5713195801,73.7148132324,28.5029125214,0.0248192549,0.0585225374,0.0091533661,-10.4619884491,84.1967315674,34.1504478455,0.0227069855,0.0255845785,0.0259088427,42.4275398254,43.5430870056,32.3578643799,0.0707358122,-0.0101310015,-0.0029258132,
53.513,-3.2928996086,1.3764075041,5.8296813965,0.0665010065,0.0413104817,0.0082881451,-117.5702667236,73.7154922485,28.5097255707,0.0272639990,0.0614437610,0.0150029063,-10.4485073090,84.1961288452,34.1741294861,0.0261238813,0.0250742733,0.0258943886,42.4264068604,43.5422782898,32.3624191284,0.0707256198,-0.0125684142,-0.0014777780,
53.523,-3.2909524441,1.3733316660,5.8303828239,0.0620528013,0.0471360125,0.0034021139,-117.5637664795,73.7165756226,28.5211029053,0.0311754942,0.0590023845,0.0135015249,-10.4479932785,84.1955184937,34.1837463379,0.0266110897,0.0201923847,0.0249076635,42.4269409180,43.5413322449,32.3688659668,0.0712019205,-0.0106279254,-0.0058761239,
53.533,-3.2901282310,1.3756390810,5.8331975937,0.0611165017,0.0407739431,0.0112147331,-117.5608444214,73.7193756104,28.5295886993,0.0287477970,0.0589670986,0.0178616047,-10.4607515335,84.1943054199,34.1793899536,0.0275855064,0.0211955607,0.0283077955,42.4304771423,43.5416946411,32.3764152527,0.0648588538,-0.0072401166,-0.0048661232,
53.543,-3.2887127399,1.3776799440,5.8336977959,0.0548044518,0.0431906432,0.0009603500,-117.5599288940,73.7203140259,28.5356369019,0.0248461366,0.0599313676,0.0144323707,-10.4751653671,84.1937255859,34.1739120483,0.0192837119,0.0192694068,0.0243990868,42.4331207275,43.5421943665,32.3852081299,0.0673065782,-0.0062841177,-0.0043508410,
53.553,-3.2884328365,1.3762965202,5.8349003792,0.0606396906,0.0412326753,0.0063305497,-117.5648727417,73.7208404541,28.5368080139,0.0243604183,0.0564945489,0.0051725507,-10.4756660461,84.1932220459,34.1816101074,0.0251421928,0.0300142169,0.0248780102,42.4315414429,43.5411911011,32.3913574219,0.0692470074,-0.0126251578,-0.0033966303,
53.563,-3.2875719070,1.3767669201,5.8348155022,0.0582064912,0.0412176698,0.0068182945,-117.5622329712,73.7197494507,28.5454406738,0.0321676135,0.0540754050,0.0100522041,-10.4569015503,84.1930160522,34.2087516785,0.0178176165,0.0265635550,0.0194977075,42.4287643433,43.5420913696,32.3971710205,0.0663287044,-0.0174748003,0.0019580126,
53.573,-3.2885277271,1.3789137602,5.8352694511,0.0567791052,0.0412342697,0.0077962875,-117.5722885132,73.7220153809,28.5392055511,0.0248544812,0.0652494878,0.0037308335,-10.4640941620,84.1909637451,34.2099342346,0.0192788243,0.0226764083,0.0238600075,42.4294319153,43.5458488464,32.4046669006,0.0653996468,-0.0130559206,-0.0087440610,
53.583,-3.2885446548,1.3786088228,5.8370471001,0.0611683205,0.0466056652,0.0034019351,-117.5681381226,73.7208099365,28.5483760834,0.0233837366,0.0516049713,0.0134877563,-10.4475793839,84.1930541992,34.2353363037,0.0192825198,0.0294765234,0.0199840218,42.4290390015,43.5447578430,32.4116134644,0.0717335343,-0.0091550052,-0.0038750768,
53.593,-3.2866835594,1.3815004826,5.8368759155,0.0582890809,0.0490145758,0.0063308477,-117.5739669800,73.7222442627,28.5474090576,0.0258321762,0.0584062487,0.0135020614,-10.4522151947,84.1938323975,34.2387390137,0.0197721720,0.0187405348,0.0170663297,42.4295272827,43.5425491333,32.4180221558,0.0721938610,-0.0072242618,-0.0019372702,
53.603,-3.2860393524,1.3824967146,5.8366956711,0.0627010018,0.0426556729,0.0043775439,-117.5773544312,73.7207031250,28.5486011505,0.0258246064,0.0589097291,0.0105990767,-10.4431877136,84.1931533813,34.2560424805,0.0153764486,0.0250738561,0.0224258751,42.4318161011,43.5470085144,32.4279174805,0.0619964004,-0.0155102611,-0.0111552477,
53.613,-3.2841658592,1.3809735775,5.8379178047,0.0631627068,0.0489707366,0.0033986568,-117.5795669556,73.7204971313,28.5516281128,0.0253353119,0.0598847568,0.0120751262,-10.4252872467,84.1915054321,34.2806129456,0.0226977468,0.0226060748,0.0302030146,42.4312133789,43.5457916260,32.4339942932,0.0693052411,-0.0091668367,-0.0023821592,
53.623,-3.2825043201,1.3798017502,5.8397288322,0.0621656962,0.0460121334,0.0063261986,-117.5751953125,73.7195816040,28.5599555969,0.0292370915,0.0584426522,0.0140162110,-10.4217395782,84.1921463013,34.2931671143,0.0251402855,0.0240625441,0.0189827979,42.4305000305,43.5477027893,32.4402427673,0.0654231310,-0.0101211667,-0.0018830299,
53.633,-3.2832088470,1.3790863752,5.8402895927,0.0621532127,0.0465127006,-0.0019741654,-117.5707855225,73.7184448242,28.5713310242,0.0311846733,0.0609109253,0.0100995302,-10.4161024094,84.1941680908,34.3066711426,0.0236790180,0.0230699182,0.0170608014,42.4325752258,43.5475349426,32.4498100281,0.0707921386,-0.0077005327,-0.0067496300,
53.643,-3.2829015255,1.3791806698,5.8401889801,0.0616665781,0.0435776599,0.0068141222,-117.5691070557,73.7180709839,28.5779190063,0.0258117318,0.0579904616,0.0086302757,-10.4103269577,84.1912384033,34.3195800781,0.0241621137,0.0220919251,0.0287298262,42.4325447083,43.5467796326,32.4551239014,0.0717591047,-0.0116126537,-0.0043150783,
53.653,-3.2848615646,1.3794325590,5.8413472176,0.0572764426,0.0397055447,0.0131642222,-117.5729827881,73.7164382935,28.5784149170,0.0238506198,0.0584947765,0.0052417517,-10.4195003510,84.1924819946,34.3198699951,0.0226994753,0.0264987051,0.0185010433,42.4338760376,43.5453376770,32.4626197815,0.0688111782,-0.0072422624,0.0015428662,
53.663,-3.2846558094,1.3817267418,5.8424243927,0.0563399047,0.0431198739,0.0063291192,-117.5720672607,73.7183990479,28.5841159821,0.0219070911,0.0604209900,0.0110821128,-10.4139080048,84.1957550049,34.3327522278,0.0266115069,0.0235493779,0.0190401375,42.4335403442,43.5443611145,32.4681701660,0.0702636838,-0.0121299624,-0.0057935119,
53.673,-3.2825226784,1.3846255541,5.8440227509,0.0607850216,0.0455240607,0.0068165660,-117.5700225830,73.7164688110,28.5910892487,0.0258039236,0.0594770461,0.0086467862,-10.4056501389,84.1946105957,34.3481445313,0.0222149491,0.0240263641,0.0253669471,42.4343986511,43.5448417664,32.4776458740,0.0663634539,-0.0096926093,-0.0052931905,
53.683,-3.2813227177,1.3852633238,5.8452358246,0.0539602116,0.0420851670,0.0199991465,-117.5674133301,73.7112350464,28.5987586975,0.0287079811,0.0517481565,0.0042812228,-10.3876600266,84.1936950684,34.3740234375,0.0236781836,0.0235091746,0.0233914852,42.4316139221,43.5442390442,32.4840850830,0.0692855716,-0.0101597607,0.0005369186,
53.693,-3.2799136639,1.3854126930,5.8482618332,0.0578690618,0.0449903011,0.0087668896,-117.5680541992,73.7111663818,28.6036128998,0.0257779360,0.0595608205,0.0096556544,-10.3917818069,84.1942367554,34.3795471191,0.0187963247,0.0215617418,0.0219368637,42.4304695129,43.5448760986,32.4890975952,0.0668522120,-0.0130735338,0.0044394135,
53.703,-3.2818720341,1.3854742050,5.8487639427,0.0598232672,0.0377001986,0.0087695122,-117.5615921021,73.7122726440,28.6148223877,0.0252950788,0.0624879897,0.0149900913,-10.4019775391,84.1958236694,34.3783187866,0.0275881886,0.0240162611,0.0209906250,42.4305343628,43.5443115234,32.4956665039,0.0673333406,-0.0116140246,-0.0072844625,
53.713,-3.2824330330,1.3866281509,5.8504490852,0.0603316799,0.0425927565,0.0029106736,-117.5694351196,73.7128753662,28.6128730774,0.0262745619,0.0605088472,0.0091602802,-10.3992929459,84.1948089600,34.3879394531,0.0227035880,0.0284088850,0.0243925303,42.4305267334,43.5435752869,32.5011444092,0.0668357611,-0.0106431246,-0.0068016052,
53.723,-3.2809603214,1.3884022236,5.8521661758,0.0584095046,0.0474498682,0.0102348328,-117.5739974976,73.7128219604,28.6128692627,0.0238329172,0.0595217794,0.0096688271,-10.3961143494,84.1942672729,34.4007034302,0.0207495093,0.0254755020,0.0302398950,42.4303741455,43.5438804626,32.5069389343,0.0653747916,-0.0057565868,0.0054057240,
53.733,-3.2828404903,1.3878282309,5.8533315659,0.0598643348,0.0401584171,0.0038883090,-117.5705566406,73.7130661011,28.6212158203,0.0262755156,0.0590383857,0.0111168027,-10.3989105225,84.1958923340,34.4049377441,0.0300297141,0.0259634554,0.0185513049,42.4328193665,43.5433158875,32.5147781372,0.0673207641,-0.0082252622,-0.0014131069,
53.743,-3.2796509266,1.3857573271,5.8552155495,0.0632461756,0.0513333715,0.0082790256,-117.5673446655,73.7117538452,28.6293830872,0.0311518908,0.0576004237,0.0091598034,-10.4010314941,84.1948776245,34.4107513428,0.0290513635,0.0205995739,0.0219506323,42.4314689636,43.5454216003,32.5201988220,0.0668591261,-0.0169848204,-0.0048251748,
53.753,-3.2773532867,1.3819794655,5.8571648598,0.0651333779,0.0503168814,0.0131578445,-117.5773010254,73.7102127075,28.6259250641,0.0238201618,0.0566227585,0.0043322444,-10.4054975510,84.1975784302,34.4133377075,0.0202670693,0.0240169168,0.0224873275,42.4334068298,43.5426330566,32.5288619995,0.0746363401,-0.0072597563,-0.0014142990,
53.763,-3.2784552574,1.3824797869,5.8588705063,0.0607475787,0.0405704379,0.0107177496,-117.5786819458,73.7101287842,28.6300659180,0.0267494321,0.0619934648,0.0111747980,-10.3999490738,84.1971435547,34.4279747009,0.0271022320,0.0240087807,0.0229642093,42.4291229248,43.5407066345,32.5328636169,0.0672877431,-0.0135831535,0.0039020181,
53.773,-3.2791471481,1.3832323551,5.8611960411,0.0597841442,0.0420473218,0.0048594475,-117.5860748291,73.7094879150,28.6281776428,0.0277228355,0.0551492721,0.0097473264,-10.3837633133,84.1972732544,34.4512443542,0.0266141891,0.0254441798,0.0229634792,42.4290275574,43.5383338928,32.5392913818,0.0711639524,-0.0057889521,-0.0005140305,
53.783,-3.2767529488,1.3839114904,5.8629083633,0.0622374043,0.0464001261,0.0097401142,-117.5863189697,73.7106704712,28.6326217651,0.0233341455,0.0609909445,0.0131568909,-10.3749942780,84.1984939575,34.4692039490,0.0207569599,0.0220072269,0.0205376446,42.4290924072,43.5369758606,32.5453834534,0.0701702237,-0.0062887669,0.0004512072,
53.793,-3.2753202915,1.3832002878,5.8646965027,0.0627132729,0.0473517552,0.0068087578,-117.5831604004,73.7121658325,28.6397399902,0.0252945423,0.0590230078,0.0141083002,-10.3806781769,84.2003784180,34.4719085693,0.0217368603,0.0234763324,0.0210595429,42.4314537048,43.5362396240,32.5527877808,0.0652781129,-0.0043637156,-0.0068593621,
53.803,-3.2757802010,1.3835238218,5.8645601273,0.0632071942,0.0429652259,0.0121800303,-117.5790481567,73.7130355835,28.6487274170,0.0301816463,0.0595073998,0.0111539364,-10.3934440613,84.1980895996,34.4682312012,0.0231976509,0.0166700482,0.0259080976,42.4307785034,43.5365905762,32.5584640503,0.0696770549,-0.0097256601,-0.0044204593,
53.813,-3.2785367966,1.3843328953,5.8668293953,0.0617564730,0.0391069725,0.0058360696,-117.5858535767,73.7135314941,28.6491374969,0.0243246555,0.0609495193,0.0087383986,-10.3908414841,84.1993713379,34.4779510498,0.0305241346,0.0234971046,0.0220246315,42.4313468933,43.5362739563,32.5657386780,0.0613722801,-0.0058273077,0.0073003173,
53.823,-3.2794039249,1.3851186037,5.8673410416,0.0598170608,0.0435165875,0.0199969411,-117.5914154053,73.7126770020,28.6483287811,0.0218790770,0.0589965135,0.0073044300,-10.3897190094,84.1970748901,34.4880142212,0.0271021128,0.0235022902,0.0327271968,42.4311408997,43.5370063782,32.5712814331,0.0633347034,-0.0155850053,-0.0063668489,
53.833,-3.2785031796,1.3860099316,5.8690805435,0.0593443289,0.0454540029,0.0097424984,-117.5886688232,73.7099075317,28.6554527283,0.0277249217,0.0570908934,0.0161028504,-10.3857612610,84.1950836182,34.4998283386,0.0227040648,0.0200836062,0.0282968134,42.4324188232,43.5379142761,32.5778160095,0.0628579259,-0.0102185011,-0.0058595538,
53.843,-3.2782638073,1.3855031729,5.8714694977,0.0598237664,0.0410553142,0.0024178624,-117.5864562988,73.7089004517,28.6632156372,0.0262551308,0.0556454211,0.0151244998,-10.3907794952,84.1972122192,34.5043144226,0.0271023512,0.0283867121,0.0175920129,42.4356460571,43.5374145508,32.5859413147,0.0696874857,-0.0068347454,-0.0160903335,
53.853,-3.2767827511,1.3873602152,5.8719568253,0.0579030439,0.0454240032,0.0112064481,-117.5934371948,73.7066726685,28.6631507874,0.0252676606,0.0571288317,0.0039415359,-10.3938074112,84.1969375610,34.5101280212,0.0192893744,0.0254629850,0.0263792127,42.4376907349,43.5364379883,32.5922622681,0.0711399913,-0.0078383386,-0.0053393841,
53.863,-3.2753152847,1.3869476318,5.8743901253,0.0598489717,0.0473515764,0.0126696229,-117.5981903076,73.7052612305,28.6640415192,0.0267255902,0.0620202273,0.0044615269,-10.3957777023,84.1964645386,34.5171928406,0.0271010399,0.0235148668,0.0180706978,42.4363937378,43.5382537842,32.5967330933,0.0696980953,-0.0117177367,-0.0038695335,
53.873,-3.2746250629,1.3886476755,5.8748402596,0.0603669137,0.0448981076,0.0043689013,-117.5913467407,73.7052917480,28.6757621765,0.0272140503,0.0571526438,0.0117557049,-10.4093790054,84.1944427490,34.5126075745,0.0266091824,0.0206158161,0.0248752385,42.4381294250,43.5386390686,32.6058654785,0.0701912642,-0.0073362887,-0.0101989508,
53.883,-3.2748870850,1.3869960308,5.8766293526,0.0618029423,0.0370902084,0.0092511773,-117.5853347778,73.7042312622,28.6854534149,0.0276971459,0.0527875572,0.0083196163,-10.4377985001,84.1913299561,34.4936981201,0.0231857300,0.0172575116,0.0272758603,42.4402542114,43.5356101990,32.6134147644,0.0716177821,-0.0010332465,-0.0009310246,
53.893,-3.2753062248,1.3854483366,5.8791022301,0.0593345314,0.0429569148,0.0068097115,-117.5860290527,73.7051391602,28.6895427704,0.0257484317,0.0649798959,0.0127103925,-10.4392576218,84.1929244995,34.5012054443,0.0236768126,0.0270209014,0.0180250108,42.4411087036,43.5360412598,32.6200180054,0.0706466436,-0.0083617270,-0.0048252940,
53.903,-3.2739319801,1.3846962452,5.8821635246,0.0588331260,0.0448861234,0.0072959065,-117.5901412964,73.7058410645,28.6897811890,0.0228222013,0.0571478009,0.0044220090,-10.4365386963,84.1907577515,34.5121650696,0.0217198730,0.0260461867,0.0287302136,42.4418067932,43.5326881409,32.6272354126,0.0686511397,-0.0044893026,0.0034510493,
53.913,-3.2739901543,1.3849400282,5.8832941055,0.0593256578,0.0400043167,0.0092493296,-117.6029129028,73.7045898438,28.6827831268,0.0272105932,0.0659263283,0.0020459294,-10.4433507919,84.1907958984,34.5144348145,0.0251379013,0.0221520066,0.0184782892,42.4426841736,43.5324249268,32.6338882446,0.0706009269,-0.0088941455,-0.0053325295,
53.923,-3.2740600109,1.3845804930,5.8849763870,0.0661553293,0.0419586711,0.0165736675,-117.6035995483,73.7059326172,28.6867656708,0.0296585560,0.0610213578,0.0118040442,-10.4455080032,84.1912384033,34.5230789185,0.0202558637,0.0226426125,0.0199523717,42.4435768127,43.5288276672,32.6401557922,0.0773913860,-0.0069784224,-0.0009621978,
53.933,-3.2721109390,1.3848327398,5.8854479790,0.0632300377,0.0429012738,0.0029000044,-117.6102523804,73.7055130005,28.6859054565,0.0320979357,0.0644311309,0.0050004721,-10.4625177383,84.1900177002,34.5168418884,0.0226951241,0.0226766765,0.0287256539,42.4427871704,43.5304603577,32.6454925537,0.0583690405,-0.0093992352,-0.0048606396,
53.943,-3.2707312107,1.3853636980,5.8853769302,0.0603096150,0.0472717546,0.0116875172,-117.6197967529,73.7052383423,28.6812782288,0.0262371898,0.0634367466,0.0055323243,-10.4656782150,84.1884384155,34.5213546753,0.0261102915,0.0241518617,0.0277245343,42.4392738342,43.5322532654,32.6495170593,0.0657159090,-0.0156995952,0.0004963279,
53.953,-3.2703900337,1.3842978477,5.8859424591,0.0617558658,0.0414064638,0.0121753216,-117.6269454956,73.7032775879,28.6801815033,0.0276924372,0.0590551794,0.0060670376,-10.4552059174,84.1885681152,34.5396461487,0.0236691236,0.0236446261,0.0213755369,42.4366111755,43.5298194885,32.6540107727,0.0725210905,-0.0117881298,-0.0029658675,
53.963,-3.2710580826,1.3834905624,5.8871388435,0.0607652143,0.0443478115,0.0063161850,-117.6359481812,73.7051391602,28.6764068604,0.0247718692,0.0629131049,0.0095098019,-10.4514665604,84.1871490479,34.5517807007,0.0222017765,0.0226659179,0.0242795944,42.4318351746,43.5305099487,32.6576614380,0.0578813553,-0.0161325336,0.0028586388,
53.973,-3.2710609436,1.3826053143,5.8888955116,0.0631911755,0.0423947535,0.0033857822,-117.6379699707,73.7033996582,28.6789798737,0.0218336582,0.0590277910,0.0109969378,-10.4483995438,84.1899185181,34.5632133484,0.0212301016,0.0270464420,0.0145594776,42.4299507141,43.5295219421,32.6615486145,0.0627517104,-0.0107517838,-0.0015606880,
53.983,-3.2742650509,1.3824536800,5.8906154633,0.0607471243,0.0375677682,0.0068075061,-117.6437454224,73.7015838623,28.6779041290,0.0325669646,0.0605063885,0.0090829730,-10.4850749969,84.1881637573,34.5360641479,0.0246449709,0.0193043649,0.0223550946,42.4277114868,43.5288085938,32.6687202454,0.0676255226,-0.0126897395,-0.0025627017,
53.993,-3.2749667168,1.3810913563,5.8923001289,0.0695124194,0.0419745483,0.0121782422,-117.6433334351,73.7016220093,28.6836280823,0.0286608934,0.0580653101,0.0110340714,-10.4782724380,84.1861724854,34.5506286621,0.0217117667,0.0232046545,0.0262260437,42.4282569885,43.5288925171,32.6761131287,0.0681148171,-0.0151355565,-0.0064633489,
54.003,-3.2757604122,1.3807501793,5.8928465843,0.0612056777,0.0439415090,0.0077846646,-117.6450805664,73.7029190063,28.6870346069,0.0237844586,0.0619485527,0.0061488152,-10.4771852493,84.1837539673,34.5600967407,0.0256137252,0.0232103467,0.0291138887,42.4285392761,43.5291786194,32.6832580566,0.0725129843,-0.0107413828,-0.0010874271,
54.013,-3.2777359486,1.3763860464,5.8952951431,0.0694303140,0.0395814925,0.0121792555,-117.6522674561,73.7019577026,28.6857070923,0.0291508436,0.0604814589,0.0013046861,-10.4860353470,84.1845932007,34.5607528687,0.0173144341,0.0222466886,0.0247378796,42.4232368469,43.5305175781,32.6858978271,0.0632525682,-0.0189817846,-0.0016090870,
54.023,-3.2796556950,1.3764733076,5.8945603371,0.0616193376,0.0401032157,0.0082749724,-117.6569137573,73.7000885010,28.6870212555,0.0267002583,0.0580572337,0.0081754327,-10.4929790497,84.1815948486,34.5621452332,0.0265864730,0.0242215395,0.0261539817,42.4253044128,43.5296783447,32.6948966980,0.0671482086,-0.0072891712,-0.0089231133,
54.033,-3.2765481472,1.3757996559,5.8940057755,0.0577013344,0.0512795597,0.0033890009,-117.6555175781,73.7021255493,28.6927700043,0.0257337093,0.0614481568,0.0096183419,-10.4791870117,84.1803436279,34.5849761963,0.0260959864,0.0202944577,0.0256416947,42.4217491150,43.5319938660,32.6996994019,0.0627830029,-0.0101668537,0.0022975206,
54.043,-3.2773694992,1.3762379885,5.8957042694,0.0606386662,0.0395751111,0.0014368296,-117.6628952026,73.7036056519,28.6918296814,0.0281823277,0.0589683205,0.0096390843,-10.4763002396,84.1842575073,34.5944442749,0.0187786818,0.0290666521,0.0134967268,42.4268569946,43.5324707031,32.7111396790,0.0710898042,-0.0082575977,-0.0108383298,
54.053,-3.2768490314,1.3765989542,5.8968110085,0.0611332506,0.0420074388,0.0112020969,-117.6714477539,73.7039566040,28.6893100739,0.0228129625,0.0594319254,0.0057674050,-10.4752912521,84.1833724976,34.6044158936,0.0212185383,0.0202781856,0.0325267464,42.4304237366,43.5315132141,32.7191314697,0.0740073919,-0.0087869167,-0.0088630915,
54.063,-3.2778005600,1.3769043684,5.8979601860,0.0586971715,0.0434888564,-0.0029571652,-117.6784439087,73.7039718628,28.6876983643,0.0233013034,0.0623452663,0.0082390904,-10.4580745697,84.1810150146,34.6293449402,0.0192612410,0.0266026258,0.0285749882,42.4320144653,43.5340919495,32.7260589600,0.0628095269,-0.0146403015,-0.0068736672,
54.073,-3.2797210217,1.3763756752,5.9003248215,0.0601527914,0.0376629457,0.0097398162,-117.6713562012,73.7030105591,28.6978092194,0.0276911259,0.0570047051,0.0194461346,-10.4407005310,84.1798706055,34.6555099487,0.0226771832,0.0319462717,0.0197616965,42.4349517822,43.5373153687,32.7346115112,0.0643151999,-0.0107353628,-0.0082846880,
54.083,-3.2802667618,1.3748908043,5.9020786285,0.0654979721,0.0425553024,0.0087632537,-117.6708450317,73.7040786743,28.7021102905,0.0272080898,0.0594313294,0.0155292749,-10.4475517273,84.1816635132,34.6584739685,0.0275631547,0.0192578137,0.0188160986,42.4356269836,43.5337295532,32.7406311035,0.0701291561,-0.0049113035,0.0058495402,
54.093,-3.2801876068,1.3740078211,5.9032073021,0.0630411655,0.0406008214,0.0029035211,-117.6608047485,73.7045288086,28.7164897919,0.0223274827,0.0540763736,0.0184118748,-10.4356555939,84.1812210083,34.6794509888,0.0202381611,0.0221677125,0.0217344910,42.4340591431,43.5342369080,32.7462272644,0.0623230934,-0.0107519031,0.0043756962,
54.103,-3.2796661854,1.3796062469,5.9035291672,0.0533732213,0.0420564525,0.0116943717,-117.6690139771,73.7028427124,28.7125625610,0.0306200385,0.0555473864,0.0023472309,-10.4442138672,84.1819610596,34.6767120361,0.0236574411,0.0251102448,0.0241916329,42.4353218079,43.5344085693,32.7544937134,0.0696494579,-0.0083209574,-0.0039128065,
54.113,-3.2791235447,1.3799256086,5.9047355652,0.0567967631,0.0464415178,0.0053462386,-117.6758728027,73.7008209229,28.7104187012,0.0296335220,0.0555617660,0.0053225756,-10.4445743561,84.1793975830,34.6853408813,0.0212115049,0.0187709033,0.0339160413,42.4365234375,43.5348777771,32.7605590820,0.0633077621,-0.0102815926,-0.0034108162,
54.123,-3.2794060707,1.3823007345,5.9063906670,0.0583030470,0.0435166955,0.0058356524,-117.6780624390,73.7002944946,28.7116851807,0.0262129903,0.0599590987,0.0102189779,-10.4316663742,84.1788635254,34.7072563171,0.0241402388,0.0265623331,0.0260887742,42.4362754822,43.5353622437,32.7675933838,0.0633139014,-0.0136931539,0.0029399395,
54.133,-3.2797009945,1.3845130205,5.9062051773,0.0583416484,0.0415686518,0.0009542704,-117.6736450195,73.6988372803,28.7224464417,0.0364597440,0.0570611358,0.0160705447,-10.4092760086,84.1808166504,34.7372970581,0.0270733833,0.0309109986,0.0197670013,42.4363975525,43.5348091125,32.7733955383,0.0716077089,-0.0078395009,-0.0029239058,
54.143,-3.2800436020,1.3846879005,5.9080219269,0.0554150119,0.0410863347,0.0097433925,-117.6601638794,73.6975555420,28.7400894165,0.0242464542,0.0561347008,0.0165098906,-10.3975934982,84.1803131104,34.7561225891,0.0275607705,0.0255207419,0.0251254737,42.4352188110,43.5340309143,32.7790870667,0.0662267208,-0.0092995763,-0.0004991293,
54.153,-3.2803759575,1.3835563660,5.9104084969,0.0622312054,0.0410921536,0.0087673068,-117.6663131714,73.6977996826,28.7386894226,0.0305953026,0.0624635816,0.0077458620,-10.3885145187,84.1813201904,34.7728157043,0.0270742774,0.0298960209,0.0241629630,42.4367561340,43.5347976685,32.7864036560,0.0701426268,-0.0132139921,-0.0073150992,
54.163,-3.2825362682,1.3840076923,5.9121546745,0.0588211119,0.0411297753,0.0121870637,-117.6639938354,73.6972351074,28.7463073730,0.0291277170,0.0532012135,0.0116462111,-10.4000606537,84.1808471680,34.7696342468,0.0197492242,0.0221055448,0.0246467143,42.4381866455,43.5378723145,32.7927169800,0.0604159236,-0.0132024288,-0.0111819506,
54.173,-3.2813253403,1.3853656054,5.9132776260,0.0573799610,0.0445266142,0.0033975840,-117.6658859253,73.6967849731,28.7482204437,0.0247309804,0.0639446974,0.0150759816,-10.4088354111,84.1789245605,34.7685165405,0.0251169205,0.0240800679,0.0265711695,42.4405326843,43.5392417908,32.8019256592,0.0662926435,-0.0102835596,-0.0048020482,
54.183,-3.2787442207,1.3871740103,5.9150137901,0.0559466705,0.0449698940,0.0038841367,-117.6627578735,73.6960220337,28.7547054291,0.0247272253,0.0585925728,0.0140917301,-10.4070634842,84.1827392578,34.7799339294,0.0207291245,0.0255301893,0.0134501010,42.4423942566,43.5358161926,32.8096160889,0.0755265951,-0.0054458976,-0.0033516288,
54.193,-3.2801809311,1.3885412216,5.9167647362,0.0554822460,0.0415769182,0.0082801580,-117.6586380005,73.6996154785,28.7640190125,0.0232799649,0.0556186140,0.0213701725,-10.4107789993,84.1815567017,34.7839622498,0.0221918821,0.0221225023,0.0334506929,42.4407310486,43.5364379883,32.8169403076,0.0638157725,-0.0137262344,0.0015218854,
54.203,-3.2800846100,1.3893382549,5.9185485840,0.0574492738,0.0469463132,0.0073046088,-117.6578445435,73.7009887695,28.7694587708,0.0271929502,0.0556002706,0.0106139183,-10.3923406601,84.1814193726,34.8107643127,0.0212150812,0.0264846385,0.0251418203,42.4417343140,43.5359382629,32.8246994019,0.0716219544,-0.0059270263,-0.0018916726,
54.213,-3.2810599804,1.3891602755,5.9197568893,0.0564696118,0.0411039367,0.0077928901,-117.6610946655,73.7024841309,28.7714061737,0.0223174691,0.0628949404,0.0135460496,-10.3852825165,84.1815567017,34.8263206482,0.0231684446,0.0206123292,0.0212354809,42.4412307739,43.5355072021,32.8305549622,0.0652688146,-0.0093438923,-0.0043410659,
54.223,-3.2819015980,1.3891934156,5.9202909470,0.0579350293,0.0372123457,0.0136538744,-117.6595611572,73.7019958496,28.7790622711,0.0296393037,0.0536289066,0.0076838732,-10.3943815231,84.1816940308,34.8261604309,0.0226804018,0.0235576332,0.0222180933,42.4426040649,43.5365905762,32.8380546570,0.0682122111,-0.0122775435,-0.0043193102,
54.233,-3.2843368053,1.3905546665,5.9225692749,0.0599119067,0.0401844233,0.0082857013,-117.6618041992,73.7015228271,28.7834949493,0.0252424479,0.0585135221,0.0086739063,-10.3954820633,84.1848220825,34.8340454102,0.0241507888,0.0259914696,0.0212937891,42.4423713684,43.5387344360,32.8439140320,0.0677510500,-0.0137229264,-0.0067443848,
54.243,-3.2843763828,1.3898720741,5.9225459099,0.0598999970,0.0445796549,0.0009608269,-117.6638946533,73.7007827759,28.7866783142,0.0320747495,0.0575431883,0.0101536512,-10.3907060623,84.1831741333,34.8490219116,0.0261009932,0.0235465765,0.0266360790,42.4415779114,43.5379943848,32.8501358032,0.0687182546,-0.0068853498,0.0020322204,
54.253,-3.2854897976,1.3891162872,5.9242658615,0.0652579069,0.0426459461,0.0131688118,-117.6577072144,73.7005996704,28.7971611023,0.0320738554,0.0560942143,0.0174522996,-10.4108276367,84.1853256226,34.8381004333,0.0231751204,0.0167399347,0.0193533003,42.4429092407,43.5370254517,32.8581848145,0.0687059760,-0.0073941946,-0.0043137670,
54.263,-3.2851591110,1.3896018267,5.9247741699,0.0603835657,0.0436167307,0.0058445930,-117.6610412598,73.6992340088,28.7996559143,0.0286492109,0.0551311225,0.0101531744,-10.4050874710,84.1849288940,34.8533592224,0.0241509676,0.0264965296,0.0227631480,42.4410972595,43.5397567749,32.8640899658,0.0672757030,-0.0151675344,-0.0057695508,
54.273,-3.2860770226,1.3917404413,5.9257912636,0.0589560345,0.0392381400,0.0043815970,-117.6565704346,73.6985092163,28.8101043701,0.0262042284,0.0531981736,0.0179517865,-10.3793964386,84.1879653931,34.8881187439,0.0217149258,0.0269299150,0.0193874538,42.4395408630,43.5402679443,32.8687782288,0.0667939186,-0.0136839747,-0.0033366680,
54.283,-3.2852237225,1.3930824995,5.9269361496,0.0575146116,0.0475240238,0.0058462620,-117.6595230103,73.6965026855,28.8127651215,0.0305889249,0.0556633323,0.0052847862,-10.3875274658,84.1906967163,34.8884162903,0.0231845975,0.0210764408,0.0135776252,42.4349403381,43.5391426086,32.8703155518,0.0672679543,-0.0136500597,0.0068680048,
54.293,-3.2839756012,1.3898533583,5.9287748337,0.0672238916,0.0445726700,0.0063318610,-117.6623001099,73.6961898804,28.8146343231,0.0286343098,0.0546841770,0.0072525144,-10.3853635788,84.1911315918,34.9008827209,0.0163494349,0.0259543657,0.0233477354,42.4368629456,43.5414657593,32.8780784607,0.0668090582,-0.0087664127,-0.0111612678,
54.303,-3.2832889557,1.3890410662,5.9292626381,0.0647683144,0.0406544879,0.0019362569,-117.6714096069,73.6968917847,28.8102207184,0.0344970822,0.0614897609,0.0082633495,-10.3692054749,84.1902847290,34.9241142273,0.0256252885,0.0269047022,0.0223528445,42.4396057129,43.5381698608,32.8844642639,0.0770213008,-0.0044242144,-0.0018897653,
54.313,-3.2853248119,1.3894023895,5.9303164482,0.0628214926,0.0397133827,-0.0009912252,-117.6737060547,73.6950988770,28.8121337891,0.0276523829,0.0561400056,0.0068223476,-10.3417215347,84.1898498535,34.9592552185,0.0246479511,0.0312517285,0.0198955387,42.4409408569,43.5377006531,32.8916358948,0.0706676841,-0.0098116398,-0.0028589964,
54.323,-3.2843670845,1.3884947300,5.9327006340,0.0637822151,0.0455560945,0.0136558414,-117.6663284302,73.6956939697,28.8255043030,0.0266787410,0.0581005514,0.0141097903,-10.3491058350,84.1907577515,34.9589881897,0.0222081542,0.0239378810,0.0199129432,42.4363250732,43.5383605957,32.8950500488,0.0657932162,-0.0165991783,0.0000363588,
54.333,-3.2858197689,1.3876266479,5.9344820976,0.0608373806,0.0416751690,-0.0009915233,-117.6556854248,73.6958770752,28.8406696320,0.0252147913,0.0576343536,0.0189449191,-10.3480119705,84.1925125122,34.9679641724,0.0236760974,0.0234423280,0.0175003707,42.4370574951,43.5368309021,32.9021987915,0.0765160918,-0.0078291595,-0.0009464622,
54.343,-3.2851462364,1.3881460428,5.9362015724,0.0603581630,0.0426399820,0.0014493465,-117.6525421143,73.6974105835,28.8483581543,0.0232691765,0.0585948378,0.0145247579,-10.3508090973,84.1918716431,34.9739494324,0.0217218399,0.0273553431,0.0189564526,42.4378738403,43.5388832092,32.9102478027,0.0697060227,-0.0122148991,-0.0101996660,
54.353,-3.2842426300,1.3879379034,5.9367585182,0.0608428121,0.0455539338,0.0107257366,-117.6527099609,73.6963882446,28.8534469604,0.0257055759,0.0586102754,0.0125802755,-10.3513889313,84.1936264038,34.9812622070,0.0187952518,0.0249099135,0.0204487443,42.4351539612,43.5372352600,32.9152374268,0.0755445957,-0.0092729330,0.0024589300,
54.363,-3.2829573154,1.3898445368,5.9391016960,0.0559932664,0.0445549376,0.0126783252,-117.6607513428,73.6958847046,28.8503990173,0.0261914134,0.0600632131,0.0023652911,-10.3500442505,84.1945724487,34.9885101318,0.0183086395,0.0224630237,0.0204655528,42.4351844788,43.5373764038,32.9216651917,0.0613862276,-0.0097604990,-0.0014468431,
54.373,-3.2836391926,1.3866785765,5.9408879280,0.0691216215,0.0421254896,0.0058419108,-117.6655578613,73.6963424683,28.8503417969,0.0276584625,0.0615117550,0.0106834769,-10.3433475494,84.1961593628,35.0048255920,0.0275887847,0.0258643031,0.0180483013,42.4330482483,43.5360412598,32.9254417419,0.0691818595,-0.0087746680,-0.0024523735,
54.383,-3.2837452888,1.3872807026,5.9420757294,0.0579016581,0.0484749787,0.0038887262,-117.6678161621,73.6959457397,28.8517589569,0.0286331177,0.0610228181,0.0067901015,-10.3302984238,84.1955566406,35.0269699097,0.0251463056,0.0224251151,0.0238929689,42.4326324463,43.5382041931,32.9313850403,0.0653029680,-0.0146127939,-0.0019494891,
54.393,-3.2840368748,1.3862105608,5.9420785904,0.0593478307,0.0435972661,0.0077950358,-117.6627044678,73.6989822388,28.8632297516,0.0276713967,0.0600136518,0.0184630752,-10.3531589508,84.1950149536,35.0118522644,0.0217273831,0.0200258493,0.0258445740,42.4367752075,43.5386543274,32.9412307739,0.0677500367,-0.0068351924,-0.0102100372,
54.403,-3.2830667496,1.3834517002,5.9433002472,0.0656473488,0.0435804352,0.0112109184,-117.6641693115,73.6976928711,28.8669452667,0.0266885161,0.0566115379,0.0111552477,-10.3582592010,84.1939010620,35.0150642395,0.0246551037,0.0239445567,0.0243628174,42.4352874756,43.5389480591,32.9465866089,0.0604295731,-0.0092604458,0.0044272542,
54.413,-3.2820823193,1.3825429678,5.9451308250,0.0592838377,0.0435633026,0.0116978884,-117.6636505127,73.6956176758,28.8715839386,0.0271666646,0.0561545193,0.0087276697,-10.3637199402,84.1939697266,35.0168304443,0.0163544416,0.0220012069,0.0238754749,42.4342308044,43.5400352478,32.9513664246,0.0653261542,-0.0141244531,0.0014994144,
54.423,-3.2833204269,1.3843543530,5.9474506378,0.0583388805,0.0465145186,0.0082820058,-117.6590423584,73.6963653564,28.8814735413,0.0271703005,0.0600605905,0.0155377388,-10.3726482391,84.1913299561,35.0160331726,0.0251388550,0.0259310603,0.0287190676,42.4340095520,43.5394439697,32.9573860168,0.0653187037,-0.0053382516,-0.0009503365,
54.433,-3.2815628052,1.3842338324,5.9491658211,0.0627313033,0.0420893729,0.0053504109,-117.6605758667,73.6995162964,28.8835391998,0.0227912068,0.0658698678,0.0121018887,-10.3704872131,84.1956558228,35.0267143250,0.0251464844,0.0234726071,0.0131655037,42.4329223633,43.5389099121,32.9620590210,0.0726361275,-0.0116800666,-0.0043818355,
54.443,-3.2794063091,1.3843080997,5.9491643906,0.0573615059,0.0479111820,0.0038834810,-117.6566925049,73.6999588013,28.8932723999,0.0237699151,0.0585480630,0.0145230889,-10.3617687225,84.1941375732,35.0444641113,0.0231906772,0.0224852264,0.0268091708,42.4303855896,43.5391044617,32.9672355652,0.0697088838,-0.0165375769,-0.0058665872,
54.453,-3.2790052891,1.3861846924,5.9490370750,0.0554411262,0.0396033674,0.0073018074,-117.6567611694,73.6973114014,28.8977165222,0.0266866684,0.0522391498,0.0096610785,-10.3483333588,84.1921463013,35.0668373108,0.0256285667,0.0258854926,0.0262829363,42.4323883057,43.5403327942,32.9760017395,0.0653299093,-0.0072689056,-0.0053501129,
54.463,-3.2787172794,1.3837070465,5.9514260292,0.0671166480,0.0410632566,0.0126718283,-117.6522979736,73.7009124756,28.9074153900,0.0291457176,0.0565907210,0.0223090053,-10.3647537231,84.1909255981,35.0575981140,0.0270912647,0.0195705891,0.0213856399,42.4337463379,43.5387649536,32.9835166931,0.0682397485,-0.0063177645,0.0024599433,
54.473,-3.2790887356,1.3846253157,5.9537110329,0.0612732992,0.0410697013,0.0029065013,-117.6538696289,73.7017364502,28.9106044769,0.0276848674,0.0634112358,0.0120556951,-10.3509750366,84.1913299561,35.0808563232,0.0178146362,0.0297988653,0.0257821977,42.4316291809,43.5379676819,32.9870643616,0.0706710815,-0.0121638179,0.0009700656,
54.483,-3.2804369926,1.3840742111,5.9554753304,0.0622402392,0.0440228917,0.0092554688,-117.6660690308,73.6994323730,28.9047775269,0.0281618834,0.0560931414,0.0057789683,-10.3481969833,84.1932907104,35.0931663513,0.0231891870,0.0268582702,0.0233726352,42.4317092896,43.5385818481,32.9921226501,0.0638428330,-0.0077651143,-0.0019536614,
54.493,-3.2818245888,1.3853101730,5.9577298164,0.0627500862,0.0416056290,0.0151163936,-117.6643066406,73.7018814087,28.9114513397,0.0242676735,0.0619202405,0.0194241405,-10.3610315323,84.1948776245,35.0875129700,0.0212388635,0.0224816501,0.0194970965,42.4327430725,43.5395088196,32.9992179871,0.0653194785,-0.0106968880,-0.0063308477,
54.503,-3.2806944847,1.3859076500,5.9588017464,0.0622722283,0.0420742035,0.0063267946,-117.6684188843,73.7024993896,28.9111537933,0.0262237787,0.0599486381,0.0043006539,-10.3403167725,84.1939010620,35.1176528931,0.0236785412,0.0292836428,0.0297292918,42.4346771240,43.5395965576,33.0065040588,0.0697150826,-0.0107143521,-0.0072909594,
54.513,-3.2806553841,1.3882646561,5.9591989517,0.0603602342,0.0425617546,0.0087692738,-117.6746749878,73.7025680542,28.9100990295,0.0301303864,0.0594447851,0.0096983910,-10.3370199203,84.1935958862,35.1288299561,0.0207483172,0.0229313672,0.0272796899,42.4358291626,43.5368499756,33.0146179199,0.0765162706,-0.0102589428,-0.0019332767,
54.523,-3.2820353508,1.3875358105,5.9609336853,0.0627889186,0.0396561250,0.0073055625,-117.6805191040,73.6995162964,28.9103622437,0.0281623006,0.0531292856,0.0033998489,-10.3244104385,84.1963348389,35.1521568298,0.0183117390,0.0312014222,0.0199972987,42.4379997253,43.5365486145,33.0235099792,0.0706530809,-0.0058872998,-0.0043597817,
54.533,-3.2808039188,1.3895431757,5.9614148140,0.0574528500,0.0445174314,0.0136527419,-117.6812286377,73.6986694336,28.9145050049,0.0237635970,0.0614407808,0.0097572207,-10.3358736038,84.1942367554,35.1490859985,0.0231908560,0.0170677304,0.0228973776,42.4370269775,43.5394821167,33.0292778015,0.0638542771,-0.0136668086,-0.0062949061,
54.543,-3.2811422348,1.3903566599,5.9631609917,0.0574670434,0.0411053412,0.0097470880,-117.6825408936,73.6999664307,28.9179363251,0.0223051310,0.0594657212,0.0102412105,-10.3550548553,84.1951828003,35.1378135681,0.0285636187,0.0200288892,0.0165694803,42.4397201538,43.5392723083,33.0367660522,0.0692227483,-0.0058811605,-0.0062735677,
54.553,-3.2812273502,1.3917140961,5.9636597633,0.0574907288,0.0420833528,0.0107243061,-117.6809997559,73.6986999512,28.9246406555,0.0291348696,0.0580228716,0.0141503215,-10.3739528656,84.1962661743,35.1272659302,0.0251475573,0.0205470622,0.0200136304,42.4436988831,43.5396003723,33.0451927185,0.0633675456,-0.0068922043,-0.0116078854,
54.563,-3.2782726288,1.3928986788,5.9653925896,0.0584879629,0.0439849757,0.0151163936,-117.6759567261,73.6974487305,28.9343128204,0.0257107615,0.0580529124,0.0141382217,-10.3687801361,84.1960601807,35.1388893127,0.0241706371,0.0273746252,0.0263551623,42.4458808899,43.5401916504,33.0545883179,0.0692343712,-0.0093492866,-0.0018182993,
54.573,-3.2780997753,1.3947118521,5.9670815468,0.0580313206,0.0430053584,0.0029100180,-117.6703948975,73.6963882446,28.9435939789,0.0296118259,0.0512451828,0.0146104097,-10.3719224930,84.1938323975,35.1436080933,0.0251432657,0.0195746720,0.0282708257,42.4456825256,43.5385398865,33.0599098206,0.0726314187,-0.0093607605,-0.0047643185,
54.583,-3.2766964436,1.3936579227,5.9688420296,0.0638723075,0.0429809391,0.0058377385,-117.6718826294,73.6941680908,28.9478321075,0.0242298245,0.0551811010,0.0034036636,-10.3731250763,84.1949081421,35.1507644653,0.0212389231,0.0225029886,0.0175486803,42.4455871582,43.5369911194,33.0635910034,0.0701704621,-0.0088843107,0.0040096045,
54.593,-3.2764432430,1.3915656805,5.9700450897,0.0653006434,0.0454179868,0.0073014498,-117.6695327759,73.6926269531,28.9546146393,0.0310582519,0.0596036017,0.0161006451,-10.3879261017,84.1965026855,35.1437721252,0.0197768807,0.0220360160,0.0195333958,42.4448204041,43.5364837646,33.0695343018,0.0711405873,-0.0103458762,-0.0033246279,
54.603,-3.2775876522,1.3918541670,5.9711098671,0.0633525476,0.0405551046,0.0063261390,-117.6727981567,73.6937789917,28.9576911926,0.0261811018,0.0537196547,0.0102465153,-10.3801126480,84.1965713501,35.1599655151,0.0246598125,0.0249516964,0.0234380215,42.4437484741,43.5392036438,33.0749435425,0.0623859167,-0.0127553940,-0.0062401891,
54.613,-3.2775621414,1.3942340612,5.9716486931,0.0516753271,0.0425077230,0.0077920556,-117.6757507324,73.6957321167,28.9593276978,0.0276554823,0.0654031038,0.0146389008,-10.3691959381,84.1967315674,35.1798591614,0.0222187042,0.0283500552,0.0239237547,42.4445343018,43.5412368774,33.0822296143,0.0653413534,-0.0078633428,-0.0047501922,
54.623,-3.2774553299,1.3940615654,5.9734621048,0.0565551296,0.0405527428,0.0073035359,-117.6791381836,73.6978149414,28.9618511200,0.0247359872,0.0648763180,0.0131727457,-10.3752899170,84.1981201172,35.1811637878,0.0173383355,0.0312858224,0.0205342472,42.4438095093,43.5418014526,33.0855712891,0.0692547560,-0.0132230520,-0.0023099184,
54.633,-3.2773857117,1.3938468695,5.9752540588,0.0589927845,0.0425046571,0.0116979480,-117.6755065918,73.6970138550,28.9719429016,0.0261968970,0.0551308841,0.0131630898,-10.3636665344,84.1967315674,35.1981582642,0.0202655792,0.0263870358,0.0229461193,42.4412269592,43.5428695679,33.0901374817,0.0609675050,-0.0112371445,0.0059781671,
54.643,-3.2769739628,1.3927552700,5.9763913155,0.0662979633,0.0459154807,0.0126736760,-117.6749191284,73.6977005005,28.9797878265,0.0345010757,0.0643995702,0.0146200657,-10.3557796478,84.1947097778,35.2149963379,0.0280745029,0.0239378512,0.0277924091,42.4452171326,43.5426025391,33.0984230042,0.0682883263,-0.0059055090,-0.0071735978,
54.653,-3.2768888474,1.3921644688,5.9768824577,0.0643345267,0.0405429155,0.0107201338,-117.6640853882,73.6995544434,28.9951934814,0.0266976357,0.0590243638,0.0179763436,-10.3602132797,84.1973419189,35.2188758850,0.0192900896,0.0244255662,0.0185629576,42.4468040466,43.5431442261,33.1067352295,0.0692717433,-0.0093338788,-0.0110616088,
54.663,-3.2791316509,1.3916498423,5.9798302650,0.0623724237,0.0386288762,0.0097458363,-117.6653976440,73.7023773193,28.9988155365,0.0306177139,0.0633757561,0.0116124749,-10.3684854507,84.2010269165,35.2191925049,0.0197848678,0.0214996636,0.0156950504,42.4435653687,43.5451774597,33.1129570007,0.0629498363,-0.0117286146,-0.0032587647,
54.673,-3.2798185349,1.3914681673,5.9809751511,0.0609044097,0.0420588143,0.0116994977,-117.6679077148,73.7025909424,29.0019512177,0.0232945681,0.0545768589,0.0106452107,-10.3996133804,84.2018051147,35.1957397461,0.0236924887,0.0200873315,0.0225557089,42.4406013489,43.5475502014,33.1169662476,0.0634680390,-0.0190058947,-0.0027748346,
54.683,-3.2805025578,1.3896507025,5.9815807343,0.0623375401,0.0420707725,0.0146290660,-117.6731567383,73.7027893066,29.0024566650,0.0267134905,0.0604220182,0.0043188930,-10.3971643448,84.2013626099,35.2064666748,0.0275979638,0.0269202888,0.0264537036,42.4406089783,43.5454101563,33.1216087341,0.0678355694,-0.0087693334,-0.0003521442,
54.693,-3.2806360722,1.3897117376,5.9832758904,0.0642917305,0.0440262295,0.0068168044,-117.6718826294,73.7041702271,29.0098514557,0.0267202854,0.0589394420,0.0101619363,-10.3758916855,84.2034988403,35.2344779968,0.0222306252,0.0239466131,0.0220864266,42.4435501099,43.5467262268,33.1296920776,0.0619928241,-0.0039033890,-0.0071512461,
54.703,-3.2799334526,1.3913931847,5.9825792313,0.0560202859,0.0449905097,0.0077928901,-117.6697158813,73.7047119141,29.0173530579,0.0262346268,0.0604011416,0.0130780339,-10.3697557449,84.2041015625,35.2488365173,0.0188137293,0.0268633366,0.0240494609,42.4432449341,43.5445594788,33.1357345581,0.0736841559,-0.0092892349,0.0035688877,
54.713,-3.2790770531,1.3911811113,5.9850115776,0.0589462742,0.0474169962,0.0068157315,-117.6659317017,73.7045745850,29.0258941650,0.0252574086,0.0555291623,0.0106213093,-10.3737535477,84.2042083740,35.2532577515,0.0271146894,0.0229638815,0.0201459825,42.4386940002,43.5406532288,33.1392211914,0.0731464624,-0.0097666383,0.0074017644,
54.723,-3.2760100365,1.3896121979,5.9856634140,0.0613603070,0.0488284528,0.0116948485,-117.6695480347,73.7047271729,29.0268859863,0.0306292176,0.0608899295,0.0116124749,-10.3746118546,84.2034988403,35.2613296509,0.0149064064,0.0258974731,0.0269688517,42.4416122437,43.5399589539,33.1461639404,0.0667899847,-0.0068698227,-0.0072277188,
54.733,-3.2780559063,1.3910604715,5.9860634804,0.0618738569,0.0371453092,0.0219510198,-117.6889495850,73.7044219971,29.0137786865,0.0252566338,0.0628030598,-0.0019725561,-10.3913536072,84.2028884888,35.2542419434,0.0285772085,0.0186046958,0.0235466510,42.4392166138,43.5389213562,33.1516723633,0.0653120875,-0.0141800642,0.0015316606,
54.743,-3.2796337605,1.3930170536,5.9864726067,0.0594665930,0.0391258709,0.0043756366,-117.6868972778,73.7059707642,29.0205974579,0.0277056098,0.0598550737,0.0121665597,-10.3884639740,84.2047805786,35.2654304504,0.0285805464,0.0264061987,0.0206483155,42.4399299622,43.5391197205,33.1585311890,0.0692207813,-0.0176032782,-0.0004141927,
54.753,-3.2770836353,1.3920440674,5.9888682365,0.0638441443,0.0468939729,0.0092555881,-117.6871032715,73.7076568604,29.0266284943,0.0247842073,0.0578765869,0.0155723095,-10.3879795074,84.2049179077,35.2743263245,0.0222331285,0.0224986076,0.0250452757,42.4383888245,43.5379600525,33.1635131836,0.0726240873,-0.0117386281,0.0000516176,
54.763,-3.2784712315,1.3916832209,5.9894876480,0.0570019111,0.0439884700,0.0082802176,-117.6853027344,73.7078018188,29.0337829590,0.0262497663,0.0593433976,0.0121454000,-10.3879461288,84.2052536011,35.2835121155,0.0232102871,0.0205445588,0.0245613307,42.4377250671,43.5385894775,33.1690788269,0.0638430119,-0.0063564181,0.0029802918,
54.773,-3.2773942947,1.3916293383,5.9900369644,0.0604189411,0.0439697020,0.0141381621,-117.6947021484,73.7070922852,29.0293674469,0.0233166218,0.0529844016,0.0068207383,-10.3993978500,84.2029876709,35.2815399170,0.0207648873,0.0215481520,0.0259934366,42.4391708374,43.5385971069,33.1767539978,0.0682376623,-0.0083228052,-0.0038423538,
54.783,-3.2813835144,1.3888933659,5.9924864769,0.0613477640,0.0347619168,0.0068174005,-117.6970214844,73.7083206177,29.0329265594,0.0286937356,0.0583323538,0.0195165277,-10.3966884613,84.1992340088,35.2938041687,0.0227113962,0.0254613459,0.0278813839,42.4332580566,43.5396575928,33.1790428162,0.0667861700,-0.0155833960,0.0005103350,
54.793,-3.2797079086,1.3894593716,5.9929666519,0.0623342022,0.0440100580,0.0082799196,-117.6898193359,73.7061614990,29.0461692810,0.0272182822,0.0539864153,0.0116895437,-10.3927230835,84.2006225586,35.3060836792,0.0241786838,0.0244731903,0.0205811858,42.4330139160,43.5379714966,33.1832771301,0.0740891099,-0.0102235973,-0.0063422918,
54.803,-3.2796990871,1.3869071007,5.9923887253,0.0622896701,0.0425451286,0.0082794428,-117.6877975464,73.7071533203,29.0539970398,0.0311294198,0.0564170927,0.0126495957,-10.3995409012,84.1998748779,35.3088493347,0.0290601850,0.0259527862,0.0230097920,42.4344406128,43.5375251770,33.1909103394,0.0696889162,-0.0048695803,0.0000129342,
54.813,-3.2811162472,1.3879499435,5.9929547310,0.0544953644,0.0415932201,0.0175587535,-117.6888504028,73.7062225342,29.0580749512,0.0321013927,0.0564293116,0.0126614571,-10.3906717300,84.1975097656,35.3247566223,0.0256380439,0.0235026181,0.0288287699,42.4339065552,43.5383949280,33.1951255798,0.0643287897,-0.0112050474,-0.0014477968,
54.823,-3.2797439098,1.3880590200,5.9941186905,0.0598683655,0.0449872874,0.0112097263,-117.6872253418,73.7073745728,29.0649185181,0.0223414302,0.0598326921,0.0131336451,-10.3723812103,84.1976470947,35.3508338928,0.0256382823,0.0283528268,0.0239406228,42.4302673340,43.5416526794,33.1989746094,0.0609520674,-0.0204220712,-0.0004740357,
54.833,-3.2819633484,1.3865243196,5.9959030151,0.0613064319,0.0367252044,0.0068167448,-117.6922912598,73.7055511475,29.0652904510,0.0345395207,0.0578966290,0.0082870126,-10.3743038177,84.1996765137,35.3567085266,0.0227121711,0.0205372870,0.0225120783,42.4292907715,43.5401229858,33.2043724060,0.0697217584,-0.0101714134,-0.0000075698,
54.843,-3.2810714245,1.3860017061,5.9964966774,0.0598324686,0.0454987437,0.0116980076,-117.6999206543,73.7048568726,29.0627498627,0.0291650295,0.0598413646,0.0093022585,-10.3692035675,84.2008590698,35.3703765869,0.0275970697,0.0205246806,0.0171587020,42.4284324646,43.5375366211,33.2101860046,0.0731070042,-0.0111609101,-0.0000376105,
54.853,-3.2830286026,1.3868504763,5.9976220131,0.0574058667,0.0396734402,0.0156068802,-117.6926193237,73.7056579590,29.0754756927,0.0301455259,0.0574055314,0.0141471028,-10.3705158234,84.2011260986,35.3767623901,0.0285741091,0.0278506577,0.0239977837,42.4330215454,43.5375633240,33.2184867859,0.0687128305,-0.0102269948,-0.0117170215,
54.863,-3.2837901115,1.3857823610,5.9987831116,0.0617817640,0.0396867357,0.0092595220,-117.6889877319,73.7059326172,29.0824375153,0.0281937122,0.0603386164,0.0146173239,-10.3733787537,84.1998062134,35.3838691711,0.0251538157,0.0273711383,0.0269086063,42.4342193604,43.5367622375,33.2240715027,0.0682143569,-0.0048735440,0.0043995976,
54.873,-3.2821977139,1.3848962784,5.9981241226,0.0627428666,0.0460066684,0.0043746829,-117.6929626465,73.7055664063,29.0822124481,0.0286802053,0.0593591034,0.0136610866,-10.3851346970,84.1983566284,35.3810958862,0.0212450027,0.0195839703,0.0298175216,42.4337196350,43.5362815857,33.2285614014,0.0672317743,-0.0082909167,-0.0053754449,
54.883,-3.2805600166,1.3843747377,5.9981093407,0.0598040819,0.0459781513,0.0146269798,-117.6939163208,73.7032394409,29.0865669250,0.0242742896,0.0569497496,0.0097769499,-10.3911161423,84.2001190186,35.3829879761,0.0232012272,0.0230075121,0.0195926875,42.4350051880,43.5358009338,33.2355842590,0.0745499134,-0.0073300600,-0.0087855458,
54.893,-3.2798066139,1.3847733736,5.9980397224,0.0583461896,0.0430353358,0.0033959150,-117.6952972412,73.7051620483,29.0902080536,0.0267251134,0.0622888952,0.0078150034,-10.3931732178,84.2021789551,35.3900032043,0.0207634568,0.0230046809,0.0186521113,42.4390716553,43.5378494263,33.2442550659,0.0618805289,-0.0107695460,-0.0111749768,
54.903,-3.2799875736,1.3824410439,6.0004339218,0.0666062832,0.0415736921,0.0126720667,-117.7117614746,73.7057113647,29.0797061920,0.0247746706,0.0617564619,-0.0028599501,-10.3940467834,84.2016067505,35.3979530334,0.0183210373,0.0239841342,0.0274347663,42.4415206909,43.5336494446,33.2509307861,0.0720812678,-0.0059435666,-0.0043545365,
54.913,-3.2792398930,1.3828961849,6.0009355545,0.0602665618,0.0430255085,-0.0005117059,-117.7074050903,73.7077102661,29.0878200531,0.0306438208,0.0592941791,0.0166369081,-10.4126586914,84.2013320923,35.3891296387,0.0285744667,0.0201122165,0.0230379850,42.4401741028,43.5295372009,33.2569541931,0.0774003267,-0.0088941157,-0.0014736056,
54.923,-3.2792379856,1.3829421997,6.0026688576,0.0622204915,0.0444903150,0.0073006749,-117.6961593628,73.7096099854,29.1042232513,0.0291882753,0.0568504483,0.0190145969,-10.4152708054,84.2029571533,35.3958854675,0.0246710777,0.0269472897,0.0191632062,42.4390792847,43.5278816223,33.2608184814,0.0710316896,-0.0118269622,-0.0000323057,
54.933,-3.2793927193,1.3813146353,6.0038652420,0.0617038123,0.0396102369,0.0121830702,-117.6924591064,73.7114334106,29.1144580841,0.0291972160,0.0573202968,0.0136132836,-10.4063405991,84.2020111084,35.4126548767,0.0271108150,0.0264468491,0.0293934047,42.4398765564,43.5293388367,33.2677154541,0.0627493858,-0.0079164505,-0.0024547577,
54.943,-3.2774460316,1.3808226585,6.0031175613,0.0656014755,0.0429943055,0.0033913851,-117.6873931885,73.7135314941,29.1257457733,0.0262777805,0.0612074584,0.0208990574,-10.3987598419,84.2034606934,35.4284439087,0.0251602530,0.0278932154,0.0201417953,42.4355354309,43.5282554626,33.2714347839,0.0705481768,-0.0137437880,-0.0015237331,
54.953,-3.2780742645,1.3786700964,6.0036993027,0.0655639172,0.0444701426,0.0116926432,-117.6840286255,73.7159500122,29.1340408325,0.0218951106,0.0606904179,0.0184243321,-10.4004945755,84.2037963867,35.4369850159,0.0251608491,0.0244775414,0.0201462358,42.4316024780,43.5301208496,33.2758255005,0.0632475615,-0.0190632045,0.0013881922,
54.963,-3.2787003517,1.3786537647,6.0048604012,0.0601925403,0.0444810539,0.0077861547,-117.6792068481,73.7182693481,29.1434764862,0.0302072167,0.0572491288,0.0222916007,-10.3900241852,84.2023391724,35.4557838440,0.0251582861,0.0249517858,0.0264660120,42.4307861328,43.5322952271,33.2824821472,0.0622984767,-0.0136668086,-0.0073882341,
54.973,-3.2780537605,1.3783352375,6.0078430176,0.0616518259,0.0444697998,0.0087627172,-117.6719436646,73.7185287476,29.1572914124,0.0272788405,0.0548203290,0.0139572024,-10.3893613815,84.2012634277,35.4647369385,0.0207618475,0.0239769518,0.0225440711,42.4285659790,43.5365295410,33.2870635986,0.0657700300,-0.0194710791,-0.0098111629,
54.983,-3.2805824280,1.3758256435,6.0090909004,0.0625846013,0.0420724936,0.0102284551,-117.6769409180,73.7182159424,29.1590995789,0.0253241658,0.0601847470,0.0066570640,-10.3730268478,84.2024765015,35.4883842468,0.0236936808,0.0239446461,0.0206036866,42.4292411804,43.5373458862,33.2937812805,0.0652921200,-0.0111699700,-0.0019854903,
54.993,-3.2796843052,1.3777655363,6.0101833344,0.0577356368,0.0454747714,0.0112054348,-117.6834182739,73.7177047729,29.1580219269,0.0267865062,0.0548065156,0.0125486851,-10.3785161972,84.2031860352,35.4918670654,0.0290660262,0.0210221708,0.0215961635,42.4275283813,43.5389747620,33.2996749878,0.0648244023,-0.0126056671,0.0004557371,
55.003,-3.2804048061,1.3770903349,6.0125927925,0.0606535412,0.0440224968,0.0092521906,-117.6807937622,73.7205581665,29.1664867401,0.0263121724,0.0606297553,0.0154448152,-10.3831977844,84.2008590698,35.4950523376,0.0212494135,0.0210379064,0.0249745697,42.4266662598,43.5386390686,33.3048934937,0.0711678267,-0.0067409277,-0.0019959807,
55.013,-3.2825334072,1.3756748438,6.0132012367,0.0606288426,0.0435713381,0.0063247681,-117.6781539917,73.7196121216,29.1749706268,0.0263075829,0.0533256531,0.0115343928,-10.3890752792,84.2004241943,35.4974861145,0.0305259824,0.0220260024,0.0210645497,42.4247474670,43.5400238037,33.3081245422,0.0697204471,-0.0164774656,-0.0024884939,
55.023,-3.2819652557,1.3764495850,6.0155611038,0.0577126779,0.0420965739,0.0092536807,-117.6969680786,73.7217102051,29.1613140106,0.0272943974,0.0600878447,0.0037875175,-10.4157505035,84.2018051147,35.4799575806,0.0217393637,0.0181629658,0.0196299404,42.4274063110,43.5399208069,33.3165092468,0.0716723204,-0.0086905956,-0.0049080253,
