Time(sec),Gyr1_X(deg/sec),Gyr1_Y(deg/sec),Gyr1_Z(deg/sec),Acc1_X(m/s^2),Acc1_Y(m/s^2),Acc1_Z(m/s^2),Gyr2_X(deg/sec),Gyr2_Y(deg/sec),Gyr2_Z(deg/sec),Acc2_X(m/s^2),Acc2_Y(m/s^2),Acc2_Z(m/s^2),Gyr_X(deg/sec),Gyr_Y(deg/sec),Gyr_Z(deg/sec),Acc_X(m/s^2),Acc_Y(m/s^2),Acc_Z(m/s^2),Gyr_X(deg/sec),Gyr_Y(deg/sec),Gyr_Z(deg/sec),Acc_X(m/s^2),Acc_Y(m/s^2),Acc_Z(m/s^2),
252.963,-3.3080246449,1.3988519907,28.8669662476,0.0590801165,0.0405968428,-0.0009644628,-114.6531372070,73.2408752441,78.4363784790,0.0234434009,0.0544273257,0.0137391090,-11.8247690201,84.3215255737,-165.1667022705,0.0204834342,0.0260960162,0.0308938026,42.5760192871,43.4759979248,161.3708801270,0.0674452186,-0.0062022507,-0.0081093907,
252.973,-3.3074476719,1.3997412920,28.8692817688,0.0615370423,0.0464461409,0.0073360801,-114.6760940552,73.2458114624,78.4256820679,0.0298159122,0.0538158417,-0.0052328706,-11.8279781342,84.3193511963,-165.1615142822,0.0234093666,0.0217146128,0.0240228176,42.5767974854,43.4760284424,161.3767547607,0.0654924512,-0.0081623495,-0.0032195449,
252.983,-3.3079891205,1.3997226954,28.8710651398,0.0600718707,0.0469438583,0.0005006194,-114.6729812622,73.2477035522,78.4375228882,0.0268957615,0.0425635278,0.0084115863,-11.8423671722,84.3184814453,-165.1638793945,0.0253610015,0.0222304165,0.0269452333,42.5773086548,43.4735832214,161.3831329346,0.0688794851,-0.0101402700,-0.0012842417,
252.993,-3.3060719967,1.3977218866,28.8716926575,0.0629666522,0.0469105169,0.0141696930,-114.6765365601,73.2528152466,78.4454345703,0.0288745761,0.0527324080,-0.0008850694,-11.8582677841,84.3196945190,-165.1695251465,0.0224334002,0.0203008652,0.0230631232,42.5757637024,43.4728164673,161.3886260986,0.0674049258,-0.0140382051,-0.0042333007,
253.003,-3.3031811714,1.3987084627,28.8716926575,0.0541948006,0.0483249724,0.0044017434,-114.6650314331,73.2546768188,78.4642333984,0.0293722153,0.0507752597,0.0107679367,-11.8721237183,84.3208007813,-165.1737365723,0.0195056200,0.0208090842,0.0255287290,42.5745086670,43.4717826843,161.3948974609,0.0644621253,-0.0086637735,0.0035592914,
253.013,-3.3047089577,1.3982993364,28.8721446991,0.0654181316,0.0415156595,0.0000086427,-114.6466827393,73.2538909912,78.4875793457,0.0313214064,0.0474077463,0.0092244148,-11.8794040680,84.3206634521,-165.1714782715,0.0248764753,0.0242399871,0.0230883956,42.5739402771,43.4690933228,161.4014587402,0.0712640285,-0.0077038407,-0.0028176308,
253.023,-3.3050196171,1.3973495960,28.8733730316,0.0614953116,0.0498218723,0.0127035975,-114.6323852539,73.2527923584,78.5061416626,0.0274096131,0.0518485010,0.0018424392,-11.9077310562,84.3231735229,-165.1900787354,0.0214628577,0.0189091563,0.0177687407,42.5794830322,43.4696693420,161.4128417969,0.0673651099,-0.0092156529,-0.0110653639,
253.033,-3.3047432899,1.3963383436,28.8720684052,0.0629425049,0.0415163040,0.0014725327,-114.6220169067,73.2517089844,78.5174179077,0.0322870016,0.0538399220,0.0042436123,-11.9463882446,84.3230361938,-165.2202911377,0.0229274631,0.0194647163,0.0211980939,42.5806770325,43.4678344727,161.4194183350,0.0717362761,-0.0048472583,-0.0032590628,
253.043,-3.3030638695,1.3959225416,28.8727149963,0.0570758767,0.0483229980,0.0044004321,-114.6248855591,73.2488632202,78.5150146484,0.0347141027,0.0587599576,-0.0040241480,-11.9490852356,84.3234558105,-165.2159118652,0.0209750533,0.0253272653,0.0241358876,42.5830116272,43.4683952332,161.4260253906,0.0678371191,-0.0097473264,0.0001839399,
253.053,-3.3034424782,1.3961114883,28.8732299805,0.0614737086,0.0453999043,0.0073305964,-114.6342544556,73.2446899414,78.5083694458,0.0283454657,0.0529439151,-0.0063937306,-11.9575843811,84.3241119385,-165.2167510986,0.0258589983,0.0258277357,0.0221976042,42.5823822021,43.4690284729,161.4304046631,0.0688217282,-0.0165721774,-0.0017690063,
253.063,-3.3042674065,1.3979284763,28.8743286133,0.0561343171,0.0415079780,0.0151445866,-114.6345520020,73.2406311035,78.5109024048,0.0307664275,0.0603296459,0.0087726116,-11.9520320892,84.3232879639,-165.2035522461,0.0282989740,0.0253328979,0.0280405283,42.5821914673,43.4683952332,161.4357452393,0.0697902441,-0.0107161999,-0.0061708093,
253.073,-3.3062911034,1.3994755745,28.8772087097,0.0590909980,0.0395900682,-0.0004780293,-114.6401443481,73.2334823608,78.5080490112,0.0321952701,0.0555431545,0.0039651394,-11.9424648285,84.3210678101,-165.1849212646,0.0239006281,0.0199531317,0.0250704288,42.5859146118,43.4711418152,161.4436492920,0.0649423003,-0.0087754428,-0.0144153833,
253.083,-3.3056349754,1.4003914595,28.8789157867,0.0591069795,0.0425083041,0.0053817630,-114.6563034058,73.2204132080,78.4953536987,0.0321294665,0.0454525650,-0.0007525682,-11.9370880127,84.3186950684,-165.1712036133,0.0238965154,0.0223935843,0.0294235349,42.5844154358,43.4717330933,161.4483489990,0.0664146543,-0.0107097924,-0.0002628565,
253.093,-3.3058681488,1.4020785093,28.8800563812,0.0542536005,0.0415357649,0.0088001490,-114.6679153442,73.2108764648,78.4853820801,0.0242688656,0.0533854961,0.0057147145,-11.9347982407,84.3155899048,-165.1612396240,0.0229145885,0.0248417407,0.0293720365,42.5843162537,43.4725151062,161.4534149170,0.0698424578,-0.0102142692,-0.0075809956,
253.103,-3.3047645092,1.4020547867,28.8824920654,0.0562063120,0.0439579412,0.0087993145,-114.6810989380,73.1995697021,78.4749374390,0.0266532898,0.0549937487,0.0073187947,-11.9620695114,84.3143081665,-165.1824951172,0.0307248831,0.0175691396,0.0244781375,42.5892295837,43.4727287292,161.4627685547,0.0693569183,-0.0058638155,-0.0124198198,
253.113,-3.3056042194,1.4030618668,28.8842372894,0.0567121655,0.0415311381,0.0073356032,-114.6938171387,73.1887283325,78.4645614624,0.0309931040,0.0595254302,0.0064762235,-11.9754562378,84.3109359741,-165.1886444092,0.0224182606,0.0190692544,0.0254020691,42.5881958008,43.4738845825,161.4666442871,0.0669301748,-0.0121924281,-0.0006995797,
253.123,-3.3069648743,1.4020045996,28.8847694397,0.0635296553,0.0420431457,0.0029416680,-114.7043838501,73.1792678833,78.4565658569,0.0280156732,0.0601339340,0.0124500990,-11.9418458939,84.3099365234,-165.1492309570,0.0238813758,0.0258503556,0.0307455659,42.5916862488,43.4739456177,161.4753265381,0.0679075122,-0.0058767796,-0.0060400367,
253.133,-3.3094773293,1.4019144773,28.8859024048,0.0605983958,0.0420869179,0.0122217536,-114.7245941162,73.1667785645,78.4404296875,0.0274642706,0.0622340143,0.0067707896,-11.9160871506,84.3107299805,-165.1189880371,0.0209530592,0.0301976353,0.0248893499,42.5911598206,43.4748878479,161.4792480469,0.0698725581,-0.0136767626,-0.0055480003,
253.143,-3.3095557690,1.4018747807,28.8876857758,0.0581562966,0.0420882776,0.0048977733,-114.7406692505,73.1552429199,78.4302978516,0.0234996676,0.0555387437,0.0132730007,-11.8799533844,84.3083572388,-165.0769958496,0.0219255090,0.0257488042,0.0253254175,42.5920104980,43.4777221680,161.4845428467,0.0635607839,-0.0117084980,-0.0103983879,
253.153,-3.3088493347,1.4019109011,28.8900794983,0.0581569299,0.0425642580,0.0092915297,-114.7661743164,73.1417770386,78.4121627808,0.0268495083,0.0537351072,0.0056719184,-11.8521823883,84.3071823120,-165.0422363281,0.0238766074,0.0261932313,0.0292013288,42.5940971375,43.4796028137,161.4920043945,0.0674908757,-0.0146423578,-0.0035280585,
253.163,-3.3088452816,1.4033435583,28.8917369843,0.0615998879,0.0445172749,0.0058742166,-114.7781372070,73.1299285889,78.4071273804,0.0233715773,0.0568178296,0.0111809373,-11.8488817215,84.3112106323,-165.0298919678,0.0229070187,0.0242201686,0.0082719326,42.5952873230,43.4807815552,161.4992980957,0.0699471831,-0.0087846220,-0.0083907247,
253.173,-3.3083095551,1.4039962292,28.8916168213,0.0596581548,0.0401133932,0.0053852797,-114.7872924805,73.1193771362,78.4027023315,0.0228298306,0.0603760481,0.0112968683,-11.8689880371,84.3090744019,-165.0421752930,0.0302275419,0.0179148912,0.0302157998,42.5980262756,43.4816932678,161.5067138672,0.0670289993,-0.0083144307,-0.0054288507,
253.183,-3.3076891899,1.4020470381,28.8934745789,0.0606007092,0.0444971696,0.0063611269,-114.8071975708,73.1088638306,78.3868103027,0.0237531066,0.0570751131,0.0051145554,-11.8643312454,84.3090438843,-165.0310516357,0.0248563886,0.0252310336,0.0233783722,42.5952987671,43.4810485840,161.5112609863,0.0665326118,-0.0161066651,0.0013778806,
253.193,-3.3090202808,1.3987824917,28.8959579468,0.0654265583,0.0440321565,0.0088018775,-114.8149032593,73.1030273438,78.3809890747,0.0266531706,0.0576350093,0.0066557527,-11.8967514038,84.3094177246,-165.0543670654,0.0263218880,0.0179616511,0.0258376002,42.5939483643,43.4795722961,161.5165557861,0.0670021772,-0.0087819099,-0.0005998611,
253.203,-3.3083565235,1.4001061916,28.8976612091,0.0576371551,0.0425557196,0.0039196014,-114.8277282715,73.1010208130,78.3718261719,0.0276195407,0.0669155717,0.0028228164,-11.8862314224,84.3097229004,-165.0338592529,0.0199747682,0.0286845863,0.0258386135,42.5942268372,43.4806251526,161.5216827393,0.0675038099,-0.0151236057,-0.0069357753,
253.213,-3.3092474937,1.3997808695,28.9000072479,0.0615377314,0.0391532704,0.0083138943,-114.8273849487,73.1008224487,78.3785095215,0.0242005587,0.0566654801,0.0111234784,-11.8889646530,84.3112411499,-165.0270385742,0.0238836408,0.0247779191,0.0204929709,42.5955963135,43.4856147766,161.5299682617,0.0670787096,-0.0136309564,-0.0102980733,
253.223,-3.3097648621,1.4005584717,28.9004440308,0.0615512989,0.0406271145,0.0073388815,-114.8294906616,73.1056518555,78.3847045898,0.0222719312,0.0658649802,0.0135407448,-11.8729572296,84.3119659424,-165.0021362305,0.0277911425,0.0262124836,0.0195227861,42.5982360840,43.4867973328,161.5387573242,0.0749061704,-0.0116928816,-0.0102651119,
253.233,-3.3100812435,1.4010221958,28.9015331268,0.0605828278,0.0391677655,0.0058740377,-114.8292312622,73.1117630005,78.3941040039,0.0281623006,0.0633322895,0.0125201941,-11.8615236282,84.3107299805,-164.9816894531,0.0258358717,0.0213140249,0.0277999043,42.5961494446,43.4874229431,161.5448303223,0.0714961290,-0.0141097307,-0.0019766092,
253.243,-3.3098666668,1.4005256891,28.9014377594,0.0615507290,0.0411171615,0.0058742762,-114.8143386841,73.1180496216,78.4176712036,0.0242879391,0.0593620539,0.0148489475,-11.8558568954,84.3071136475,-164.9684600830,0.0228999257,0.0276646316,0.0316431522,42.5944213867,43.4881553650,161.5502166748,0.0705288649,-0.0126228034,-0.0058913231,
253.253,-3.3087382317,1.4021581411,28.9031181335,0.0586495213,0.0420740321,0.0024554133,-114.8078918457,73.1256637573,78.4341430664,0.0306741595,0.0592613518,0.0108597875,-11.8697528839,84.3085556030,-164.9721679688,0.0292500854,0.0232889354,0.0189779401,42.5988464355,43.4877395630,161.5605010986,0.0675939322,-0.0058315396,-0.0048804283,
253.263,-3.3096730709,1.4016232491,28.9029788971,0.0640112832,0.0391606353,0.0107572079,-114.8063049316,73.1335372925,78.4478378296,0.0263195038,0.0562158823,0.0039615631,-11.8588552475,84.3072128296,-164.9524078369,0.0204586983,0.0252277553,0.0331125259,42.6019859314,43.4924583435,161.5693664551,0.0608177185,-0.0155881047,-0.0175070763,
253.273,-3.3097820282,1.3996348381,28.9048118591,0.0610468984,0.0396508686,0.0151509643,-114.8143692017,73.1368255615,78.4517669678,0.0297541618,0.0468712747,-0.0048133135,-11.8568105698,84.3063888550,-164.9408264160,0.0248517990,0.0247392207,0.0223536491,42.6053047180,43.4930686951,161.5783081055,0.0715675950,-0.0068249702,-0.0086841583,
253.283,-3.3105297089,1.3995525837,28.9059524536,0.0581157804,0.0377107710,0.0029446483,-114.8227920532,73.1420440674,78.4537734985,0.0327102542,0.0521455407,0.0093491673,-11.8415594101,84.3051147461,-164.9154968262,0.0238730311,0.0271584243,0.0242813230,42.6001625061,43.4923324585,161.5825500488,0.0710700154,-0.0170369148,-0.0014104843,
253.293,-3.3092362881,1.4003231525,28.9075984955,0.0639885962,0.0425710343,0.0078265071,-114.8533096313,73.1388549805,78.4358291626,0.0331823826,0.0491991639,0.0002348423,-11.8321695328,84.3042526245,-164.8989715576,0.0248481035,0.0222625732,0.0247505307,42.5993194580,43.4888687134,161.5885009766,0.0710261464,-0.0033854246,0.0048993826,
253.303,-3.3088066578,1.4014030695,28.9081020355,0.0581480637,0.0440283678,0.0009906292,-114.8891677856,73.1278381348,78.4119415283,0.0326383114,0.0483127534,-0.0039171576,-11.8231773376,84.3002319336,-164.8802947998,0.0292356610,0.0188428164,0.0300525427,42.5976600647,43.4900283813,161.5949554443,0.0642049313,-0.0062901378,0.0014774799,
253.313,-3.3079354763,1.4009048939,28.9080867767,0.0596042164,0.0454780534,0.0112430453,-114.9166564941,73.1126327515,78.3914794922,0.0296315551,0.0479949117,0.0055935383,-11.8259105682,84.3020935059,-164.8740386963,0.0189849734,0.0227473974,0.0198303461,42.5970153809,43.4892883301,161.6021118164,0.0710315108,-0.0155674517,-0.0083001852,
253.323,-3.3091347218,1.3998774290,28.9110717773,0.0620277002,0.0401278734,0.0097792745,-114.9247817993,73.0924682617,78.3857498169,0.0275761485,0.0404698551,0.0072374940,-11.8431262970,84.3007812500,-164.8833465576,0.0238655210,0.0174105316,0.0261635780,42.5960960388,43.4921340942,161.6084594727,0.0652081966,-0.0160240531,-0.0024235249,
253.333,-3.3076343536,1.3995469809,28.9140357971,0.0639750585,0.0474259555,0.0122190118,-114.9345397949,73.0753326416,78.3742294312,0.0245594382,0.0475437045,0.0059379935,-11.8354940414,84.3009185791,-164.8673553467,0.0258188844,0.0227681100,0.0212790370,42.5973930359,43.4918937683,161.6146392822,0.0617871284,-0.0096904635,-0.0029029250,
253.343,-3.3077266216,1.3994016647,28.9151020050,0.0649490803,0.0420564748,0.0083128214,-114.9435806274,73.0637893677,78.3586120605,0.0240125060,0.0603938103,0.0016662478,-11.8586292267,84.3007812500,-164.8850555420,0.0224006772,0.0174374878,0.0261686444,42.5980644226,43.4882507324,161.6206817627,0.0719949007,-0.0063084066,0.0043947101,
253.353,-3.3073191643,1.3970141411,28.9169845581,0.0619777404,0.0459556952,0.0019636750,-114.9263305664,73.0569152832,78.3668975830,0.0269072056,0.0590696633,0.0138416290,-11.8840141296,84.3020553589,-164.9032897949,0.0258208513,0.0223599672,0.0213156343,42.5988426208,43.4917335510,161.6255035400,0.0642264485,-0.0214240551,-0.0063100457,
253.363,-3.3057305813,1.3971484900,28.9193477631,0.0600269586,0.0434866101,0.0112395883,-114.9165344238,73.0591659546,78.3729476929,0.0259420872,0.0712637901,0.0142688751,-11.8813657761,84.3010253906,-164.8953094482,0.0336315632,0.0213823467,0.0232509971,42.6018371582,43.4943275452,161.6315155029,0.0676773190,-0.0150832534,-0.0087029338,
253.373,-3.3057231903,1.3941673040,28.9193820953,0.0638811886,0.0425099991,0.0073316097,-114.9069976807,73.0654602051,78.3823013306,0.0245092511,0.0716773868,0.0102742910,-11.8766822815,84.2982711792,-164.8829193115,0.0253260136,0.0238250792,0.0280872583,42.6014442444,43.4933967590,161.6360321045,0.0749897361,-0.0126457214,0.0015394688,
253.383,-3.3045210838,1.3927719593,28.9199542999,0.0628802776,0.0444422066,0.0112363100,-114.9073562622,73.0753555298,78.3898239136,0.0284658074,0.0676210225,0.0058121085,-11.8655538559,84.2981719971,-164.8653564453,0.0219078660,0.0252710879,0.0246629715,42.6022033691,43.4922523499,161.6428375244,0.0700924397,-0.0082675815,0.0010475516,
253.393,-3.3051562309,1.3948076963,28.9210758209,0.0551033020,0.0444532260,0.0063551664,-114.9105529785,73.0887756348,78.3990249634,0.0168152452,0.0669233203,0.0111038685,-11.8282604218,84.2940063477,-164.8204803467,0.0243420601,0.0276622623,0.0353227258,42.6055335999,43.4896430969,161.6528930664,0.0764070153,-0.0058784783,-0.0067595840,
253.403,-3.3044321537,1.3937519789,28.9223041534,0.0594794154,0.0449289195,0.0058653355,-114.9225006104,73.0993881226,78.4038772583,0.0212635994,0.0608784258,0.0120612383,-11.8355789185,84.2919158936,-164.8170471191,0.0262915492,0.0232877731,0.0274776816,42.6088371277,43.4883842468,161.6630249023,0.0715082884,-0.0093373954,-0.0018592477,
253.413,-3.3047671318,1.3929518461,28.9228096008,0.0628834218,0.0390754007,0.0097718835,-114.9306182861,73.1046829224,78.4115753174,0.0320326686,0.0519917309,0.0062019825,-11.8349199295,84.2925720215,-164.8049163818,0.0272692442,0.0218196362,0.0211400986,42.6113433838,43.4864158630,161.6718902588,0.0729482174,-0.0054706335,-0.0062503219,
253.423,-3.3054313660,1.3915439844,28.9258060455,0.0633471385,0.0420166925,0.0092837214,-114.9387207031,73.1106109619,78.4173736572,0.0252267718,0.0553024411,0.0066862106,-11.8489007950,84.2954177856,-164.8080749512,0.0228796601,0.0223222524,0.0216808319,42.6123390198,43.4843635559,161.6806945801,0.0704808235,-0.0094028115,-0.0008883476,
253.433,-3.3024806976,1.3901164532,28.9277000427,0.0589276999,0.0483129807,0.0107451677,-114.9389343262,73.1095352173,78.4276885986,0.0320572853,0.0436000228,0.0013235807,-11.8723068237,84.2932891846,-164.8206481934,0.0267822146,0.0199288130,0.0304433703,42.6105766296,43.4816093445,161.6863708496,0.0680045485,-0.0133149922,-0.0009276867,
253.443,-3.3035929203,1.3895229101,28.9282436371,0.0598939061,0.0385667421,0.0063509941,-114.9360275269,73.1084365845,78.4377288818,0.0266805887,0.0445990562,0.0047358871,-11.8751707077,84.2940750122,-164.8139648438,0.0223890543,0.0243253112,0.0226465464,42.6102676392,43.4812812805,161.6932220459,0.0621410608,-0.0108733177,0.0015081167,
253.453,-3.3056428432,1.3908246756,28.9305591583,0.0579634942,0.0415321067,0.0078185797,-114.9242477417,73.1055221558,78.4497375488,0.0266658068,0.0485751033,0.0037252903,-11.8671331406,84.2958679199,-164.7977752686,0.0272749662,0.0301649868,0.0202289820,42.6117668152,43.4811248779,161.7016143799,0.0621390343,-0.0104002953,-0.0028751493,
253.463,-3.3052644730,1.3902814388,28.9305038452,0.0618602671,0.0459200665,0.0097713470,-114.9135665894,73.1024627686,78.4587097168,0.0281151533,0.0520613790,0.0032092333,-11.8822774887,84.2968597412,-164.8033599854,0.0272766948,0.0223750174,0.0246471763,42.6108245850,43.4780387878,161.7065887451,0.0660061836,-0.0094400048,0.0068553686,
253.473,-3.3037378788,1.3921090364,28.9304256439,0.0555444956,0.0478465483,0.0048877001,-114.9078826904,73.1012420654,78.4624328613,0.0305503607,0.0603931546,0.0012384057,-11.8893308640,84.2981719971,-164.8032226563,0.0209313035,0.0223826766,0.0188121200,42.6062965393,43.4802780151,161.7098541260,0.0601751804,-0.0181686878,0.0053715706,
253.483,-3.3039774895,1.3894567490,28.9298553467,0.0623341575,0.0439445376,0.0000040531,-114.8970260620,73.1023025513,78.4750747681,0.0261611938,0.0647950470,0.0143644810,-11.9092731476,84.3002014160,-164.8153839111,0.0248410702,0.0228982866,0.0149475336,42.6075286865,43.4823265076,161.7156982422,0.0665487647,-0.0098628402,-0.0082721710,
253.493,-3.3035216331,1.3897383213,28.9327926636,0.0613625087,0.0439365953,-0.0004846454,-114.8970108032,73.0998764038,78.4815979004,0.0285903215,0.0614131689,0.0104752779,-11.9016046524,84.3014373779,-164.7988281250,0.0263080597,0.0258105099,0.0218003988,42.6078720093,43.4811744690,161.7225646973,0.0709286928,-0.0059690177,-0.0058372021,
253.503,-3.3029773235,1.3903759718,28.9338951111,0.0603970662,0.0419739708,0.0180699229,-114.9121170044,73.0980987549,78.4769744873,0.0300461650,0.0599432290,0.0012799501,-11.9030704498,84.2986831665,-164.7919006348,0.0175142288,0.0219164640,0.0246847272,42.6053085327,43.4829788208,161.7270050049,0.0626507998,-0.0156961381,-0.0038907528,
253.513,-3.3038334846,1.3909826279,28.9355754852,0.0604076572,0.0371060558,0.0117232800,-114.9229965210,73.0941238403,78.4763717651,0.0329556465,0.0541209280,0.0106354952,-11.8948659897,84.2987823486,-164.7760009766,0.0267917514,0.0248316079,0.0232183337,42.6036300659,43.4843063354,161.7326354980,0.0631558895,-0.0112750530,0.0005018115,
253.523,-3.3035562038,1.3903555870,28.9373798370,0.0603967123,0.0454020202,0.0102579594,-114.9532394409,73.0888290405,78.4570999146,0.0314639211,0.0556003749,0.0064179301,-11.8951988220,84.2967224121,-164.7673187256,0.0287413001,0.0209330171,0.0251381397,42.6038665771,43.4853668213,161.7396240234,0.0617044568,-0.0088273883,-0.0033937693,
253.533,-3.3042743206,1.3936625719,28.9383087158,0.0594778508,0.0376019552,0.0141661763,-114.9753265381,73.0810470581,78.4452896118,0.0260533094,0.0517646074,0.0109691620,-11.8921728134,84.2978591919,-164.7559204102,0.0267901421,0.0219005197,0.0217369199,42.6011352539,43.4847793579,161.7435607910,0.0660915375,-0.0146659613,-0.0000036955,
253.543,-3.3051478863,1.3961366415,28.9387588501,0.0556147695,0.0415233560,0.0073323250,-114.9833221436,73.0727920532,78.4444580078,0.0211285353,0.0445476174,0.0135055780,-11.8942728043,84.2994384766,-164.7501983643,0.0204452276,0.0223868787,0.0183462501,42.5988235474,43.4848518372,161.7485961914,0.0631628036,-0.0117142200,-0.0024648905,
253.553,-3.3039042950,1.3960009813,28.9386806488,0.0604952164,0.0424782597,0.0117255449,-114.9936447144,73.0667724609,78.4357757568,0.0220745206,0.0509636998,0.0052947998,-11.8831596375,84.2982711792,-164.7320404053,0.0248377323,0.0248128325,0.0295547843,42.5982055664,43.4853782654,161.7547607422,0.0670756698,-0.0131689906,0.0019292235,
253.563,-3.3032069206,1.3955706358,28.9398403168,0.0595111474,0.0405129977,0.0083066821,-114.9844512939,73.0611877441,78.4402465820,0.0200930238,0.0525329411,0.0091978908,-11.8810110092,84.2958679199,-164.7215576172,0.0155562162,0.0233529359,0.0285359025,42.6001739502,43.4856719971,161.7617340088,0.0670794249,-0.0102552176,0.0039018393,
253.573,-3.3020133972,1.3948676586,28.9398097992,0.0604754426,0.0443984754,0.0156294703,-114.9592514038,73.0556259155,78.4613265991,0.0229943991,0.0526705980,0.0100969672,-11.9089488983,84.2953796387,-164.7423706055,0.0223913193,0.0224264115,0.0270739794,42.6022300720,43.4850578308,161.7686462402,0.0665833950,-0.0132090449,-0.0043867826,
253.583,-3.3018267155,1.3941472769,28.9421806335,0.0629042834,0.0429303944,0.0078160763,-114.9419403076,73.0542526245,78.4746856689,0.0278702378,0.0615181327,0.0095381141,-11.9224500656,84.2971725464,-164.7481842041,0.0219061375,0.0248849839,0.0188076496,42.6054000854,43.4859504700,161.7748260498,0.0685477853,-0.0156728029,-0.0097228289,
253.593,-3.3026726246,1.3939119577,28.9445648193,0.0589939244,0.0414802991,0.0058640838,-114.9292526245,73.0547943115,78.4877090454,0.0327557921,0.0625133514,0.0084990263,-11.9312524796,84.3000640869,-164.7517089844,0.0194697380,0.0263552070,0.0095803142,42.6092147827,43.4839477539,161.7843322754,0.0704755783,-0.0049824417,-0.0116607547,
253.603,-3.3005530834,1.3916956186,28.9451656342,0.0653029084,0.0477910899,-0.0004868507,-114.9430618286,73.0530242920,78.4810104370,0.0342116356,0.0639752746,-0.0021668077,-11.9638872147,84.3001632690,-164.7759094238,0.0311886668,0.0195754468,0.0218010545,42.6091194153,43.4825172424,161.7894897461,0.0724105835,-0.0103642941,0.0010209084,
253.613,-3.3003613949,1.3937033415,28.9450416565,0.0550840273,0.0409517586,0.0107442141,-114.9662857056,73.0482711792,78.4673156738,0.0312578082,0.0591142774,-0.0005610585,-11.9658346176,84.2975158691,-164.7695312500,0.0243481398,0.0239822119,0.0271314979,42.6115341187,43.4815368652,161.7980957031,0.0665387511,-0.0074651241,-0.0009201169,
253.623,-3.3004236221,1.3951432705,28.9473133087,0.0595036894,0.0399762467,0.0043975115,-114.9972381592,73.0445938110,78.4471817017,0.0322155952,0.0591032505,-0.0047864318,-11.9480323792,84.2971420288,-164.7427673340,0.0243474841,0.0239530504,0.0178390741,42.6154060364,43.4814796448,161.8073425293,0.0723974705,-0.0075016320,-0.0077235103,
253.633,-3.2990548611,1.3937370777,28.9484920502,0.0628971234,0.0428821295,0.0073252320,-115.0104370117,73.0462722778,78.4420242310,0.0253882408,0.0551432669,0.0138174891,-11.9182043076,84.2974472046,-164.7058563232,0.0258128643,0.0258533657,0.0178334713,42.6136131287,43.4814796448,161.8128204346,0.0640966892,-0.0050434470,-0.0009026527,
253.643,-3.2989821434,1.3937385082,28.9507999420,0.0624088682,0.0404394604,0.0048836470,-115.0293579102,73.0461120605,78.4307250977,0.0253874063,0.0541285574,0.0075585246,-11.9020881653,84.2999496460,-164.6807250977,0.0199578404,0.0233751684,0.0188460350,42.6118965149,43.4840469360,161.8188323975,0.0655939579,-0.0133074224,-0.0038245916,
253.653,-3.2993557453,1.3934561014,28.9506912231,0.0628922209,0.0433756597,0.0043956041,-115.0477676392,73.0494842529,78.4183654785,0.0273576975,0.0555027723,0.0120145082,-11.9006023407,84.2982711792,-164.6708068848,0.0189783573,0.0194723457,0.0276060104,42.6107025146,43.4829978943,161.8241729736,0.0714401007,-0.0074453950,0.0000622869,
253.663,-3.2989284992,1.3909714222,28.9518718719,0.0667551160,0.0438565575,0.0092770457,-115.0617446899,73.0571136475,78.4097671509,0.0181191564,0.0587753057,0.0164198875,-11.8498630524,84.2960739136,-164.6131134033,0.0262987614,0.0291575789,0.0295044184,42.6087341309,43.4830627441,161.8285827637,0.0709526539,-0.0132859349,-0.0014189482,
253.673,-3.2992959023,1.3921548128,28.9529647827,0.0604281090,0.0453277640,0.0122076273,-115.0809097290,73.0630111694,78.3971252441,0.0240085125,0.0605983138,0.0086544156,-11.8662710190,84.2953796387,-164.6192321777,0.0214147568,0.0189343095,0.0246175528,42.6109466553,43.4842491150,161.8372192383,0.0680379868,-0.0098789036,-0.0101786256,
253.683,-3.2987687588,1.3911663294,28.9565792084,0.0618757047,0.0419006422,0.0058585405,-115.0933914185,73.0683746338,78.3927001953,0.0211061239,0.0590258241,0.0086741447,-11.8628110886,84.2957992554,-164.6068420410,0.0267865658,0.0238099545,0.0221800804,42.6140174866,43.4839744568,161.8455200195,0.0694993138,-0.0099098682,-0.0052720308,
253.693,-3.3018000126,1.3901696205,28.9577808380,0.0594169088,0.0424417518,0.0102564692,-115.1033935547,73.0725860596,78.3898544312,0.0333345532,0.0574759245,0.0121086240,-11.8602523804,84.2948379517,-164.5934600830,0.0189723969,0.0233203173,0.0250945091,42.6116371155,43.4842948914,161.8500061035,0.0621791482,-0.0162327290,-0.0013831258,
253.703,-3.3023960590,1.3895206451,28.9564075470,0.0662415177,0.0404990241,0.0087913275,-115.1224212646,73.0747909546,78.3796310425,0.0250449777,0.0569126308,0.0014387369,-11.8666048050,84.2951431274,-164.5914611816,0.0214143395,0.0223537087,0.0221721530,42.6096420288,43.4813613892,161.8550872803,0.0650717020,-0.0089136958,0.0068746209,
253.713,-3.3031692505,1.3897339106,28.9562511444,0.0633155555,0.0419773310,0.0048860908,-115.1341552734,73.0775527954,78.3752288818,0.0275003910,0.0544045269,0.0078210235,-11.8715810776,84.2946243286,-164.5854949951,0.0258079767,0.0189461857,0.0246067643,42.6072235107,43.4826507568,161.8590087891,0.0650880933,-0.0142517686,-0.0058300495,
253.723,-3.3046176434,1.3909479380,28.9573783875,0.0560125187,0.0415142551,0.0122125149,-115.1543197632,73.0767517090,78.3643798828,0.0357971191,0.0543730259,0.0020603538,-11.8502693176,84.2963485718,-164.5553741455,0.0262992382,0.0286689848,0.0212087631,42.6077117920,43.4823265076,161.8667907715,0.0660604835,-0.0083996058,-0.0009459257,
253.733,-3.3062450886,1.3900486231,28.9584770203,0.0652741715,0.0410543382,0.0039124489,-115.1801528931,73.0729751587,78.3451614380,0.0328482389,0.0543739796,0.0002532601,-11.8139476776,84.2931518555,-164.5108184814,0.0228757262,0.0261753798,0.0299331546,42.6072502136,43.4829559326,161.8734741211,0.0685098767,-0.0074136257,-0.0068036914,
253.743,-3.3059265614,1.3917196989,28.9589519501,0.0560259819,0.0415370278,-0.0009692907,-115.1917648315,73.0676040649,78.3383636475,0.0328209400,0.0524766743,0.0135285258,-11.8056812286,84.2949371338,-164.4923858643,0.0262967944,0.0246903002,0.0182390809,42.6070175171,43.4829978943,161.8797302246,0.0675338507,-0.0118056536,-0.0028991699,
253.753,-3.3061668873,1.3924185038,28.9607353210,0.0555498973,0.0415412039,0.0039135814,-115.2002334595,73.0580825806,78.3327407837,0.0278897285,0.0443009138,0.0121701956,-11.8182554245,84.2980346680,-164.4939880371,0.0253255963,0.0188418627,0.0163429976,42.6061019897,43.4822578430,161.8847198486,0.0689893961,-0.0074085593,0.0048990846,
253.763,-3.3062493801,1.3920233250,28.9605903625,0.0633554980,0.0400778018,0.0063555241,-115.2167739868,73.0462570190,78.3175811768,0.0248999000,0.0532322824,0.0059828162,-11.8020448685,84.2942810059,-164.4695587158,0.0228776932,0.0251744092,0.0348293781,42.6038780212,43.4819526672,161.8901367188,0.0655674934,-0.0112965107,-0.0009820461,
253.773,-3.3073852062,1.3933407068,28.9622306824,0.0619136430,0.0405858420,0.0034269691,-115.2198181152,73.0321197510,78.3111648560,0.0262927413,0.0490435958,0.0065854788,-11.8008480072,84.2966537476,-164.4599914551,0.0248349309,0.0241876841,0.0177776217,42.6056785583,43.4812049866,161.8966369629,0.0679994226,-0.0088781118,-0.0039035082,
253.783,-3.3065509796,1.3938243389,28.9627113342,0.0604572371,0.0410595722,0.0078210235,-115.2052841187,73.0212783813,78.3201217651,0.0223312378,0.0516800284,0.0144075751,-11.8074226379,84.2973098755,-164.4602050781,0.0219063759,0.0281031728,0.0251145959,42.6069374084,43.4828643799,161.9027557373,0.0611844659,-0.0127824545,-0.0063184500,
253.793,-3.3094043732,1.3946322203,28.9638462067,0.0551002398,0.0367147326,0.0058711767,-115.1704635620,73.0129470825,78.3518524170,0.0198473930,0.0533463061,0.0196765065,-11.8214015961,84.2964172363,-164.4670715332,0.0262993574,0.0227590650,0.0265716314,42.6058540344,43.4810600281,161.9081115723,0.0694624186,-0.0093691349,0.0014680028,
253.803,-3.3097667694,1.3962788582,28.9642257690,0.0629414693,0.0411155373,0.0112433434,-115.1343460083,73.0032424927,78.3891525269,0.0276103616,0.0569889545,0.0088356733,-11.8227891922,84.2967529297,-164.4625701904,0.0243468285,0.0252021104,0.0138802528,42.6062622070,43.4801254272,161.9151306152,0.0660326481,-0.0084038377,-0.0000005960,
253.813,-3.3082191944,1.3966810703,28.9654750824,0.0522063002,0.0435299762,0.0044059753,-115.0863189697,72.9945602417,78.4433135986,0.0246363878,0.0523407757,0.0150218010,-11.8456954956,84.2964477539,-164.4800109863,0.0223931670,0.0174300820,0.0202329755,42.6040916443,43.4793624878,161.9205627441,0.0665112138,-0.0103431344,-0.0000270605,
253.823,-3.3099076748,1.3965926170,28.9660243988,0.0605055392,0.0450242311,0.0131966472,-115.0540771484,72.9884796143,78.4850540161,0.0241170526,0.0676393807,0.0114971995,-11.8577270508,84.2972030640,-164.4836578369,0.0238593221,0.0228193253,0.0178089738,42.6015434265,43.4785346985,161.9239959717,0.0674773455,-0.0132557154,-0.0020090938,
253.833,-3.3084101677,1.3960602283,28.9690303802,0.0604962520,0.0430450328,0.0156363249,-115.0210723877,72.9828186035,78.5254745483,0.0275061131,0.0619367063,0.0113837123,-11.8641910553,84.2993698120,-164.4837493896,0.0209333897,0.0291707367,0.0202882290,42.6023597717,43.4808425903,161.9311370850,0.0709245205,-0.0195922256,-0.0102823377,
253.843,-3.3065361977,1.3964900970,28.9708576202,0.0565975010,0.0488717481,0.0073338747,-114.9953689575,72.9781875610,78.5569000244,0.0265058875,0.0581561923,0.0108086467,-11.8513031006,84.2990264893,-164.4644622803,0.0238624811,0.0257315785,0.0315085053,42.6019287109,43.4791793823,161.9375000000,0.0694386363,-0.0132540464,0.0014179945,
253.853,-3.3047485352,1.3970041275,28.9720287323,0.0585595928,0.0463991985,0.0146560669,-114.9713516235,72.9769897461,78.5853118896,0.0245466232,0.0592027307,0.0107055306,-11.8630237579,84.3021621704,-164.4679870605,0.0175202489,0.0286708772,0.0174034238,42.6020469666,43.4805450439,161.9449768066,0.0660379529,-0.0117791891,-0.0034517646,
253.863,-3.3056323528,1.3973828554,28.9725399017,0.0585662052,0.0415317677,0.0044038892,-114.9570465088,72.9757843018,78.6034622192,0.0230756402,0.0612047613,0.0052763224,-11.8673257828,84.3013687134,-164.4620208740,0.0233782530,0.0208684802,0.0256933570,42.6014671326,43.4795074463,161.9512176514,0.0670013428,-0.0137353539,0.0014168620,
253.873,-3.3061485291,1.3972196579,28.9718647003,0.0600282028,0.0430056117,-0.0009672046,-114.9420242310,72.9744338989,78.6221542358,0.0279515386,0.0573512912,0.0061924458,-11.9137001038,84.3019866943,-164.4993438721,0.0282621384,0.0175289214,0.0281607509,42.6034851074,43.4806900024,161.9578399658,0.0714108944,-0.0147211254,-0.0112503767,
253.883,-3.3039476871,1.3969104290,28.9737186432,0.0551399887,0.0434555598,0.0156321526,-114.9132003784,72.9725723267,78.6539001465,0.0255006552,0.0559767783,0.0065597892,-11.9309482574,84.3031539917,-164.5101318359,0.0253344774,0.0248788297,0.0262337923,42.6035919189,43.4773216248,161.9630432129,0.0728330612,-0.0103549957,-0.0044433475,
253.893,-3.3051958084,1.3953212500,28.9767780304,0.0595067926,0.0400593691,0.0039139986,-114.8690872192,72.9727401733,78.7031555176,0.0274546146,0.0594873428,0.0131893754,-11.9424133301,84.3026046753,-164.5127258301,0.0267983675,0.0244122297,0.0301359296,42.5993156433,43.4762229919,161.9655609131,0.0645183921,-0.0122771263,0.0067406297,
253.903,-3.3045718670,1.3961082697,28.9784622192,0.0619619340,0.0444430150,0.0127029419,-114.8199386597,72.9713745117,78.7560195923,0.0230531096,0.0586369634,0.0095521212,-11.9532365799,84.2997131348,-164.5164642334,0.0233753920,0.0244412720,0.0237433314,42.6010093689,43.4763221741,161.9732818604,0.0630548000,-0.0078975856,-0.0088690519,
253.913,-3.3034272194,1.3961429596,28.9789581299,0.0644039437,0.0463761948,0.0136778951,-114.7839202881,72.9708786011,78.7984161377,0.0293982029,0.0650696456,0.0040168762,-11.9574890137,84.2988204956,-164.5125122070,0.0228855610,0.0264048725,0.0281247497,42.6026916504,43.4776878357,161.9818878174,0.0645369291,-0.0108318925,-0.0078659058,
253.923,-3.3035483360,1.3967672586,28.9800548553,0.0600203052,0.0419837572,0.0058660507,-114.7512283325,72.9702453613,78.8427124023,0.0215824842,0.0622193217,0.0067986250,-11.9492387772,84.2982406616,-164.4954376221,0.0243493915,0.0268809497,0.0300649405,42.6018867493,43.4792404175,161.9885711670,0.0655331612,-0.0142297149,-0.0078590512,
253.933,-3.3046438694,1.3951911926,28.9818973541,0.0614576489,0.0449325703,0.0068426728,-114.7290039063,72.9689865112,78.8819122314,0.0279237032,0.0637508929,0.0062155724,-11.9520521164,84.2985458374,-164.4886932373,0.0272796154,0.0239550471,0.0217703581,42.6010627747,43.4808235168,161.9945068359,0.0636000633,-0.0117677748,-0.0044343472,
253.943,-3.3073542118,1.3941991329,28.9824142456,0.0614403412,0.0371673070,0.0107519627,-114.7082366943,72.9649887085,78.9214248657,0.0269266963,0.0570194721,0.0110295415,-11.9281711578,84.2993011475,-164.4559783936,0.0253278017,0.0268407166,0.0266568661,42.5974311829,43.4819335938,161.9986877441,0.0694735050,-0.0131897628,-0.0034789443,
253.953,-3.3068020344,1.3974525928,28.9840259552,0.0575908571,0.0420404226,0.0127053261,-114.6841583252,72.9613952637,78.9633407593,0.0264200568,0.0571253598,0.0094772577,-11.9107227325,84.2989959717,-164.4297332764,0.0204444528,0.0302294046,0.0217632055,42.5982398987,43.4814414978,162.0084381104,0.0709321499,-0.0063652992,-0.0000584126,
253.963,-3.3064320087,1.3954739571,28.9840354919,0.0624391474,0.0459402800,0.0053805113,-114.6477890015,72.9554748535,79.0123519897,0.0224835277,0.0480153859,0.0122784972,-11.9131402969,84.2965545654,-164.4238739014,0.0214167833,0.0238944888,0.0314890742,42.5971298218,43.4794692993,162.0149536133,0.0655360222,-0.0088123977,-0.0005736947,
253.973,-3.3071608543,1.3947739601,28.9845714569,0.0624269322,0.0420467369,0.0068449378,-114.6051025391,72.9483718872,79.0614395142,0.0244002938,0.0511438847,0.0087103844,-11.9340772629,84.2970733643,-164.4370422363,0.0179997087,0.0214877129,0.0251570344,42.5966835022,43.4765052795,162.0217285156,0.0669633150,-0.0088323951,0.0042791963,
253.983,-3.3080928326,1.3934925795,28.9851055145,0.0624045730,0.0391333178,0.0092876554,-114.5556564331,72.9412765503,79.1139831543,0.0282702446,0.0528213680,0.0060871243,-11.9638109207,84.2988510132,-164.4589843750,0.0189793706,0.0215327293,0.0198279619,42.6005516052,43.4766235352,162.0316619873,0.0601289272,-0.0088674426,-0.0059404969,
253.993,-3.3085134029,1.3916300535,28.9863243103,0.0623720773,0.0430469401,0.0078217983,-114.5137634277,72.9377136230,79.1570510864,0.0228809118,0.0602888763,0.0059159398,-12.0171651840,84.2989959717,-164.5026702881,0.0263038278,0.0191835612,0.0232663751,42.6000633240,43.4719581604,162.0375213623,0.0742299557,-0.0113422275,-0.0025679469,
254.003,-3.3079407215,1.3919470310,28.9887390137,0.0570065118,0.0464549251,0.0039153695,-114.4772262573,72.9372024536,79.1967391968,0.0302025080,0.0623278618,0.0037954450,-12.0562782288,84.2966156006,-164.5335693359,0.0238583088,0.0260954052,0.0300790071,42.6007881165,43.4708824158,162.0450286865,0.0615210533,-0.0152639151,-0.0030595660,
254.013,-3.3100748062,1.3934431076,28.9903564453,0.0614271499,0.0391678363,0.0073361397,-114.4367828369,72.9347229004,79.2425689697,0.0272601247,0.0595204532,0.0065530539,-12.0944299698,84.2979660034,-164.5641174316,0.0180012584,0.0266451836,0.0232787728,42.5998535156,43.4683189392,162.0505981445,0.0766252875,-0.0177174509,0.0003277659,
254.023,-3.3103559017,1.3935842514,28.9914321899,0.0638710186,0.0435672626,0.0063598752,-114.3997650146,72.9335174561,79.2907028198,0.0287187696,0.0625478029,0.0083412528,-12.1269207001,84.2997131348,-164.5893859863,0.0263050795,0.0203475952,0.0169721246,42.6020202637,43.4672813416,162.0590362549,0.0648934245,-0.0094453096,-0.0021041632,
254.033,-3.3091881275,1.3915764093,28.9925842285,0.0648125485,0.0401290022,0.0024517179,-114.3445892334,72.9273223877,79.3627700806,0.0286870599,0.0520153642,0.0110551119,-12.1395330429,84.3022613525,-164.5943145752,0.0248446465,0.0257315189,0.0223897696,42.6039199829,43.4650077820,162.0686035156,0.0687708259,-0.0085049272,-0.0065025091,
254.043,-3.3105564117,1.3917232752,28.9930648804,0.0618854202,0.0396645553,0.0146597624,-114.2583618164,72.9155883789,79.4675445557,0.0300917029,0.0465165675,0.0146374702,-12.1677112579,84.3049087524,-164.6141204834,0.0258257985,0.0228411555,0.0165848732,42.6037712097,43.4615707397,162.0763854980,0.0721452832,-0.0056017637,0.0022549629,
254.053,-3.3135077953,1.3919872046,28.9954185486,0.0574954972,0.0382511131,0.0136870742,-114.1564102173,72.9012527466,79.5819549561,0.0251353979,0.0396249890,0.0088855624,-12.2217369080,84.3087997437,-164.6596069336,0.0209497213,0.0170614123,0.0176453590,42.6039199829,43.4624328613,162.0834197998,0.0648319721,-0.0104790926,-0.0084788203,
254.063,-3.3134248257,1.3936467171,28.9959850311,0.0541064814,0.0470386930,0.0044093728,-114.0554428101,72.8861236572,79.6886978149,0.0314053893,0.0527613759,0.0016775727,-12.2807674408,84.3125228882,-164.7102355957,0.0190030336,0.0215445161,0.0157762170,42.6073036194,43.4598045349,162.0923309326,0.0662635565,-0.0071138144,-0.0016360879,
254.073,-3.3122787476,1.3935341835,28.9978084564,0.0565459244,0.0440890417,0.0136858821,-113.9554061890,72.8704376221,79.7934417725,0.0318130851,0.0561390221,0.0013124943,-12.3161792755,84.3142089844,-164.7374114990,0.0273067355,0.0259940922,0.0231418610,42.6095581055,43.4586486816,162.1006469727,0.0594129562,-0.0051913857,-0.0026047230,
254.083,-3.3133089542,1.3934510946,28.9983100891,0.0604507253,0.0387358963,0.0122221112,-113.8761215210,72.8536376953,79.8754577637,0.0327032208,0.0580251515,0.0064228177,-12.3564825058,84.3146896362,-164.7706146240,0.0219364762,0.0231321156,0.0251188874,42.6119575500,43.4552345276,162.1083984375,0.0657173395,-0.0071943998,-0.0045664907,
254.093,-3.3140916824,1.3913298845,28.9990081787,0.0589488707,0.0460738018,0.0102688074,-113.8418960571,72.8323211670,79.9144744873,0.0374763012,0.0628149509,-0.0116617084,-12.3809986115,84.3170700073,-164.7881164551,0.0248702765,0.0256072134,0.0261440277,42.6141471863,43.4591560364,162.1147155762,0.0652787089,-0.0198785067,-0.0152561069,
254.103,-3.3133797646,1.3897805214,29.0019645691,0.0657577813,0.0426434651,0.0034317970,-113.8193435669,72.8086624146,79.9431838989,0.0354012251,0.0549211800,0.0005974174,-12.3922243118,84.3177947998,-164.7917022705,0.0209652781,0.0270886272,0.0203016996,42.6148681641,43.4585838318,162.1209869385,0.0667363405,-0.0120771229,0.0028126240,
254.113,-3.3164036274,1.3886202574,29.0018939972,0.0637844056,0.0426961780,0.0034338236,-113.8280487061,72.7896652222,79.9411849976,0.0309085846,0.0664221644,-0.0031399727,-12.3757591248,84.3172760010,-164.7687530518,0.0253589153,0.0246210545,0.0241913795,42.6145133972,43.4599189758,162.1268005371,0.0711477399,-0.0140163302,-0.0064570308,
254.123,-3.3167667389,1.3894827366,29.0042114258,0.0594049245,0.0431907550,0.0048997402,-113.8236618042,72.7731399536,79.9528274536,0.0269169807,0.0632652342,0.0125749707,-12.3553485870,84.3155517578,-164.7418518066,0.0209614038,0.0231271237,0.0285501480,42.6140251160,43.4629287720,162.1327514648,0.0721624494,-0.0139870942,-0.0049688220,
254.133,-3.3182389736,1.3907401562,29.0052852631,0.0599151477,0.0437046476,0.0049017668,-113.8218231201,72.7600479126,79.9587631226,0.0253844261,0.0634682178,0.0097246766,-12.3240509033,84.3171386719,-164.7029113770,0.0219407082,0.0274617970,0.0227056742,42.6151084900,43.4619026184,162.1381072998,0.0653135180,-0.0027752519,0.0023545027,
254.143,-3.3219168186,1.3894786835,29.0051956177,0.0642876625,0.0403507724,0.0073459744,-113.8199844360,72.7472229004,79.9645004272,0.0282477736,0.0587840974,0.0102902651,-12.3269510269,84.3174819946,-164.6979675293,0.0175467730,0.0191648751,0.0271065831,42.6161193848,43.4638671875,162.1454925537,0.0677798390,-0.0125342011,-0.0068958998,
254.153,-3.3213090897,1.3899282217,29.0057392120,0.0584361367,0.0466878377,0.0078341961,-113.8219985962,72.7332153320,79.9672775269,0.0218275785,0.0589930713,0.0050228238,-12.3127527237,84.3187942505,-164.6760406494,0.0243849754,0.0235302895,0.0222394466,42.6170043945,43.4656906128,162.1529235840,0.0658497810,-0.0135042667,-0.0107791424,
254.163,-3.3225915432,1.3868787289,29.0087947845,0.0627774596,0.0354797840,0.0122286081,-113.8140029907,72.7204742432,79.9797363281,0.0256677866,0.0577387214,0.0143476129,-12.3395471573,84.3164443970,-164.6950378418,0.0248692036,0.0196786076,0.0266060829,42.6160469055,43.4644851685,162.1584930420,0.0682759285,-0.0100870430,-0.0034729242,
254.173,-3.3202850819,1.3888407946,29.0104236603,0.0598820038,0.0417872146,0.0097860098,-113.7915649414,72.7096405029,80.0052261353,0.0319592953,0.0535554290,0.0216376781,-12.3212709427,84.3179702759,-164.6697235107,0.0209655762,0.0269657522,0.0241832137,42.6131706238,43.4636001587,162.1619567871,0.0653350353,-0.0081144571,0.0062591434,
254.183,-3.3225569725,1.3891946077,29.0115547180,0.0589116141,0.0408502184,0.0083231926,-113.7567520142,72.7038879395,80.0406417847,0.0260700583,0.0576221347,0.0224869251,-12.3153285980,84.3178634644,-164.6554107666,0.0234068036,0.0220730305,0.0241793394,42.6149826050,43.4637031555,162.1688079834,0.0648480654,-0.0115482807,-0.0054421425,
254.193,-3.3223547935,1.3900122643,29.0108242035,0.0589258820,0.0432880819,0.0044173598,-113.7178268433,72.7039260864,80.0803527832,0.0250936747,0.0611216426,0.0174183249,-12.3228416443,84.3181762695,-164.6564941406,0.0253604650,0.0255028605,0.0256521106,42.6160850525,43.4626884460,162.1746826172,0.0702062845,-0.0081490874,0.0028581023,
254.203,-3.3233053684,1.3905502558,29.0124740601,0.0628415197,0.0389100984,0.0127192736,-113.6799545288,72.7064743042,80.1191940308,0.0251069069,0.0611615479,0.0138028860,-12.3325529099,84.3182067871,-164.6590118408,0.0199894309,0.0206366181,0.0207738280,42.6172180176,43.4630203247,162.1826629639,0.0667924881,-0.0105982125,0.0014069676,
254.213,-3.3233861923,1.3908271790,29.0141773224,0.0618697852,0.0418411866,0.0200437903,-113.6541671753,72.7148742676,80.1492080688,0.0231973529,0.0679234862,0.0175301433,-12.3475837708,84.3181762695,-164.6662902832,0.0224307775,0.0231043249,0.0227307081,42.6167716980,43.4645996094,162.1886444092,0.0590000153,-0.0110696554,0.0023928285,
254.223,-3.3238601685,1.3903595209,29.0153179169,0.0618616268,0.0428260118,0.0102779865,-113.6505126953,72.7162017822,80.1602172852,0.0358995199,0.0586336255,0.0018787980,-12.3575782776,84.3171691895,-164.6674041748,0.0209642053,0.0245900601,0.0305303335,42.6215476990,43.4643211365,162.1987609863,0.0648558736,-0.0076983273,-0.0058689713,
254.233,-3.3222136497,1.3884724379,29.0165576935,0.0623169839,0.0481684729,0.0039281845,-113.6734390259,72.7131195068,80.1475753784,0.0329538584,0.0600975156,0.0049383640,-12.3515491486,84.3168334961,-164.6507720947,0.0243815780,0.0289754122,0.0271045566,42.6256370544,43.4644660950,162.2092437744,0.0663225651,-0.0062704980,-0.0063208938,
254.243,-3.3220419884,1.3895218372,29.0169601440,0.0647766963,0.0452357642,0.0044168234,-113.7200241089,72.7056121826,80.1135940552,0.0343797803,0.0532786250,-0.0084612966,-12.3434419632,84.3165893555,-164.6307678223,0.0234045982,0.0260325223,0.0270979404,42.6221046448,43.4668693542,162.2133941650,0.0614702106,-0.0145187378,-0.0014472008,
254.253,-3.3224122524,1.3886373043,29.0163021088,0.0628081411,0.0476836488,0.0063698292,-113.7705230713,72.6917877197,80.0746231079,0.0338197351,0.0480121672,-0.0008038282,-12.3447780609,84.3176879883,-164.6206970215,0.0253596306,0.0235893577,0.0217459798,42.6232948303,43.4661216736,162.2211303711,0.0687849522,-0.0091648996,0.0014854670,
254.263,-3.3226196766,1.3891310692,29.0174465179,0.0584222227,0.0437810011,0.0083234310,-113.8254470825,72.6797714233,80.0279006958,0.0283862352,0.0514973402,0.0000268817,-12.3212175369,84.3166580200,-164.5887145996,0.0263344049,0.0211110711,0.0261143446,42.6182556152,43.4653816223,162.2239532471,0.0707287192,-0.0203543305,0.0082721710,
254.273,-3.3223981857,1.3897871971,29.0192050934,0.0579453930,0.0452419631,0.0073469877,-113.8539962769,72.6745300293,79.9999465942,0.0259175897,0.0559116006,0.0163115263,-12.3114967346,84.3183822632,-164.5713500977,0.0229194164,0.0264593214,0.0207672119,42.6201248169,43.4670143127,162.2329864502,0.0639134049,-0.0101046562,-0.0063458681,
254.283,-3.3226947784,1.3896570206,29.0203647614,0.0584314018,0.0413408875,0.0073468685,-113.8681869507,72.6791763306,79.9820251465,0.0254534483,0.0616703629,0.0183010697,-12.3096246719,84.3198928833,-164.5623626709,0.0224337578,0.0235208124,0.0227452517,42.6162261963,43.4658775330,162.2363891602,0.0692701340,-0.0134954751,0.0067942142,
254.293,-3.3233780861,1.3880065680,29.0221519470,0.0618205741,0.0398879834,0.0097888708,-113.8749465942,72.6894760132,79.9693069458,0.0255069733,0.0624764562,0.0119164586,-12.2893867493,84.3194503784,-164.5356140137,0.0214564204,0.0239756107,0.0241962671,42.6173248291,43.4640617371,162.2431335449,0.0731533766,-0.0086376667,-0.0020014048,
254.303,-3.3259503841,1.3858747482,29.0227050781,0.0652013421,0.0399328470,0.0044186115,-113.8611907959,72.7061157227,79.9784622192,0.0221753716,0.0642052591,0.0156453252,-12.2867383957,84.3194198608,-164.5264892578,0.0253626108,0.0244598091,0.0237042904,42.6154556274,43.4635086060,162.2470550537,0.0711932778,-0.0125309825,0.0048136115,
254.313,-3.3258500099,1.3867443800,29.0244197845,0.0593571402,0.0448138863,0.0078376532,-113.8330688477,72.7187957764,80.0075302124,0.0285887718,0.0596770942,0.0168910623,-12.2877883911,84.3174133301,-164.5205688477,0.0248708725,0.0283748507,0.0251378417,42.6203536987,43.4668312073,162.2550048828,0.0643994212,-0.0130379498,-0.0102517605,
254.323,-3.3278841972,1.3870587349,29.0254993439,0.0613157526,0.0394782200,0.0117455721,-113.8299713135,72.7251052856,80.0199737549,0.0300863385,0.0532404780,-0.0012324452,-12.2812671661,84.3192443848,-164.5039978027,0.0263388753,0.0283570141,0.0197944641,42.6214218140,43.4671745300,162.2625885010,0.0663568974,-0.0115802288,-0.0092629790,
254.333,-3.3244764805,1.3883486986,29.0272750854,0.0559671670,0.0477196053,0.0151608586,-113.8261184692,72.7243728638,80.0383605957,0.0237348676,0.0547238588,0.0046135783,-12.2819280624,84.3204193115,-164.4952087402,0.0229229331,0.0273773670,0.0217672586,42.6189422607,43.4674568176,162.2681579590,0.0624542236,-0.0135079622,-0.0009810328,
254.343,-3.3241217136,1.3857523203,29.0302925110,0.0651992112,0.0413658358,0.0049057007,-113.8371887207,72.7177963257,80.0432434082,0.0280953050,0.0533363819,0.0032454133,-12.2962379456,84.3183822632,-164.4987335205,0.0224311352,0.0230149031,0.0251567364,42.6222572327,43.4661712646,162.2763519287,0.0653676391,-0.0067133904,-0.0038935542,
254.353,-3.3245110512,1.3828538656,29.0302963257,0.0636837929,0.0389312841,0.0097873211,-113.8420257568,72.7027282715,80.0553283691,0.0285054445,0.0428127646,0.0111821890,-12.3362474442,84.3212432861,-164.5291442871,0.0248774886,0.0216085166,0.0213139057,42.6233558655,43.4663124084,162.2851409912,0.0590217113,-0.0140467584,-0.0024181604,
254.363,-3.3234086037,1.3825198412,29.0326633453,0.0612365603,0.0462363064,-0.0009559989,-113.8675079346,72.6862411499,80.0429840088,0.0293964148,0.0508223772,0.0031135678,-12.3588180542,84.3252868652,-164.5421447754,0.0190250874,0.0240744650,0.0199230313,42.6238861084,43.4642829895,162.2932891846,0.0629022717,-0.0174861550,-0.0053613782,
254.373,-3.3217899799,1.3811504841,29.0326156616,0.0646306351,0.0481612720,0.0063660145,-113.8957901001,72.6711730957,80.0234985352,0.0322477818,0.0568512678,0.0028614998,-12.4031181335,84.3262481689,-164.5762634277,0.0209798813,0.0231706947,0.0194676518,42.6219024658,43.4620628357,162.2987976074,0.0687335134,-0.0130911767,-0.0000268817,
254.383,-3.3212692738,1.3805174828,29.0330867767,0.0646195859,0.0398514345,0.0141776800,-113.9351272583,72.6644287109,79.9899215698,0.0361189842,0.0685894191,0.0079773664,-12.4138002396,84.3214569092,-164.5792083740,0.0258544087,0.0212534070,0.0315995812,42.6165695190,43.4617462158,162.3006439209,0.0672646761,-0.0218330622,-0.0000753403,
254.393,-3.3227288723,1.3799663782,29.0354118347,0.0621685684,0.0393885896,0.0039252043,-113.9781799316,72.6576385498,79.9517898560,0.0341305137,0.0573711395,0.0033457279,-12.4094676971,84.3202819824,-164.5664062500,0.0219461322,0.0207619369,0.0193715096,42.6161041260,43.4616889954,162.3048248291,0.0716584921,-0.0140166879,-0.0010563731,
254.403,-3.3200333118,1.3801286221,29.0372028351,0.0597299933,0.0495955423,0.0088053346,-114.0324249268,72.6579895020,79.8973846436,0.0302261114,0.0626211762,0.0060434341,-12.3750972748,84.3181762695,-164.5261230469,0.0263370275,0.0231516808,0.0217652917,42.6095924377,43.4626960754,162.3056488037,0.0667884350,-0.0134594440,0.0042678714,
254.413,-3.3201975822,1.3803169727,29.0371398926,0.0592449978,0.0461804345,0.0083172917,-114.0823135376,72.6667861938,79.8452072144,0.0249007940,0.0677534044,0.0150106549,-12.3201389313,84.3152465820,-164.4642333984,0.0273085237,0.0299033523,0.0280438662,42.6095237732,43.4646606445,162.3100433350,0.0726726651,-0.0061186552,-0.0064576864,
254.423,-3.3210279942,1.3809077740,29.0388545990,0.0602318682,0.0437534750,0.0049003363,-114.1317138672,72.6813583374,79.7921905518,0.0225350857,0.0625447631,0.0136820674,-12.2519559860,84.3143081665,-164.3908538818,0.0214475393,0.0268594623,0.0275135040,42.6095466614,43.4674224854,162.3143463135,0.0678248405,-0.0109792352,0.0038207769,
254.433,-3.3211297989,1.3825476170,29.0411186218,0.0587956347,0.0398489572,0.0039245486,-114.1640090942,72.6993560791,79.7580032349,0.0192105770,0.0646445155,0.0190843940,-12.2157974243,84.3141021729,-164.3482360840,0.0229120255,0.0253329128,0.0245668292,42.6089630127,43.4713897705,162.3192138672,0.0634806156,-0.0133829713,-0.0044499636,
254.443,-3.3225071430,1.3843588829,29.0427455902,0.0602920875,0.0418260284,0.0063682795,-114.1891555786,72.7160491943,79.7345123291,0.0178323388,0.0599433184,0.0166487694,-12.1864252090,84.3122787476,-164.3106536865,0.0224205852,0.0267532468,0.0313633084,42.6092109680,43.4756050110,162.3260040283,0.0606043339,-0.0099330544,-0.0014808178,
254.453,-3.3211584091,1.3869959116,29.0450763702,0.0554552823,0.0491266847,0.0083208084,-114.2100448608,72.7259368896,79.7187194824,0.0232546926,0.0534015298,0.0127743483,-12.1627721786,84.3105163574,-164.2768249512,0.0214409828,0.0233010054,0.0274171829,42.6074295044,43.4764518738,162.3305358887,0.0718454719,-0.0162572265,-0.0053948164,
254.463,-3.3229227066,1.3869426250,29.0462207794,0.0583840385,0.0403683595,0.0141822100,-114.2319183350,72.7221527100,79.6982345581,0.0334889889,0.0446231961,-0.0012562275,-12.1492586136,84.3078002930,-164.2545166016,0.0282722116,0.0271933079,0.0302984715,42.6025657654,43.4762153625,162.3337554932,0.0679362416,-0.0098660886,0.0082332492,
254.473,-3.3236126900,1.3846149445,29.0461807251,0.0637145191,0.0379390307,0.0068576336,-114.2531814575,72.7198333740,79.6725540161,0.0237113237,0.0426599681,-0.0011395216,-12.1413135529,84.3078689575,-164.2355957031,0.0204598308,0.0174139589,0.0224826932,42.5996627808,43.4772872925,162.3382110596,0.0669732094,-0.0103186369,0.0043116212,
254.483,-3.3219738007,1.3854324818,29.0479297638,0.0573811308,0.0437698327,0.0073445439,-114.2687835693,72.7158966064,79.6498565674,0.0178315639,0.0456152260,0.0116565824,-12.1285486221,84.3096923828,-164.2152404785,0.0175333023,0.0276391953,0.0273915529,42.5988883972,43.4770774841,162.3460540771,0.0645291805,-0.0103130937,0.0057679415,
254.493,-3.3202078342,1.3846848011,29.0472259521,0.0642040223,0.0466687866,-0.0004698634,-114.2731399536,72.7124176025,79.6361236572,0.0231845975,0.0549366772,0.0126776099,-12.1662616730,84.3129348755,-164.2469635010,0.0170506239,0.0213449299,0.0167182684,42.6016006470,43.4772605896,162.3544158936,0.0650197864,-0.0108251572,-0.0034843683,
254.503,-3.3224828243,1.3820194006,29.0459003448,0.0690403283,0.0388959758,0.0092968941,-114.2652664185,72.7123565674,79.6342926025,0.0226960182,0.0564191937,0.0160586238,-12.2025632858,84.3132400513,-164.2755279541,0.0243753791,0.0223834068,0.0240594745,42.6052474976,43.4749984741,162.3631896973,0.0615732074,-0.0050182343,-0.0015205145,
254.513,-3.3229205608,1.3825967312,29.0475902557,0.0602613389,0.0408567116,0.0044148564,-114.2483520508,72.7178421021,79.6448059082,0.0271189809,0.0632081628,0.0232651830,-12.2398557663,84.3133773804,-164.3038635254,0.0185162425,0.0224471986,0.0270064473,42.6098327637,43.4707183838,162.3724975586,0.0722611547,-0.0050956607,-0.0015181303,
254.523,-3.3226952553,1.3841402531,29.0474243164,0.0583351441,0.0413410328,-0.0048621297,-114.2460021973,72.7262344360,79.6467742920,0.0310687423,0.0684569478,0.0070834160,-12.2952375412,84.3132095337,-164.3520660400,0.0248636007,0.0196139216,0.0260469913,42.6129493713,43.4660911560,162.3808135986,0.0736673474,-0.0105336308,-0.0020215511,
254.533,-3.3223216534,1.3845529556,29.0484313965,0.0651782826,0.0393813886,0.0092977881,-114.2445907593,72.7361145020,79.6582489014,0.0320965052,0.0692866445,0.0118920207,-12.3333492279,84.3105163574,-164.3830871582,0.0268120766,0.0216424167,0.0328536630,42.6125450134,43.4614601135,162.3869476318,0.0706790090,-0.0139852762,-0.0006002188,
254.543,-3.3219439983,1.3845350742,29.0483894348,0.0578537509,0.0437693410,0.0092974305,-114.2594680786,72.7479553223,79.6551208496,0.0316694975,0.0646806955,0.0030927062,-12.3741750717,84.3121795654,-164.4137268066,0.0263266563,0.0226836354,0.0211769342,42.6125221252,43.4591293335,162.3962249756,0.0721143484,-0.0144923925,-0.0055047274,
254.553,-3.3232791424,1.3831412792,29.0489253998,0.0646653697,0.0442809090,0.0019740462,-114.2752990723,72.7609786987,79.6517639160,0.0292955041,0.0615200698,0.0084496737,-12.3895959854,84.3154525757,-164.4201660156,0.0287737250,0.0236749798,0.0173305273,42.6132125854,43.4587364197,162.4042510986,0.0667382479,-0.0140136182,0.0008465052,
254.563,-3.3215925694,1.3848514557,29.0500812531,0.0539530218,0.0462046191,0.0009965897,-114.2901306152,72.7763214111,79.6476821899,0.0254685879,0.0597908795,0.0128095150,-12.3903121948,84.3128967285,-164.4113464355,0.0219333768,0.0227086693,0.0275437832,42.6124496460,43.4608039856,162.4102020264,0.0657879114,-0.0120366812,-0.0050020218,
254.573,-3.3224847317,1.3866890669,29.0498695374,0.0598444566,0.0393841751,0.0068575144,-114.3190994263,72.7906951904,79.6268005371,0.0284725428,0.0580472350,0.0065003633,-12.3839035034,84.3154525757,-164.3977508545,0.0214495063,0.0236650705,0.0158640742,42.6144752502,43.4593086243,162.4181213379,0.0735814571,-0.0071848035,-0.0093919039,
254.583,-3.3219332695,1.3862562180,29.0498008728,0.0617900342,0.0442573912,0.0185751915,-114.3536529541,72.8060379028,79.5998001099,0.0300165415,0.0640888810,0.0046051145,-12.3903865814,84.3151397705,-164.3957977295,0.0194958448,0.0197713226,0.0246493220,42.6126098633,43.4590263367,162.4235076904,0.0711364746,-0.0066814423,-0.0025746822,
254.593,-3.3214514256,1.3841470480,29.0510196686,0.0632180721,0.0462021790,0.0073440075,-114.3934631348,72.8209304810,79.5703048706,0.0310699344,0.0618249774,0.0125031471,-12.3759069443,84.3152465820,-164.3711853027,0.0214491487,0.0236521512,0.0265989900,42.6144790649,43.4609146118,162.4304199219,0.0672541857,-0.0101015270,-0.0079131722,
254.603,-3.3205997944,1.3847569227,29.0534000397,0.0583459064,0.0452107601,0.0107609630,-114.4550704956,72.8326950073,79.5213165283,0.0257594585,0.0590737760,0.0019702315,-12.3442134857,84.3148651123,-164.3305511475,0.0238898993,0.0245751143,0.0246290565,42.6158180237,43.4633865356,162.4356231689,0.0609377623,-0.0056994557,-0.0034853816,
254.613,-3.3193092346,1.3834387064,29.0545749664,0.0627174377,0.0447000377,0.0107592940,-114.5281143188,72.8427581787,79.4610595703,0.0292292833,0.0592537522,0.0022442937,-12.3115139008,84.3145217896,-164.2902221680,0.0282838345,0.0264732838,0.0265626311,42.6151924133,43.4659423828,162.4411163330,0.0653647184,-0.0144618154,-0.0024913549,
254.623,-3.3199427128,1.3834884167,29.0569038391,0.0602768958,0.0378751345,0.0097829103,-114.6058654785,72.8536148071,79.3955612183,0.0327031016,0.0584346950,0.0054641366,-12.2581338882,84.3109359741,-164.2274780273,0.0258362293,0.0298117846,0.0323437452,42.6178398132,43.4659080505,162.4496307373,0.0663408041,-0.0047211945,-0.0039339662,
254.633,-3.3201601505,1.3833787441,29.0579967499,0.0627163872,0.0437382944,0.0092954636,-114.6685256958,72.8692626953,79.3392944336,0.0288773179,0.0580632389,0.0227393508,-12.2195863724,84.3054199219,-164.1805572510,0.0194790363,0.0209759027,0.0322378874,42.6183319092,43.4687042236,162.4562530518,0.0614934564,-0.0154452324,-0.0058579445,
254.643,-3.3202710152,1.3855227232,29.0584373474,0.0568944216,0.0398339294,0.0112490654,-114.7264633179,72.8859100342,79.2868957520,0.0304276943,0.0576875508,0.0131295919,-12.1766462326,84.3063507080,-164.1280975342,0.0253400207,0.0252929032,0.0234476924,42.6165504456,43.4682960510,162.4609222412,0.0683242083,-0.0090842843,-0.0009942055,
254.653,-3.3195374012,1.3827381134,29.0589733124,0.0680763051,0.0383563712,0.0185713768,-114.7809371948,72.9044113159,79.2352905273,0.0275930166,0.0563139617,0.0078844428,-12.1346683502,84.3036346436,-164.0778350830,0.0219173431,0.0262064636,0.0228990316,42.6122779846,43.4709205627,162.4642333984,0.0698223114,-0.0207418799,-0.0073553324,
254.663,-3.3200640678,1.3851581812,29.0612316132,0.0583529063,0.0447131433,0.0083192587,-114.8100509644,72.9270477295,79.2093734741,0.0213614106,0.0588392913,0.0200694799,-12.0871362686,84.3009490967,-164.0202026367,0.0253306627,0.0266220868,0.0272310376,42.6117630005,43.4744377136,162.4713592529,0.0679137707,-0.0124077201,-0.0058638453,
254.673,-3.3204638958,1.3858391047,29.0629901886,0.0578765012,0.0452083685,0.0078316331,-114.8354339600,72.9516754150,79.1886062622,0.0175812840,0.0642716289,0.0146447420,-12.0489978790,84.2996826172,-163.9719696045,0.0263050199,0.0265603513,0.0257319212,42.6088676453,43.4749069214,162.4755554199,0.0679196715,-0.0157949328,-0.0029548407,
254.683,-3.3207647800,1.3830469847,29.0641880035,0.0636871606,0.0369129032,0.0132018328,-114.8533401489,72.9747695923,79.1760940552,0.0211173296,0.0565604568,0.0140784979,-12.0195636749,84.2965545654,-163.9336853027,0.0243464708,0.0260322988,0.0295743942,42.6126632690,43.4738998413,162.4848022461,0.0693717599,-0.0080260038,-0.0078139305,
254.693,-3.3209059238,1.3829129934,29.0640182495,0.0646613836,0.0398450457,0.0083190799,-114.8629837036,72.9952850342,79.1730499268,0.0290346146,0.0547652543,0.0115382671,-12.0144176483,84.2970352173,-163.9184570313,0.0223941803,0.0269981772,0.0203033686,42.6148300171,43.4739570618,162.4924926758,0.0635131001,-0.0080456734,0.0000177622,
254.703,-3.3201622963,1.3809881210,29.0663661957,0.0670692027,0.0427618288,0.0063644648,-114.8730087280,73.0140609741,79.1717758179,0.0271772742,0.0608079135,0.0104768872,-12.0102157593,84.2974777222,-163.9047546387,0.0214183927,0.0265007466,0.0222640634,42.6174278259,43.4720764160,162.5007019043,0.0742315054,-0.0085734427,-0.0092537999,
254.713,-3.3198566437,1.3812422752,29.0674972534,0.0592611432,0.0412916578,0.0083170533,-114.9085845947,73.0261459351,79.1564331055,0.0350513458,0.0625021160,-0.0026263595,-12.0313711166,84.2993011475,-163.9149627686,0.0214215517,0.0192068964,0.0164419413,42.6157112122,43.4700813293,162.5063323975,0.0746944547,-0.0119917393,-0.0000095963,
254.723,-3.3194313049,1.3804857731,29.0674667358,0.0602245033,0.0461670719,0.0029454231,-114.9260787964,73.0314254761,79.1611328125,0.0350782871,0.0496890843,0.0145076513,-12.0078086853,84.2950439453,-163.8800354004,0.0297149420,0.0240641683,0.0261268020,42.6149139404,43.4724044800,162.5120086670,0.0752121806,-0.0119653344,-0.0102488995,
254.733,-3.3193008900,1.3799260855,29.0693168640,0.0558202080,0.0427468531,0.0088045001,-114.9429397583,73.0297470093,79.1654205322,0.0287220478,0.0477252603,0.0116679072,-11.9549560547,84.2924346924,-163.8159027100,0.0223861933,0.0269113481,0.0319235325,42.6137809753,43.4722938538,162.5201721191,0.0776522160,-0.0109790862,-0.0034242868,
254.743,-3.3165791035,1.3802694082,29.0729713440,0.0572910458,0.0495353714,0.0078253746,-114.9659271240,73.0231323242,79.1540527344,0.0291766524,0.0433810949,0.0049850941,-11.9327049255,84.2942123413,-163.7846221924,0.0160416365,0.0229598582,0.0197399259,42.6122550964,43.4744949341,162.5261993408,0.0654730201,-0.0119234920,0.0004892349,
254.753,-3.3166022301,1.3814704418,29.0747413635,0.0558471531,0.0466060564,0.0009899735,-114.9799880981,73.0130767822,79.1422958374,0.0271722674,0.0386202037,0.0056090951,-11.9214696884,84.2946624756,-163.7626342773,0.0228783488,0.0229391456,0.0275536180,42.6098060608,43.4750480652,162.5310974121,0.0693863034,-0.0182439685,0.0029134750,
254.763,-3.3187317848,1.3820865154,29.0763702393,0.0646469593,0.0412720367,0.0107580423,-114.9941101074,73.0012741089,79.1228561401,0.0271120667,0.0451148450,0.0067341328,-11.9176177979,84.2952117920,-163.7504425049,0.0204378963,0.0239070654,0.0221905112,42.6121406555,43.4735031128,162.5375213623,0.0683901310,-0.0036298037,0.0019437075,
254.773,-3.3186631203,1.3831875324,29.0780639648,0.0607599244,0.0446887836,0.0097814202,-115.0021438599,72.9909591675,79.1080245972,0.0295007825,0.0545305312,0.0175862312,-11.9247999191,84.2935638428,-163.7504882813,0.0258061290,0.0224601328,0.0275387764,42.6123809814,43.4734916687,162.5431671143,0.0664369464,-0.0094914734,-0.0063550472,
254.783,-3.3181974888,1.3822532892,29.0798625946,0.0612319037,0.0461455435,0.0034332871,-115.0040817261,72.9764251709,79.1001663208,0.0294265747,0.0532805622,0.0093966722,-11.9289064407,84.2944564819,-163.7481689453,0.0228779912,0.0249058604,0.0246235132,42.6119499207,43.4751548767,162.5493164063,0.0732938647,-0.0128919482,-0.0073207617,
254.793,-3.3182415962,1.3812983036,29.0797405243,0.0656097755,0.0422400832,0.0136867166,-115.0040435791,72.9626770020,79.0953826904,0.0225203633,0.0549529195,0.0060752034,-11.9437723160,84.2937393188,-163.7546539307,0.0228767395,0.0229807496,0.0202241540,42.6131057739,43.4796943665,162.5558166504,0.0650506020,-0.0123775303,-0.0116652250,
254.803,-3.3172805309,1.3824579716,29.0808773041,0.0558643863,0.0436881557,0.0009912252,-114.9870071411,72.9526672363,79.1062774658,0.0283285379,0.0590470433,0.0182732940,-11.9512472153,84.2940444946,-163.7544708252,0.0184827447,0.0259224474,0.0246259570,42.6156654358,43.4810409546,162.5621795654,0.0655559301,-0.0084842443,-0.0091900229,
254.813,-3.3172640800,1.3807121515,29.0832691193,0.0646229833,0.0422230735,0.0146619081,-114.9758987427,72.9455413818,79.1128997803,0.0248740911,0.0669910312,0.0138772130,-11.9232349396,84.2921905518,-163.7190093994,0.0238506198,0.0322283208,0.0275127292,42.6122894287,43.4818534851,162.5650024414,0.0675193667,-0.0143054724,-0.0004227161,
254.823,-3.3163621426,1.3814215660,29.0848903656,0.0641470850,0.0412307717,0.0063608289,-114.9736862183,72.9432678223,79.1164093018,0.0238859057,0.0684948564,0.0094882846,-11.9137535095,84.2916030884,-163.7037200928,0.0233613253,0.0263541341,0.0275017619,42.6140480042,43.4809722900,162.5713806152,0.0675082207,-0.0113993883,-0.0028568506,
254.833,-3.3148207664,1.3808670044,29.0865745544,0.0641374066,0.0392508209,0.0024527311,-114.9645233154,72.9405059814,79.1304779053,0.0243600607,0.0646499395,0.0143478513,-11.9278135300,84.2934646606,-163.7095031738,0.0233645439,0.0249073952,0.0207006335,42.6157569885,43.4806823730,162.5788879395,0.0679928064,-0.0138590932,-0.0082157850,
254.843,-3.3133893013,1.3802922964,29.0883941650,0.0577797219,0.0431321450,0.0014744997,-114.9575576782,72.9397888184,79.1435394287,0.0233798027,0.0690704286,0.0162735581,-11.9276752472,84.2950439453,-163.7029418945,0.0253204107,0.0268547386,0.0241449475,42.6194000244,43.4780578613,162.5882263184,0.0743072033,-0.0090315938,-0.0033248067,
254.853,-3.3138945103,1.3797833920,29.0907478333,0.0621653758,0.0426526740,0.0078223348,-114.9475708008,72.9355392456,79.1585159302,0.0287291408,0.0584144592,0.0113739967,-11.9422760010,84.2944183350,-163.7091217041,0.0233662128,0.0210227817,0.0221872926,42.6211395264,43.4749946594,162.5960388184,0.0732918382,-0.0046781301,0.0030107498,
254.863,-3.3142659664,1.3802185059,29.0918025970,0.0626612455,0.0411942974,0.0014753938,-114.9479904175,72.9358444214,79.1631393433,0.0282424092,0.0642683506,0.0147919059,-11.9601135254,84.2944869995,-163.7179260254,0.0248311758,0.0205653161,0.0197529793,42.6232414246,43.4774856567,162.6033325195,0.0645343065,-0.0120017231,-0.0057383180,
254.873,-3.3141829967,1.3817007542,29.0923213959,0.0568277352,0.0470521934,0.0034290552,-114.9577636719,72.9386672974,79.1594467163,0.0321630836,0.0681109130,0.0070052147,-11.9541311264,84.2958374023,-163.7042388916,0.0253217816,0.0249447376,0.0212379098,42.6231727600,43.4785537720,162.6096496582,0.0674775839,-0.0119923353,-0.0037762523,
254.883,-3.3154263496,1.3800361156,29.0934906006,0.0641229078,0.0421910770,0.0156366229,-114.9657516479,72.9446868896,79.1550750732,0.0297525525,0.0631197989,0.0128593445,-11.9674377441,84.2976837158,-163.7091522217,0.0258132815,0.0210550874,0.0202968121,42.6203384399,43.4788284302,162.6130371094,0.0694341660,-0.0153818130,0.0015724301,
254.893,-3.3171169758,1.3818756342,29.0938796997,0.0597604737,0.0388025120,0.0009906888,-114.9709014893,72.9511947632,79.1533813477,0.0234382153,0.0620338619,0.0152790546,-11.9507188797,84.2961730957,-163.6830749512,0.0248340964,0.0293321162,0.0314964056,42.6171073914,43.4774932861,162.6168975830,0.0708821416,-0.0129208565,0.0049518347,
254.903,-3.3162519932,1.3831766844,29.0949783325,0.0597831756,0.0475764722,0.0053848028,-114.9739227295,72.9531402588,79.1552658081,0.0268661380,0.0576035082,0.0123497248,-11.9554672241,84.2973785400,-163.6770935059,0.0243479013,0.0264064372,0.0212641954,42.6183547974,43.4795570374,162.6237335205,0.0640723109,-0.0143808424,-0.0086922050,
254.913,-3.3162679672,1.3817819357,29.0962123871,0.0607354045,0.0466002226,0.0078257322,-114.9797973633,72.9548950195,79.1541595459,0.0263867974,0.0560993552,0.0113881826,-11.9556598663,84.2949066162,-163.6689605713,0.0199490786,0.0225093961,0.0300113559,42.6191329956,43.4791793823,162.6317291260,0.0689502954,-0.0099964738,-0.0038051605,
254.923,-3.3158540726,1.3851026297,29.0966968536,0.0505394377,0.0417101271,0.0083150268,-114.9918670654,72.9548950195,79.1490402222,0.0263867974,0.0565616190,0.0050967336,-11.9590082169,84.2927017212,-163.6633758545,0.0292226076,0.0239874423,0.0250951052,42.6175537109,43.4800300598,162.6356811523,0.0679845214,-0.0177875161,-0.0067419410,
254.933,-3.3152327538,1.3860037327,29.0971374512,0.0632504672,0.0446289666,0.0068495274,-114.9952011108,72.9517211914,79.1506500244,0.0239291787,0.0517192483,0.0085524321,-11.9355373383,84.2916717529,-163.6305389404,0.0228731632,0.0298100263,0.0226261616,42.6169204712,43.4781227112,162.6414794922,0.0694252253,-0.0080313087,-0.0023688078,
254.943,-3.3146533966,1.3853211403,29.0977134705,0.0603088737,0.0465720147,0.0092906952,-114.9973068237,72.9471664429,79.1540374756,0.0336714983,0.0552011132,0.0115240216,-11.9536914825,84.2931823730,-163.6396331787,0.0248289108,0.0215350986,0.0187535882,42.6171913147,43.4768753052,162.6483917236,0.0723391175,-0.0124386251,-0.0038428307,
254.953,-3.3126144409,1.3862615824,29.1000576019,0.0593487248,0.0450716317,0.0112415552,-115.0054092407,72.9402542114,79.1516876221,0.0282649994,0.0552885830,0.0062391758,-11.9421977997,84.2934951782,-163.6196899414,0.0248294473,0.0200494677,0.0211945176,42.6146507263,43.4779167175,162.6542053223,0.0650281310,-0.0143595338,-0.0004371405,
254.963,-3.3098735809,1.3836109638,29.1018867493,0.0651618466,0.0455122292,0.0053786635,-115.0134811401,72.9319229126,79.1464843750,0.0262691975,0.0539313555,0.0078004003,-11.9242582321,84.2906417847,-163.5928039551,0.0238479376,0.0224693716,0.0294433832,42.6154937744,43.4780807495,162.6611633301,0.0689364672,-0.0114363432,-0.0062879324,
254.973,-3.3087420464,1.3853288889,29.1029567719,0.0583558828,0.0420745090,0.0063544512,-115.0211563110,72.9214172363,79.1398086548,0.0306099057,0.0550500154,0.0015623569,-11.9244642258,84.2931823730,-163.5847167969,0.0228757858,0.0258792043,0.0197178721,42.6135177612,43.4803543091,162.6644287109,0.0587112904,-0.0143291354,0.0005511045,
254.983,-3.3087298870,1.3848739862,29.1046390533,0.0661604479,0.0445157178,0.0083076358,-115.0323028564,72.9132461548,79.1279449463,0.0237320662,0.0546601415,0.0036249757,-11.8886756897,84.2920150757,-163.5413665771,0.0243386030,0.0292388350,0.0314059258,42.6149940491,43.4815216064,162.6709899902,0.0670268536,-0.0114036798,-0.0043084621,
254.993,-3.3077790737,1.3841570616,29.1070003510,0.0627299696,0.0435226113,0.0034235716,-115.0343246460,72.9047012329,79.1269912720,0.0266179442,0.0577148497,0.0134600401,-11.9028978348,84.2941818237,-163.5479125977,0.0282486081,0.0248614699,0.0167982578,42.6185569763,43.4808235168,162.6790008545,0.0704360008,-0.0070481598,-0.0067260265,
255.003,-3.3077905178,1.3836822510,29.1087589264,0.0617451221,0.0444993824,0.0029349923,-115.0415267944,72.8989715576,79.1202545166,0.0212174654,0.0616907179,0.0096278191,-11.8998126984,84.2937698364,-163.5383758545,0.0228767991,0.0243696421,0.0294834971,42.6191558838,43.4799575806,162.6855010986,0.0718898773,-0.0085255504,-0.0037983656,
255.013,-3.3075268269,1.3853243589,29.1085777283,0.0603089295,0.0435181931,0.0004942417,-115.0607986450,72.8959808350,79.1019287109,0.0251083374,0.0651137829,0.0029026866,-11.8878526688,84.2952804565,-163.5211791992,0.0311802030,0.0262962729,0.0197412372,42.6181831360,43.4795341492,162.6894683838,0.0665134192,-0.0124261975,-0.0008809566,
255.023,-3.3082683086,1.3833997250,29.1097927094,0.0627167523,0.0440194272,0.0112363100,-115.0757980347,72.8948211670,79.0897598267,0.0202195644,0.0611910522,0.0068874359,-11.8780212402,84.2966537476,-163.5048675537,0.0223935246,0.0257864445,0.0178055167,42.6207351685,43.4821205139,162.6978759766,0.0641047359,-0.0119407177,0.0006285906,
255.033,-3.3064315319,1.3835090399,29.1120986938,0.0622303784,0.0400811881,0.0102580190,-115.0870590210,72.8959274292,79.0828704834,0.0304791331,0.0616383553,0.0162095428,-11.8884487152,84.2964477539,-163.5067443848,0.0258111358,0.0165277272,0.0207366347,42.6168136597,43.4849967957,162.7024841309,0.0626763105,-0.0157869756,-0.0023090243,
255.043,-3.3090591431,1.3840674162,29.1131839752,0.0602869950,0.0396386608,0.0068427920,-115.1131362915,72.8959808350,79.0627136230,0.0343856812,0.0630449653,0.0051001906,-11.8826265335,84.2951812744,-163.4930877686,0.0277620554,0.0189635009,0.0295023322,42.6187782288,43.4866027832,162.7100830078,0.0680677891,-0.0109094679,-0.0061848760,
255.053,-3.3067510128,1.3853408098,29.1136932373,0.0578678101,0.0439929515,0.0131883621,-115.1528015137,72.8958969116,79.0317077637,0.0343852639,0.0629597306,0.0033326149,-11.8449220657,84.2941131592,-163.4477233887,0.0262953639,0.0257376879,0.0270296335,42.6159133911,43.4906883240,162.7132568359,0.0612835884,-0.0196384788,-0.0081256032,
255.063,-3.3059079647,1.3861743212,29.1142253876,0.0569057912,0.0454430915,0.0019581318,-115.2072296143,72.8930130005,78.9888992310,0.0329055786,0.0653258562,-0.0012758970,-11.8050975800,84.2935638428,-163.3989868164,0.0209233165,0.0251820832,0.0240769982,42.6186027527,43.4936332703,162.7202606201,0.0705982447,-0.0098741651,-0.0085657239,
255.073,-3.3041932583,1.3864858150,29.1135368347,0.0608174801,0.0463897847,0.0078153014,-115.2589035034,72.8902587891,78.9492340088,0.0289852023,0.0593943894,0.0077734590,-11.7646360397,84.2899246216,-163.3526000977,0.0228701234,0.0221950412,0.0279064178,42.6153869629,43.4951171875,162.7220001221,0.0686638951,-0.0083671212,-0.0041846037,
255.083,-3.3030004501,1.3871014118,29.1127738953,0.0618047826,0.0424627364,0.0053730011,-115.3059768677,72.8877639771,78.9114761353,0.0201833248,0.0573753417,0.0109403133,-11.7212152481,84.2870101929,-163.3001251221,0.0204236507,0.0206647366,0.0258895755,42.6109313965,43.4977416992,162.7234497070,0.0726034045,-0.0126989484,-0.0017592907,
255.093,-3.3015885353,1.3873904943,29.1158218384,0.0574152917,0.0492740721,0.0097665787,-115.3490905762,72.8875961304,78.8708267212,0.0221356153,0.0558182001,0.0033297539,-11.6666202545,84.2836456299,-163.2371826172,0.0248123407,0.0239990205,0.0272806883,42.6109466553,43.5002975464,162.7282867432,0.0706825852,-0.0112132430,-0.0022239089,
255.103,-3.3010599613,1.3873641491,29.1151523590,0.0598562397,0.0443820506,0.0078123808,-115.3663253784,72.8891296387,78.8526992798,0.0182372332,0.0567336082,0.0200006962,-11.6373434067,84.2849121094,-163.2013092041,0.0165137649,0.0219906718,0.0199667215,42.6068458557,43.5049362183,162.7318267822,0.0575577021,-0.0145555735,-0.0046603680,
255.113,-3.2988572121,1.3859282732,29.1163749695,0.0608077459,0.0458085574,0.0058571100,-115.3639755249,72.8942413330,78.8559112549,0.0216814280,0.0571504235,0.0263009071,-11.6224613190,84.2842636108,-163.1781768799,0.0204188824,0.0268498361,0.0248333216,42.6077919006,43.5082054138,162.7395782471,0.0595521927,-0.0096547604,-0.0055990815,
255.123,-3.2996978760,1.3865278959,29.1156768799,0.0598416477,0.0438700691,0.0087869167,-115.3608245850,72.8969421387,78.8615341187,0.0207187533,0.0654173791,0.0184543729,-11.6271715164,84.2832336426,-163.1745452881,0.0233467817,0.0219789147,0.0287230015,42.6112594604,43.5103034973,162.7486267090,0.0634850264,-0.0052756071,-0.0075045824,
255.133,-3.2974610329,1.3848663568,29.1175422668,0.0598126575,0.0457842685,0.0126910210,-115.3485183716,72.8995971680,78.8837661743,0.0265917182,0.0634517372,0.0174018145,-11.6286468506,84.2820739746,-163.1653137207,0.0306689739,0.0258916914,0.0262631178,42.6075859070,43.5096740723,162.7515869141,0.0693364143,-0.0164768100,-0.0002165437,
255.143,-3.2971885204,1.3849190474,29.1174983978,0.0573721677,0.0413849875,0.0019480586,-115.3330535889,72.8909530640,78.9172592163,0.0304536223,0.0518969595,0.0159263611,-11.6306123734,84.2831649780,-163.1601715088,0.0238349438,0.0239381939,0.0194463134,42.6055374146,43.5115623474,162.7567291260,0.0678955317,-0.0120479465,-0.0041246414,
255.153,-3.2973129749,1.3850488663,29.1192283630,0.0598158389,0.0418754369,0.0082966685,-115.3191299438,72.8758773804,78.9583969116,0.0269582272,0.0531305671,0.0110860467,-11.6420841217,84.2863845825,-163.1620330811,0.0257936716,0.0229705125,0.0180394053,42.6077079773,43.5129776001,162.7637634277,0.0684016943,-0.0120565891,-0.0075105429,
255.163,-3.2947700024,1.3832944632,29.1198577881,0.0622266382,0.0447608680,0.0175701380,-115.2988586426,72.8554992676,79.0044479370,0.0302714109,0.0500636995,0.0082066059,-11.6684780121,84.2875213623,-163.1794433594,0.0301901698,0.0225241780,0.0190445781,42.6090469360,43.5140876770,162.7718048096,0.0698806047,-0.0125483871,-0.0099315643,
255.173,-3.2922894955,1.3831894398,29.1197891235,0.0602716766,0.0447176546,0.0082905293,-115.2753067017,72.8383789063,79.0472717285,0.0257887244,0.0498852134,0.0116362572,-11.6560430527,84.2912673950,-163.1599426270,0.0272669792,0.0263960361,0.0156839490,42.6076354980,43.5149078369,162.7765808105,0.0679378510,-0.0125284493,-0.0026111603,
255.183,-3.2926738262,1.3846589327,29.1208343506,0.0593207553,0.0388649441,0.0092679858,-115.2473449707,72.8317108154,79.0761337280,0.0252661109,0.0568825901,0.0076466799,-11.6395120621,84.2933959961,-163.1380157471,0.0209230185,0.0219655186,0.0176665187,42.6035194397,43.5147399902,162.7778015137,0.0689122677,-0.0100501776,0.0061400533,
255.193,-3.2939257622,1.3848850727,29.1232757568,0.0554184541,0.0442578420,0.0117108822,-115.2129058838,72.8436660767,79.1014251709,0.0277690887,0.0724036396,0.0191195607,-11.6367034912,84.2962417603,-163.1298370361,0.0209279656,0.0219508857,0.0142948627,42.6024856567,43.5161972046,162.7790222168,0.0674659014,-0.0114934444,0.0041918755,
255.203,-3.2948884964,1.3838124275,29.1238460541,0.0617473945,0.0432980731,0.0112230182,-115.1617507935,72.8715896606,79.1394042969,0.0196119547,0.0769780576,0.0172182322,-11.6216840744,84.2941818237,-163.1119384766,0.0262954831,0.0219320506,0.0264610648,42.5976333618,43.5161933899,162.7785034180,0.0703955293,-0.0134015381,-0.0007335544,
255.213,-3.2952017784,1.3842204809,29.1231060028,0.0602896661,0.0393972695,0.0024344325,-115.1092681885,72.9082031250,79.1853332520,0.0256593227,0.0784949064,0.0250154734,-11.6084032059,84.2896194458,-163.0927886963,0.0174984932,0.0229008943,0.0312646031,42.5961570740,43.5171890259,162.7828826904,0.0723612309,-0.0084967315,0.0002401471,
255.223,-3.2938053608,1.3858904839,29.1242046356,0.0564125553,0.0408377498,0.0073161125,-115.0548324585,72.9413299561,79.2440109253,0.0214345455,0.0678601563,0.0206220746,-11.6078796387,84.2891998291,-163.0833435059,0.0248219967,0.0243663788,0.0268622637,42.5949783325,43.5164833069,162.7874908447,0.0689343214,-0.0084915757,-0.0002652407,
255.233,-3.2922780514,1.3865813017,29.1258983612,0.0598425791,0.0412994064,0.0038976669,-114.9940261841,72.9698562622,79.3261260986,0.0235336423,0.0651205778,0.0250210762,-11.6128892899,84.2860488892,-163.0794525146,0.0213985443,0.0248740762,0.0273003578,42.5920791626,43.5165176392,162.7919158936,0.0660051107,-0.0094406903,-0.0032185316,
255.243,-3.2929122448,1.3845629692,29.1264667511,0.0646901727,0.0403339416,0.0014551282,-114.9266281128,72.9842529297,79.4290542603,0.0275134444,0.0513765216,0.0177707672,-11.6138801575,84.2830276489,-163.0686035156,0.0262761116,0.0273275673,0.0331096649,42.5915603638,43.5141296387,162.7998657227,0.0737873316,-0.0099437833,-0.0032453537,
255.253,-3.2934908867,1.3835821152,29.1271038055,0.0568605587,0.0447385833,0.0029210448,-114.8366775513,72.9807510376,79.5616531372,0.0279838443,0.0423452854,0.0085879564,-11.6485433578,84.2827224731,-163.0894317627,0.0296935439,0.0225060731,0.0277462006,42.5849304199,43.5134277344,162.8049468994,0.0664542913,-0.0113523006,0.0064584017,
255.263,-3.2931108475,1.3807328939,29.1283779144,0.0641350672,0.0457085855,0.0195204020,-114.7217102051,72.9669036865,79.7133407593,0.0288895965,0.0359660685,0.0071725845,-11.6328048706,84.2819366455,-163.0611877441,0.0301804543,0.0263876170,0.0306571126,42.5827026367,43.5150451660,162.8120574951,0.0684278607,-0.0122950673,-0.0023363829,
255.273,-3.2950172424,1.3832927942,29.1287803650,0.0597852021,0.0442768931,0.0126875639,-114.5959777832,72.9569778442,79.8604354858,0.0337216854,0.0476145446,0.0095849037,-11.6634759903,84.2832641602,-163.0828247070,0.0243234038,0.0191123486,0.0253182650,42.5788002014,43.5151977539,162.8170776367,0.0747774243,-0.0117691159,-0.0004149079,
255.283,-3.2940900326,1.3836532831,29.1286849976,0.0607680529,0.0457255766,0.0078042150,-114.4721984863,72.9579925537,79.9915542603,0.0317737460,0.0586051345,0.0080232620,-11.6681795120,84.2858734131,-163.0788726807,0.0223748088,0.0161816925,0.0102277994,42.5740242004,43.5182838440,162.8191833496,0.0655391812,-0.0131644011,-0.0053113103,
255.293,-3.2944324017,1.3821365833,29.1305084229,0.0612298697,0.0432901680,0.0063390732,-114.3589324951,72.9735031128,80.1006851196,0.0333179235,0.0673986971,0.0064107776,-11.6502780914,84.2862472534,-163.0538482666,0.0243285894,0.0239617825,0.0190165043,42.5680503845,43.5213966370,162.8192901611,0.0689965487,-0.0150365233,-0.0004521608,
255.303,-3.2960195541,1.3796608448,29.1304759979,0.0665577650,0.0433178693,0.0112224221,-114.2341461182,73.0055160522,80.2212982178,0.0246922970,0.0725466013,0.0158627629,-11.6198101044,84.2861480713,-163.0175018311,0.0292112231,0.0253740549,0.0229098201,42.5639915466,43.5254936218,162.8213806152,0.0734429359,-0.0105707943,-0.0033801794,
255.313,-3.2960581779,1.3805302382,29.1315517426,0.0592487156,0.0379474387,0.0082926750,-114.0999908447,73.0453948975,80.3572998047,0.0263603330,0.0766165257,0.0281486511,-11.5823631287,84.2866287231,-162.9747467041,0.0257940888,0.0238422304,0.0194876790,42.5618057251,43.5280189514,162.8229370117,0.0685920715,-0.0090650916,-0.0043532252,
255.323,-3.2938311100,1.3791680336,29.1345634460,0.0631311983,0.0457211770,0.0078024268,-113.9543762207,73.0920562744,80.5104598999,0.0217146873,0.0737667680,0.0315486193,-11.5379037857,84.2857742310,-162.9238739014,0.0223746300,0.0257209986,0.0272697806,42.5583457947,43.5308570862,162.8265533447,0.0696044564,-0.0114511549,-0.0053342581,
255.333,-3.2943823338,1.3798418045,29.1332817078,0.0572835803,0.0428010710,0.0078023672,-113.7896041870,73.1409835815,80.6823425293,0.0224509835,0.0635945201,0.0280109644,-11.5201921463,84.2821426392,-162.8985595703,0.0238331556,0.0276557654,0.0281788707,42.5597686768,43.5310058594,162.8336944580,0.0710712671,-0.0065804124,-0.0082503557,
255.343,-3.2952251434,1.3821196556,29.1348743439,0.0612295792,0.0413508601,0.0185471177,-113.5991287231,73.1879043579,80.8788833618,0.0265944004,0.0554544032,0.0199761391,-11.5121212006,84.2837829590,-162.8803558350,0.0257891417,0.0266595185,0.0203911662,42.5575332642,43.5325584412,162.8394927979,0.0623018146,-0.0109414756,-0.0028846264,
255.353,-3.2964847088,1.3810707331,29.1360244751,0.0616995543,0.0379548557,0.0087818503,-113.3791046143,73.2311248779,81.1063232422,0.0375545025,0.0479125679,0.0225742459,-11.5002841949,84.2809677124,-162.8577880859,0.0311553478,0.0251835138,0.0261999965,42.5533790588,43.5346374512,162.8441619873,0.0676992536,-0.0167452097,-0.0097379088,
255.363,-3.2963109016,1.3806798458,29.1365776062,0.0592513308,0.0408815145,0.0082933307,-113.1465225220,73.2591171265,81.3492126465,0.0406250358,0.0381807685,0.0032446980,-11.4647493362,84.2818984985,-162.8109436035,0.0301803946,0.0275599658,0.0159486532,42.5472640991,43.5351715088,162.8468017578,0.0686826110,-0.0054532886,0.0063281655,
255.373,-3.2971873283,1.3813825846,29.1377124786,0.0577987432,0.0413850509,0.0117124319,-112.8878402710,73.2785339355,81.6241226196,0.0368163586,0.0452277958,0.0097301006,-11.4305610657,84.2819671631,-162.7665863037,0.0296922326,0.0240822583,0.0227734447,42.5434494019,43.5379676819,162.8489074707,0.0677413940,-0.0078365207,-0.0058873892,
255.383,-3.2961091995,1.3806544542,29.1376190186,0.0646219775,0.0462491028,0.0087814927,-112.6005935669,73.2947006226,81.9253692627,0.0334795117,0.0401667655,0.0185454488,-11.3941802979,84.2846374512,-162.7204895020,0.0253023505,0.0201038420,0.0213392377,42.5341453552,43.5423774719,162.8484954834,0.0648674965,-0.0145497024,-0.0005558729,
255.393,-3.2949419022,1.3820995092,29.1399593353,0.0573229752,0.0442756116,0.0034094453,-112.2795486450,73.3167114258,82.2492599487,0.0179648995,0.0482555926,0.0286308527,-11.3666419983,84.2828216553,-162.6845245361,0.0174866915,0.0200616717,0.0296019316,42.5304641724,43.5459365845,162.8531646729,0.0634476542,-0.0091155767,0.0038376451,
255.403,-3.2945442200,1.3809143305,29.1412029266,0.0577905737,0.0437804274,0.0058506727,-111.9169235229,73.3448791504,82.5958786011,0.0156645179,0.0460640192,0.0316488743,-11.3801345825,84.2871475220,-162.6896209717,0.0174942017,0.0225121975,0.0174709558,42.5261421204,43.5498352051,162.8559265137,0.0625203848,-0.0149028301,-0.0073944926,
255.413,-3.2955741882,1.3819937706,29.1416625977,0.0607390963,0.0408686623,0.0141522884,-111.5192565918,73.3934249878,82.9632644653,0.0066296458,0.0646017492,0.0353568792,-11.4206018448,84.2860107422,-162.7223358154,0.0189570785,0.0220980048,0.0267446041,42.5248908997,43.5516700745,162.8617706299,0.0586373806,-0.0148763657,-0.0010418892,
255.423,-3.2967514992,1.3844474554,29.1426048279,0.0602936298,0.0360062979,0.0131786466,-111.0741653442,73.4546432495,83.3769149780,0.0127938390,0.0678741336,0.0377964377,-11.4338111877,84.2883453369,-162.7281494141,0.0267736316,0.0333444923,0.0194584131,42.5250625610,43.5482215881,162.8691558838,0.0620117188,-0.0109996796,-0.0035119653,
255.433,-3.2969529629,1.3833189011,29.1438350677,0.0597856566,0.0438223295,0.0073181391,-110.6005401611,73.5251388550,83.8158798218,0.0253505111,0.0681007206,0.0288270712,-11.4965553284,84.2866668701,-162.7813415527,0.0243293047,0.0232047141,0.0258045793,42.5284309387,43.5442504883,162.8781738281,0.0687974095,-0.0071570873,-0.0049831867,
255.443,-3.2964334488,1.3840301037,29.1442184448,0.0637043118,0.0379538871,0.0014593005,-110.0955200195,73.6027832031,84.2792739868,0.0306167603,0.0638466179,0.0240766406,-11.5322008133,84.2869033813,-162.8063201904,0.0267711282,0.0276605785,0.0199611187,42.5310821533,43.5407981873,162.8888854980,0.0716834068,-0.0096513033,-0.0074323416,
255.453,-3.2963681221,1.3849861622,29.1465740204,0.0593264662,0.0467417873,0.0122013092,-109.5708084106,73.6760406494,84.7608795166,0.0417191386,0.0596668720,0.0187846422,-11.5539226532,84.2827224731,-162.8156433105,0.0233458877,0.0301539451,0.0316183567,42.5312271118,43.5383987427,162.8984527588,0.0692117214,-0.0082072020,-0.0064758062,
255.463,-3.2977395058,1.3871175051,29.1476364136,0.0569222495,0.0418828167,0.0068325996,-109.0235214233,73.7417526245,85.2700347900,0.0444822311,0.0560989082,0.0100244880,-11.5967617035,84.2833709717,-162.8464813232,0.0238353014,0.0238786638,0.0184605718,42.5309028625,43.5371475220,162.9076995850,0.0677309632,-0.0087027252,-0.0055131912,
255.473,-3.2999820709,1.3874840736,29.1487693787,0.0588817671,0.0409453064,0.0087881684,-108.4425125122,73.7992477417,85.8186492920,0.0403681397,0.0536588728,0.0153231025,-11.6099605560,84.2828216553,-162.8477172852,0.0243226290,0.0248798132,0.0199224949,42.5270805359,43.5367317200,162.9142761230,0.0706554055,-0.0116001368,-0.0016434193,
255.483,-3.2989516258,1.3852419853,29.1500606537,0.0593309291,0.0438571014,0.0053683519,-107.8441925049,73.8519744873,86.3997650146,0.0308588743,0.0620288253,0.0098327994,-11.6231632233,84.2825164795,-162.8489074707,0.0296931863,0.0249041766,0.0169904828,42.5227470398,43.5360183716,162.9194793701,0.0652753115,-0.0101006031,0.0012429357,
255.493,-3.2955763340,1.3869494200,29.1493606567,0.0559427515,0.0457513891,0.0082954168,-107.2215728760,73.9087524414,87.0113296509,0.0267394781,0.0678938031,0.0164250731,-11.6477537155,84.2839202881,-162.8615417480,0.0150471926,0.0244536102,0.0243484974,42.5189285278,43.5361938477,162.9238739014,0.0638126731,-0.0110401213,0.0012118220,
255.503,-3.2948470116,1.3861833811,29.1498928070,0.0627653301,0.0428090133,0.0097591281,-106.5761642456,73.9738769531,87.6330108643,0.0216827989,0.0716645122,0.0101863742,-11.6916656494,84.2855987549,-162.8947753906,0.0184680820,0.0279424489,0.0199959874,42.5182609558,43.5379981995,162.9329376221,0.0633472204,-0.0159020424,-0.0036607385,
255.513,-3.2945744991,1.3898390532,29.1509017944,0.0559931695,0.0432924554,0.0107369423,-105.9203186035,74.0553131104,88.2576065063,0.0157265663,0.0785637200,0.0057911277,-11.7600660324,84.2838516235,-162.9513092041,0.0204181671,0.0261141658,0.0268285275,42.5177803040,43.5345649719,162.9415130615,0.0642803907,-0.0125074983,0.0006993413,
255.523,-3.2948796749,1.3920198679,29.1519966125,0.0545663796,0.0413445979,0.0053671002,-105.2296218872,74.1459274292,88.9148788452,0.0117653012,0.0745716095,0.0207459331,-11.8640375137,84.2812805176,-163.0398559570,0.0209019780,0.0292337686,0.0317053199,42.5219421387,43.5319328308,162.9568634033,0.0578994155,-0.0047551692,-0.0071008205,
255.533,-3.2954642773,1.3928383589,29.1536808014,0.0619048774,0.0423313193,0.0141571760,-104.5167083740,74.2406005859,89.5895538330,0.0244224072,0.0680510998,0.0229105949,-12.0101785660,84.2811737061,-163.1705322266,0.0248080492,0.0270465165,0.0278527737,42.5253181458,43.5237236023,162.9711608887,0.0656080246,-0.0097361803,0.0001795888,
255.543,-3.2962255478,1.3917206526,29.1536331177,0.0618853718,0.0418563299,0.0141575336,-103.7662124634,74.3399887085,90.3028335571,0.0356342793,0.0721870065,0.0249112248,-12.1622228622,84.2798461914,-163.3052978516,0.0248057246,0.0268273503,0.0298395753,42.5314216614,43.5143356323,162.9856109619,0.0640243888,-0.0074278712,-0.0066871643,
255.553,-3.2964982986,1.3906433582,29.1548080444,0.0618665814,0.0413728245,0.0107392669,-102.9541244507,74.4328002930,91.0734405518,0.0473007560,0.0539772809,0.0257092714,-12.3066749573,84.2750473022,-163.4322967529,0.0272387862,0.0207481384,0.0307902694,42.5323600769,43.5072441101,162.9983825684,0.0683290958,-0.0104240775,0.0005815029,
255.563,-3.2966012955,1.3904820681,29.1566524506,0.0564926714,0.0462574326,0.0063446760,-102.0530395508,74.5294647217,91.9133987427,0.0624005795,0.0581892431,0.0319771171,-12.3997716904,84.2676239014,-163.5089111328,0.0325969458,0.0131244808,0.0316790342,42.5257987976,43.5034065247,163.0052490234,0.0712102056,-0.0147883296,0.0063518286,
255.573,-3.2972698212,1.3915663958,29.1570758820,0.0623709708,0.0423628017,0.0004865527,-101.1116180420,74.6325988770,92.7843551636,0.0540900826,0.0773911774,0.0165918469,-12.3948631287,84.2616729736,-163.4876556396,0.0418639183,0.0224148035,0.0203490257,42.5139961243,43.5051651001,163.0065612793,0.0761153102,-0.0156405866,-0.0015468597,
255.583,-3.2959032059,1.3889899254,29.1589374542,0.0628142953,0.0428273380,0.0068316460,-100.1235580444,74.7369155884,93.7112350464,0.0360162854,0.0750451684,0.0181230307,-12.3712854385,84.2550506592,-163.4488220215,0.0325750113,0.0175150633,0.0231595039,42.5034866333,43.5104408264,163.0059051514,0.0712992549,-0.0140346289,-0.0054953694,
255.593,-3.2950422764,1.3896268606,29.1600608826,0.0623371266,0.0496482700,0.0117138624,-99.0961914063,74.8444061279,94.6911392212,0.0164889693,0.0716090798,0.0302558541,-12.3477363586,84.2535552979,-163.4079132080,0.0174356699,0.0282216221,0.0294734240,42.4986152649,43.5160942078,163.0118865967,0.0659997463,-0.0056427121,-0.0030465722,
255.603,-3.2942469120,1.3896847963,29.1629657745,0.0647795424,0.0427984782,0.0126892328,-98.0361251831,74.9525146484,95.7203979492,0.0008672476,0.0671126246,0.0261771679,-12.3829431534,84.2529373169,-163.4259338379,0.0184111595,0.0317032635,0.0304530263,42.5011787415,43.5197563171,163.0269927979,0.0596984029,-0.0095430017,-0.0068976879,
255.613,-3.2953815460,1.3907663822,29.1640319824,0.0584507585,0.0384236835,0.0068322420,-96.9098663330,75.0586929321,96.8303604126,-0.0015829802,0.0616083741,0.0379732847,-12.4945850372,84.2571716309,-163.5174865723,0.0106060505,0.0353002101,0.0330082178,42.5130195618,43.5158157349,163.0507659912,0.0542774796,0.0005682111,-0.0014609694,
255.623,-3.2964620590,1.3902125359,29.1670913696,0.0559996851,0.0384425148,0.0073205233,-95.7279739380,75.1542282104,98.0059585571,0.0027518272,0.0513170660,0.0232288837,-12.7128515244,84.2619476318,-163.7132568359,0.0071964264,0.0356626660,0.0302413702,42.5270271301,43.5034065247,163.0793151855,0.0590031743,-0.0074756145,0.0014790297,
255.633,-3.2978792191,1.3888804913,29.1682567596,0.0603709742,0.0374906734,0.0039040446,-94.4792861938,75.2412643433,99.2490768433,0.0182766318,0.0542579293,0.0248557329,-13.0311231613,84.2712478638,-164.0082397461,0.0125837326,0.0303210765,0.0148955584,42.5419464111,43.4887619019,163.1087951660,0.0544232726,-0.0091986656,0.0019654036,
255.643,-3.2992622852,1.3894381523,29.1693534851,0.0579393022,0.0355616286,0.0004872084,-93.1685867310,75.3219757080,100.5358963013,0.0376775265,0.0449862182,0.0106427670,-13.3819704056,84.2741241455,-164.3332977295,0.0189363956,0.0240814239,0.0316894650,42.5568809509,43.4693031311,163.1393127441,0.0732197762,-0.0109608471,-0.0078441501,
255.653,-3.2996211052,1.3874545097,29.1711349487,0.0627875030,0.0389858931,0.0043936968,-91.7965393066,75.3929672241,101.8598175049,0.0589868426,0.0484446883,0.0074498057,-13.7097568512,84.2765884399,-164.6370239258,0.0252883434,0.0226859450,0.0216098428,42.5657920837,43.4523963928,163.1647644043,0.0700759292,-0.0180171728,-0.0025464296,
255.663,-3.2996954918,1.3862571716,29.1717662811,0.0603252053,0.0463114418,0.0195294619,-90.4016799927,75.4504318237,103.1937332153,0.0738877058,0.0461257398,-0.0031135082,-13.9901275635,84.2779617310,-164.8968200684,0.0316383839,0.0182814896,0.0163817406,42.5741157532,43.4360237122,163.1896820068,0.0771926641,-0.0148098171,-0.0060377717,
255.673,-3.3010129929,1.3840202093,29.1717014313,0.0656572655,0.0399867855,0.0097643137,-88.9735107422,75.4961700439,104.5501785278,0.0755527616,0.0458030701,-0.0049904585,-14.2081365585,84.2773056030,-165.0970764160,0.0316372514,0.0118243545,0.0174413323,42.5800437927,43.4252586365,163.2086334229,0.0755913854,-0.0120227337,-0.0104762316,
255.683,-3.3007524014,1.3818968534,29.1741161346,0.0656202137,0.0453533866,0.0063452721,-87.5069961548,75.5339202881,105.9348983765,0.0718113184,0.0513128936,-0.0089532733,-14.3416261673,84.2754898071,-165.2122650146,0.0238215923,0.0145035684,0.0208874941,42.5851974487,43.4182472229,163.2255249023,0.0774555802,-0.0101747215,-0.0085409284,
255.693,-3.3001058102,1.3813481331,29.1752510071,0.0641458035,0.0468069874,0.0063442588,-85.9795684814,75.5616149902,107.3767776489,0.0577718019,0.0558324456,0.0005190372,-14.4145383835,84.2761764526,-165.2693176270,0.0345649719,0.0175559074,0.0121423602,42.5894088745,43.4158554077,163.2381286621,0.0740073323,-0.0131631792,-0.0090142488,
255.703,-3.3000657558,1.3818787336,29.1751880646,0.0578074045,0.0448531508,0.0009733438,-84.4143676758,75.5841217041,108.8543472290,0.0456626415,0.0602481961,0.0064379573,-14.4678010941,84.2783660889,-165.3087463379,0.0038070679,0.0225212574,0.0209906101,42.5934600830,43.4156646729,163.2521209717,0.0637509823,-0.0117376447,0.0002961159,
255.713,-3.3016724586,1.3831636906,29.1756019592,0.0622243546,0.0409748554,0.0156239867,-82.8290939331,75.6042556763,110.3485794067,0.0516094565,0.0703666061,0.0093758106,-14.4792451859,84.2760086060,-165.3074188232,0.0038029552,0.0391526073,0.0268160701,42.5979766846,43.4136772156,163.2646331787,0.0593312383,-0.0093545616,0.0052000284,
255.723,-3.3027496338,1.3825916052,29.1767330170,0.0597729683,0.0365991034,0.0014646649,-81.2670516968,75.6115264893,111.8202362061,0.0545706749,0.0673452616,-0.0110150576,-14.6228418350,84.2795333862,-165.4386138916,0.0140630007,0.0262012184,0.0284026265,42.6078643799,43.4059104919,163.2850036621,0.0680218935,-0.0031622052,-0.0001546144,
255.733,-3.3022127151,1.3821154833,29.1785469055,0.0578115359,0.0419608541,0.0131828785,-79.7134475708,75.6148529053,113.2958908081,0.0584913492,0.0881393254,-0.0040026307,-14.7690963745,84.2810058594,-165.5706329346,0.0155304074,0.0264459401,0.0280061364,42.6220016479,43.4001045227,163.3080291748,0.0586708784,-0.0048062205,-0.0059438348,
255.743,-3.3051099777,1.3832285404,29.1783580780,0.0602723621,0.0366402045,0.0078150630,-78.2308883667,75.6039810181,114.7279815674,0.0677215457,0.0812177807,-0.0103714466,-14.9624166489,84.2840270996,-165.7498779297,0.0155356526,0.0306712389,0.0296077728,42.6327819824,43.3908081055,163.3285827637,0.0624592900,-0.0054705143,0.0004144907,
255.753,-3.3073484898,1.3797713518,29.1778526306,0.0587471947,0.0391206853,0.0000033379,-76.7901153564,75.5786743164,116.1428833008,0.0822600722,0.0822237432,-0.0126885176,-15.1671791077,84.2842941284,-165.9378356934,0.0238369107,0.0212556571,0.0258003473,42.6409912109,43.3814468384,163.3473815918,0.0716178417,-0.0168536603,-0.0030155182,
255.763,-3.3049356937,1.3793051243,29.1803054810,0.0577624999,0.0464028828,0.0087897778,-75.3600997925,75.5326614380,117.5622177124,0.0884073973,0.0707237870,-0.0116136074,-15.3095388412,84.2843322754,-166.0650939941,0.0340908766,0.0185700506,0.0224483013,42.6455116272,43.3737335205,163.3619079590,0.0778676867,-0.0174467564,-0.0069509745,
255.773,-3.3008797169,1.3786858320,29.1821212769,0.0626345053,0.0521916263,0.0131800175,-73.8894500732,75.4710235596,119.0247421265,0.0783724785,0.0617077351,0.0004493594,-15.3921766281,84.2830963135,-166.1344757080,0.0277410746,0.0201820731,0.0219784379,42.6472282410,43.3699226379,163.3749237061,0.0768427849,-0.0184702277,-0.0045283437,
255.783,-3.3025424480,1.3774636984,29.1831836700,0.0665194318,0.0365956202,0.0068333745,-72.3730773926,75.3954620361,120.5208969116,0.0692517161,0.0536561161,0.0019902587,-15.4457817078,84.2818298340,-166.1757507324,0.0394576192,0.0090487897,0.0249142051,42.6467170715,43.3726501465,163.3843688965,0.0715062618,-0.0184433162,-0.0059732199,
255.793,-3.3026437759,1.3774086237,29.1848850250,0.0626122206,0.0419684760,0.0082985163,-70.7996368408,75.3117370605,122.0587921143,0.0639994144,0.0581564456,0.0056786537,-15.4282970428,84.2854003906,-166.1471557617,0.0199325681,0.0343934000,0.0186164379,42.6485862732,43.3742027283,163.3951568604,0.0612720251,-0.0121004879,0.0038220882,
255.803,-3.3018116951,1.3784476519,29.1854343414,0.0562826917,0.0453719199,0.0048800707,-69.1948242188,75.2170181274,123.6031265259,0.0669968724,0.0532956421,0.0067192316,-15.4624252319,84.2894439697,-166.1699371338,0.0121271014,0.0236917585,0.0240679383,42.6544761658,43.3738861084,163.4080352783,0.0622445345,-0.0102049708,0.0048464537,
255.813,-3.3005194664,1.3779433966,29.1853733063,0.0596918650,0.0404666215,0.0131794214,-67.6248626709,75.1152572632,125.0971069336,0.0660539269,0.0557078123,-0.0077762604,-15.5765647888,84.2933197021,-166.2722625732,0.0243408680,0.0263105035,0.0256513953,42.6688385010,43.3703346252,163.4273529053,0.0568284392,-0.0025553107,0.0024971962,
255.823,-3.3000779152,1.3784362078,29.1870975494,0.0606770255,0.0438768789,0.0078076124,-66.1167678833,75.0007171631,126.5325012207,0.0723744035,0.0650518239,-0.0084441304,-15.7712440491,84.3003311157,-166.4546051025,0.0126342773,0.0295404792,0.0243934393,42.6868171692,43.3601760864,163.4528656006,0.0601174831,-0.0028055906,0.0025621653,
255.833,-3.3020513058,1.3774433136,29.1883068085,0.0572417304,0.0375636257,0.0097626448,-64.6557846069,74.8634185791,127.9291076660,0.0829818845,0.0590020418,-0.0061703920,-16.0185871124,84.3041839600,-166.6896057129,0.0160589218,0.0260374248,0.0265302062,42.7047805786,43.3477249146,163.4796600342,0.0643540621,-0.0103985965,-0.0081348419,
255.843,-3.3003790379,1.3772277832,29.1889820099,0.0523551553,0.0438821577,0.0136671662,-63.2123107910,74.7066116333,129.3067626953,0.0851933360,0.0564928204,-0.0103515983,-16.2628955841,84.3063507080,-166.9214782715,0.0199689269,0.0235132575,0.0276609063,42.7188911438,43.3356132507,163.5022735596,0.0578526258,-0.0174645782,-0.0090967417,
255.853,-3.3001427650,1.3765009642,29.1926155090,0.0586901344,0.0409483723,0.0019478202,-61.7581176758,74.5396575928,130.6805419922,0.0956511497,0.0597589016,-0.0112817883,-16.5197868347,84.3101119995,-167.1656951904,0.0326707363,0.0170951635,0.0190620422,42.7300910950,43.3251457214,163.5216827393,0.0660204887,-0.0196072757,-0.0110454559,
255.863,-3.3016130924,1.3768057823,29.1930599213,0.0611368567,0.0351145975,0.0092737079,-60.2972946167,74.3727569580,132.0516204834,0.0978002548,0.0740187466,-0.0137460828,-16.7478065491,84.3112411499,-167.3860168457,0.0282781720,0.0204063356,0.0201699734,42.7347450256,43.3135490417,163.5337982178,0.0731975436,-0.0221861005,0.0045181513,
255.873,-3.3003346920,1.3773036003,29.1941947937,0.0606572628,0.0468110666,0.0112255812,-58.8520774841,74.2066040039,133.4105224609,0.0994564295,0.0880811512,-0.0215466619,-16.9304027557,84.3121032715,-167.5601654053,0.0165609121,0.0148508698,0.0236989856,42.7440185547,43.3042106628,163.5490417480,0.0735671520,-0.0160008371,-0.0052497387,
255.883,-3.3002996445,1.3758291006,29.1971549988,0.0655143484,0.0424159579,0.0039008856,-57.4246635437,74.0375442505,134.7679138184,0.0966960192,0.1039605588,-0.0117509961,-17.0800342560,84.3153839111,-167.7021179199,0.0199845433,0.0233898759,0.0204052925,42.7600784302,43.2992744446,163.5718688965,0.0695981979,-0.0137495399,-0.0090614557,
255.893,-3.3000204563,1.3757772446,29.1988353729,0.0645368844,0.0433876626,0.0029241443,-56.0412330627,73.8602447510,136.0976409912,0.0948638320,0.1008103192,-0.0082296133,-17.2084655762,84.3178634644,-167.8218536377,0.0268247724,0.0284763277,0.0205157399,42.7735023499,43.2922744751,163.5914764404,0.0709741116,-0.0163728595,-0.0011937022,
255.903,-3.3000113964,1.3764345646,29.2010612488,0.0645483509,0.0380163975,0.0087834001,-54.7109718323,73.6715469360,137.3860626221,0.0998024940,0.0909134746,-0.0075600743,-17.3304920197,84.3227996826,-167.9334564209,0.0185325146,0.0335399956,0.0255424976,42.7903137207,43.2860260010,163.6129608154,0.0655236840,-0.0097446740,-0.0035460591,
255.913,-3.3014881611,1.3760080338,29.2021198273,0.0640526265,0.0370655693,0.0151326656,-53.4179649353,73.4785156250,138.6328125000,0.1017795801,0.0790228397,-0.0204887390,-17.4936923981,84.3271865845,-168.0859375000,0.0209814906,0.0215856284,0.0227693915,42.8049011230,43.2787322998,163.6353607178,0.0693372488,-0.0099398792,-0.0054361224,
255.923,-3.3012869358,1.3753486872,29.2026710510,0.0620879978,0.0453628637,0.0014601946,-52.1164779663,73.2784652710,139.8687744141,0.1154292822,0.0694326907,-0.0198770165,-17.6423034668,84.3298797607,-168.2231140137,0.0273337960,0.0188918412,0.0224041939,42.8179588318,43.2712707520,163.6548156738,0.0643596649,-0.0071927011,-0.0053899288,
255.933,-3.3018653393,1.3753824234,29.2038040161,0.0601354577,0.0424432456,0.0112264752,-50.7797813416,73.0824203491,141.1147308350,0.1139509082,0.0789965093,-0.0213418007,-17.7264060974,84.3308105469,-168.2971954346,0.0258705616,0.0253760517,0.0244170427,42.8243103027,43.2682723999,163.6692657471,0.0706691742,-0.0160652697,-0.0058488250,
255.943,-3.3023900986,1.3754180670,29.2061462402,0.0601360835,0.0404992625,0.0043910742,-49.3986625671,72.8770523071,142.3830566406,0.0982533097,0.0804951638,-0.0089368820,-17.7659873962,84.3333358765,-168.3284606934,0.0278280377,0.0244526565,0.0171553493,42.8251953125,43.2648277283,163.6766204834,0.0725785494,-0.0136601329,-0.0034301281,
255.953,-3.3020687103,1.3765234947,29.2078514099,0.0582022443,0.0414701998,-0.0019565225,-47.9442100525,72.6608123779,143.7001800537,0.0937173367,0.0777256936,0.0059828758,-17.8049221039,84.3332672119,-168.3584747314,0.0317341685,0.0201241374,0.0274280906,42.8265419006,43.2628059387,163.6865844727,0.0769473314,-0.0117359757,-0.0005065799,
255.963,-3.3020215034,1.3780404329,29.2083320618,0.0567638688,0.0404927693,0.0053682327,-46.4399070740,72.4337158203,145.0403289795,0.0817863941,0.0741502494,0.0098404288,-17.8420753479,84.3374557495,-168.3860168457,0.0175812244,0.0230943114,0.0177502632,42.8322448730,43.2625045776,163.6993560791,0.0666895509,-0.0083736777,-0.0048545599,
255.973,-3.3032903671,1.3790071011,29.2099895477,0.0611752644,0.0400265828,0.0082997680,-44.8839797974,72.2010650635,146.3880920410,0.0829944611,0.0672232658,0.0066070557,-17.8901901245,84.3386001587,-168.4253845215,0.0200245976,0.0265871882,0.0260946751,42.8401222229,43.2602043152,163.7128448486,0.0578713417,-0.0079775453,0.0049589872,
255.983,-3.3036177158,1.3817590475,29.2116413116,0.0548756272,0.0390556455,0.0068363547,-43.2797012329,71.9692459106,147.7304687500,0.0944452286,0.0656444132,-0.0109391809,-17.9823226929,84.3429641724,-168.5088195801,0.0146610141,0.0301364064,0.0262157917,42.8522224426,43.2550315857,163.7312622070,0.0622001290,-0.0066676140,0.0089244843,
255.993,-3.3035943508,1.3819370270,29.2128124237,0.0573201403,0.0424732044,0.0063481927,-41.6412353516,71.7425155640,149.0755920410,0.0932129025,0.0855175704,-0.0197275877,-18.1394271851,84.3435134888,-168.6585083008,0.0175916553,0.0274665952,0.0331460238,42.8676071167,43.2480583191,163.7515106201,0.0591817498,-0.0088208914,0.0011837482,
256.003,-3.3031299114,1.3827852011,29.2151832581,0.0573349372,0.0439299382,0.0053712130,-39.9784126282,71.5110168457,150.4457244873,0.1012166739,0.1045147628,-0.0149355531,-18.3067302704,84.3431015015,-168.8148193359,0.0171026587,0.0306779146,0.0332315564,42.8799667358,43.2353630066,163.7695922852,0.0682977438,-0.0144103765,0.0011795759,
256.013,-3.3038358688,1.3865073919,29.2150020599,0.0530053526,0.0444304273,-0.0019505620,-38.2674369812,71.2685699463,151.8745269775,0.0959600210,0.1157434583,-0.0064822435,-18.4864349365,84.3449707031,-168.9864807129,0.0205238461,0.0280382633,0.0279898643,42.8970527649,43.2247352600,163.7923583984,0.0613266230,-0.0097731352,0.0002580881,
256.023,-3.3038072586,1.3857710361,29.2143020630,0.0622698478,0.0405237004,0.0058616400,-36.5126953125,71.0106277466,153.3653411865,0.0969461799,0.1314378530,0.0012134314,-18.6848526001,84.3484725952,-169.1766967773,0.0263892412,0.0259086341,0.0198562145,42.9094505310,43.2147483826,163.8109436035,0.0709652305,-0.0153411031,-0.0060696006,
256.033,-3.2998316288,1.3841078281,29.2155933380,0.0617525466,0.0541263595,0.0097631216,-34.7473716736,70.7351684570,154.8782043457,0.1046481729,0.1224385351,-0.0049398541,-18.8781566620,84.3482971191,-169.3606567383,0.0244358182,0.0262313634,0.0238685608,42.9252929688,43.2016983032,163.8334503174,0.0737289190,-0.0058292747,-0.0006754994,
256.043,-3.3006849289,1.3829017878,29.2155723572,0.0622197837,0.0458404720,0.0146463513,-32.9680442810,70.4414443970,156.3950805664,0.1088037491,0.1116559952,-0.0103054643,-19.0598850250,84.3461532593,-169.5336456299,0.0268735290,0.0236156583,0.0307736397,42.9410705566,43.1901664734,163.8557281494,0.0726056099,-0.0109528899,-0.0108934641,
256.053,-3.2983596325,1.3803697824,29.2173900604,0.0690115392,0.0526359677,0.0048774481,-31.1643352509,70.1325225830,157.8978271484,0.1133327484,0.0857998580,-0.0148706436,-19.2540187836,84.3459396362,-169.7153778076,0.0171075463,0.0249159187,0.0289287567,42.9560699463,43.1788711548,163.8784484863,0.0651376247,-0.0106962323,-0.0035380125,
256.063,-3.2989063263,1.3788340092,29.2204227448,0.0636136532,0.0467861444,0.0043890476,-29.3222255707,69.8149414063,159.3790130615,0.1226650476,0.0735187083,-0.0273502469,-19.4690437317,84.3480911255,-169.9167175293,0.0161346793,0.0233072788,0.0232291818,42.9743270874,43.1664581299,163.9023284912,0.0654679537,-0.0070610642,0.0004181266,
256.073,-3.2979846001,1.3770405054,29.2216033936,0.0645589232,0.0433521681,0.0151294470,-27.4638042450,69.4861373901,160.8291168213,0.1260405779,0.0680874437,-0.0306059718,-19.7009544373,84.3502120972,-170.1330718994,0.0185797215,0.0227027386,0.0253523588,42.9900360107,43.1523513794,163.9281768799,0.0687062740,-0.0107402205,0.0018963218,
256.083,-3.3020746708,1.3784972429,29.2238159180,0.0616546497,0.0365874432,0.0063450336,-25.5860004425,69.1424179077,162.2665557861,0.1292925477,0.0831642449,-0.0324892998,-19.8985137939,84.3462219238,-170.3133544922,0.0229673982,0.0235407799,0.0312650800,43.0068473816,43.1364402771,163.9543762207,0.0728982091,-0.0100497603,0.0009269714,
256.093,-3.3025932312,1.3778854609,29.2249031067,0.0645736605,0.0405027419,0.0117163658,-23.7211093903,68.7799148560,163.6935882568,0.1275094748,0.0959844142,-0.0305157304,-20.1315689087,84.3452072144,-170.5272674561,0.0283367634,0.0224665403,0.0313900709,43.0249900818,43.1210060120,163.9822387695,0.0678188205,-0.0064381361,-0.0005149841,
256.103,-3.3024084568,1.3781255484,29.2272281647,0.0616481677,0.0429409221,0.0068336129,-21.8776950836,68.3996505737,165.1110229492,0.1328992248,0.1104825139,-0.0363606215,-20.3660449982,84.3452835083,-170.7450256348,0.0229657888,0.0223649442,0.0261619687,43.0400123596,43.1085662842,164.0074005127,0.0676603317,-0.0144918263,-0.0048874617,
256.113,-3.3022539616,1.3797292709,29.2295341492,0.0592347421,0.0448913202,0.0131813288,-20.0721359253,68.0046463013,166.5189056396,0.1278977990,0.1325915754,-0.0440750122,-20.5598564148,84.3458023071,-170.9264526367,0.0215018392,0.0304940343,0.0165225267,43.0607757568,43.0964088440,164.0352020264,0.0699467659,-0.0074599981,-0.0111601949,
256.123,-3.3006680012,1.3794437647,29.2300395966,0.0631360114,0.0458402634,0.0073209405,-18.3205928802,67.5917892456,167.9127807617,0.1354289055,0.1365549266,-0.0434215665,-20.8036823273,84.3467712402,-171.1541595459,0.0190621018,0.0225882232,0.0259673595,43.0781097412,43.0846786499,164.0609130859,0.0600316525,-0.0125997066,0.0006070733,
256.133,-3.2997586727,1.3796987534,29.2323379517,0.0636287406,0.0433830135,0.0039016008,-16.6381359100,67.1614761353,169.2644348145,0.1344930530,0.1224769205,-0.0412095189,-21.0651702881,84.3486099243,-171.4007720947,0.0239480734,0.0259365588,0.0183467865,43.1002197266,43.0716133118,164.0914611816,0.0627948046,-0.0065643191,-0.0027316213,
256.143,-3.2971413136,1.3781152964,29.2329273224,0.0636011139,0.0472437032,0.0126876235,-15.0149011612,66.7122879028,170.5663757324,0.1426522732,0.1122875810,-0.0472592711,-21.3665103912,84.3492660522,-171.6841278076,0.0317617059,0.0195895135,0.0258752704,43.1225547791,43.0570373535,164.1246032715,0.0679799914,-0.0107972622,-0.0051053762,
256.153,-3.2968692780,1.3765270710,29.2322750092,0.0655265301,0.0477272905,0.0126866698,-13.4498500824,66.2459869385,171.8076629639,0.1428223252,0.0928006917,-0.0469079614,-21.6481304169,84.3463897705,-171.9444885254,0.0332216024,0.0308111906,0.0338203907,43.1475105286,43.0385437012,164.1606597900,0.0682323575,-0.0053209066,-0.0074896812,
256.163,-3.2954058647,1.3769773245,29.2345809937,0.0630929768,0.0452603735,0.0078026056,-11.9310617447,65.7560577393,172.9856719971,0.1461804509,0.0791040286,-0.0437016487,-21.9725360870,84.3430633545,-172.2454223633,0.0297979116,0.0176894665,0.0290989280,43.1733894348,43.0222473145,164.1979675293,0.0607002974,-0.0066710114,-0.0093585849,
256.173,-3.2954134941,1.3761510849,29.2375545502,0.0635668337,0.0442839637,0.0121968985,-10.4384622574,65.2494583130,174.1087646484,0.1508150101,0.0637092292,-0.0502612591,-22.3124465942,84.3389129639,-172.5618438721,0.0234431028,0.0197359174,0.0243730545,43.1930656433,43.0016059875,164.2319335938,0.0662962198,-0.0109285712,0.0038176775,
256.183,-3.2940125465,1.3770178556,29.2380332947,0.0611405596,0.0452361070,0.0043833852,-8.9597368240,64.7278289795,175.1819152832,0.1567314267,0.0626337454,-0.0504546762,-22.7087802887,84.3339920044,-172.9346160889,0.0336885452,0.0140641630,0.0226124525,43.2147064209,42.9802513123,164.2650909424,0.0660235882,-0.0166750550,-0.0069204569,
256.193,-3.2944502831,1.3777457476,29.2403564453,0.0601767004,0.0428023003,0.0136615038,-7.4959692955,64.2001495361,176.2177734375,0.1644800305,0.0807458386,-0.0685455799,-23.0783653259,84.3298797607,-173.2826690674,0.0156150460,0.0244580507,0.0193806291,43.2343673706,42.9547767639,164.2966156006,0.0691162348,-0.0092530251,0.0067023635,
256.203,-3.2955548763,1.3793522120,29.2407341003,0.0626461357,0.0408683829,-0.0004969239,-6.0707473755,63.6688537598,177.2182006836,0.1643118858,0.0982112512,-0.0761440396,-23.4870052338,84.3240737915,-173.6716918945,0.0097456574,0.0241821408,0.0244588256,43.2539939880,42.9302139282,164.3271484375,0.0565953255,-0.0145186186,0.0008022785,
256.213,-3.2969133854,1.3771731853,29.2425556183,0.0635846704,0.0418686643,0.0073158741,-4.7184557915,63.1299057007,178.1711730957,0.1762132645,0.1089805514,-0.0796404481,-23.9511871338,84.3196258545,-174.1179656982,0.0229215622,0.0186150521,0.0203251243,43.2798728943,42.9016304016,164.3620910645,0.0640425682,-0.0101094246,0.0041999817,
256.223,-3.2952187061,1.3766181469,29.2430744171,0.0640632734,0.0462336875,0.0068257451,-3.4579408169,62.5877571106,179.0879669189,0.1797092557,0.1288602799,-0.0872794986,-24.3974037170,84.3111724854,-174.5450744629,0.0253483653,0.0193938613,0.0214920640,43.3052940369,42.8747711182,164.3961181641,0.0568631291,-0.0159359574,-0.0031338334,
256.233,-3.2944772243,1.3760324717,29.2437133789,0.0557522699,0.0428028181,0.0117075443,-2.3040106297,62.0410690308,179.9600830078,0.1913893819,0.1267694086,-0.0839709044,-24.8629417419,84.3057708740,-174.9928588867,0.0243624449,0.0235989094,0.0183337927,43.3347244263,42.8448715210,164.4340362549,0.0672227740,-0.0125470757,-0.0045979023,
256.243,-3.2940239906,1.3761590719,29.2436275482,0.0596607253,0.0418183543,0.0141485929,-1.2537664175,61.4943275452,-179.2241668701,0.1985940933,0.1110342145,-0.0921446085,-25.2969322205,84.2945556641,-175.4073944092,0.0121359825,0.0258411765,0.0243459940,43.3618354797,42.8161621094,164.4712066650,0.0634373426,-0.0184044838,0.0051574707,
256.253,-3.2948460579,1.3761625290,29.2453899384,0.0581959486,0.0393912680,0.0107314587,-0.3102691472,60.9444618225,-178.4944152832,0.2012978196,0.0719672665,-0.0850295424,-25.7056102753,84.2893753052,-175.7960510254,0.0111504197,0.0323924124,0.0148143768,43.3895683289,42.7875556946,164.5060577393,0.0684421062,-0.0140126944,-0.0090045333,
256.263,-3.2895455360,1.3785222769,29.2470798492,0.0606785268,0.0544355959,0.0107270479,0.6118130684,60.3946952820,-177.7975311279,0.2102695107,0.1050737500,-0.0855528116,-26.0926418304,84.2822036743,-176.1646728516,0.0287160873,0.0232998133,0.0218374133,43.4178657532,42.7638511658,164.5419464111,0.0642321706,-0.0183755755,-0.0045657754,
256.273,-3.2903137207,1.3796049356,29.2488555908,0.0543497615,0.0417536423,0.0087753534,1.4576897621,59.8468399048,-177.1172180176,0.1957404017,0.1385828257,-0.0980954766,-26.4977130890,84.2765197754,-176.5518188477,0.0252882242,0.0347303599,0.0279296041,43.4459114075,42.7373313904,164.5792999268,0.0590094328,-0.0159227848,0.0061960816,
256.283,-3.2892174721,1.3800919056,29.2481498718,0.0621707588,0.0485704690,0.0029146671,2.2075006962,59.3031005859,-176.4945983887,0.2168135047,0.0765187740,-0.1031244993,-26.9273357391,84.2683105469,-176.9608001709,0.0120903254,0.0261984766,0.0198490024,43.4771423340,42.7113380432,164.6205749512,0.0645356178,-0.0178900361,-0.0074238777,
256.293,-3.2897753716,1.3797850609,29.2504749298,0.0611888431,0.0383262858,0.0004739761,2.9427487850,58.7802772522,-175.9056243896,0.2140725851,0.0685935616,-0.1062430739,-27.3917388916,84.2606506348,-177.4080963135,0.0096355677,0.0211359262,0.0201089978,43.5102920532,42.6806182861,164.6620178223,0.0631649494,-0.0155190825,-0.0049529672,
256.303,-3.2912116051,1.3795981407,29.2503623962,0.0626504272,0.0417692848,0.0068225861,3.6629290581,58.2763862610,-175.3414916992,0.2168053985,0.0899280608,-0.1079754829,-27.9301166534,84.2513046265,-177.9326171875,0.0154786110,0.0245019048,0.0204153061,43.5509986877,42.6495475769,164.7069549561,0.0573951006,-0.0127330422,-0.0077895522,
256.313,-3.2899241447,1.3779186010,29.2522163391,0.0596914329,0.0446765870,0.0073097348,4.3245453835,57.7883758545,-174.8167877197,0.2122959495,0.0940662026,-0.1137750149,-28.4820537567,84.2375411987,-178.4706573486,0.0149662495,0.0196236968,0.0236037374,43.5907516479,42.6145324707,164.7519531250,0.0593869090,-0.0158296227,-0.0048077703,
256.323,-3.2897827625,1.3810106516,29.2533016205,0.0538860075,0.0427209176,0.0180521607,4.9402656555,57.3081169128,-174.3104095459,0.2117045522,0.1146012023,-0.1125407219,-29.0869503021,84.2232437134,-179.0618896484,0.0188474059,0.0236211568,0.0239120722,43.6316146851,42.5744209290,164.7964935303,0.0657074451,-0.0136069059,0.0000945926,
256.333,-3.2906911373,1.3821302652,29.2537326813,0.0602531955,0.0393187478,0.0043822527,5.5033016205,56.8394393921,-173.8340911865,0.2228832245,0.1047493443,-0.1247451305,-29.6444530487,84.2063369751,-179.6065216064,0.0241887569,0.0236586928,0.0344070196,43.6721496582,42.5344467163,164.8394012451,0.0720294714,-0.0143097043,-0.0018405318,
256.343,-3.2904670238,1.3818062544,29.2561092377,0.0592709854,0.0388265699,0.0048698187,6.0266423225,56.3827323914,-173.3669586182,0.2184966207,0.1147033796,-0.1274384856,-30.2026958466,84.1912002563,179.8450469971,0.0300214291,0.0275889784,0.0258958936,43.7187423706,42.4975013733,164.8882141113,0.0617885590,-0.0101612806,-0.0071119070,
256.353,-3.2893605232,1.3807928562,29.2565364838,0.0699954927,0.0441784076,0.0077985525,6.5084834099,55.9359512329,-172.9096374512,0.2273377776,0.1068985760,-0.1299428940,-30.7786159515,84.1757659912,179.2801818848,0.0270644426,0.0242245793,0.0261970162,43.7608375549,42.4583282471,164.9345703125,0.0715382099,-0.0167315602,-0.0075595379,
256.363,-3.2925114632,1.3805619478,29.2564411163,0.0607141145,0.0378856547,0.0082889795,6.9557762146,55.4956855774,-172.4734344482,0.2405874729,0.1008096784,-0.1298678517,-31.3724269867,84.1606063843,178.6956787109,0.0216664672,0.0208843499,0.0221365690,43.8027191162,42.4178962708,164.9810791016,0.0700408220,-0.0106144547,0.0007712245,
256.373,-3.2921862602,1.3816182613,29.2563762665,0.0563380159,0.0456924587,0.0126842856,7.3776521683,55.0591773987,-172.0557556152,0.2250174880,0.0944015905,-0.1106501818,-31.8918247223,84.1457519531,178.1910400391,0.0206634998,0.0227966756,0.0258333087,43.8453025818,42.3777389526,165.0277252197,0.0758709311,-0.0098729730,-0.0026078820,
256.383,-3.2916727066,1.3832695484,29.2556800842,0.0563668273,0.0442186333,0.0156136751,7.7848825455,54.6176414490,-171.6548309326,0.2308334708,0.0997663438,-0.1085378528,-32.3770637512,84.1308441162,177.7223510742,0.0235666037,0.0275856256,0.0221820474,43.8867378235,42.3406181335,165.0743865967,0.0724624991,-0.0115371943,-0.0049930215,
256.393,-3.2910270691,1.3827682734,29.2568206787,0.0617291741,0.0446956716,0.0034064054,8.1588163376,54.1715774536,-171.2694091797,0.2219063640,0.1058672145,-0.1064630747,-32.8143424988,84.1111068726,177.3051147461,0.0225547552,0.0279516280,0.0320928693,43.9273948669,42.3056373596,165.1242065430,0.0681048036,-0.0068293810,-0.0049258471,
256.403,-3.2902789116,1.3805253506,29.2587947845,0.0553423837,0.0427295752,0.0107283592,8.4957475662,53.7189788818,-170.9155426025,0.2187220454,0.0956580341,-0.0966514945,-33.2609138489,84.0951156616,176.8833923340,0.0108073354,0.0312259197,0.0284054875,43.9716949463,42.2704048157,165.1786346436,0.0617905855,-0.0070399642,-0.0048261881,
256.413,-3.2912900448,1.3813564777,29.2591896057,0.0636576638,0.0388409160,0.0112184286,8.8061113358,53.2606086731,-170.5800476074,0.2207981944,0.0939458460,-0.0898233652,-33.7776794434,84.0793991089,176.3930969238,0.0146853328,0.0341175050,0.0311474204,44.0184135437,42.2291984558,165.2391510010,0.0700473189,-0.0073218346,-0.0062197447,
256.423,-3.2920641899,1.3792954683,29.2610034943,0.0631334260,0.0417841412,0.0063354373,9.0915269852,52.8047142029,-170.2692260742,0.2184546590,0.0943921655,-0.0966100693,-34.3585548401,84.0598297119,175.8392944336,0.0131852031,0.0307959765,0.0295156240,44.0698852539,42.1849479675,165.3067169189,0.0631275177,-0.0027897954,-0.0017354488,
256.433,-3.2939641476,1.3807330132,29.2621307373,0.0553460047,0.0398640782,0.0161036253,9.3458471298,52.3568458557,-169.9822845459,0.2195642591,0.0755985081,-0.1037667394,-35.0434837341,84.0396728516,175.1825714111,0.0087541938,0.0261722654,0.0265345573,44.1257133484,42.1383781433,165.3775787354,0.0527594090,-0.0144304037,-0.0001594424,
256.443,-3.2939136028,1.3801217079,29.2626762390,0.0621712767,0.0447460264,0.0082907677,9.6393756866,51.9204063416,-169.7319488525,0.2129359841,0.0485560820,-0.1174765825,-35.7955207825,84.0148239136,174.4553375244,0.0189629793,0.0304829031,0.0260206461,44.1816024780,42.0860328674,165.4474029541,0.0550113916,-0.0173294544,-0.0005830526,
256.453,-3.2923107147,1.3794314861,29.2637863159,0.0646006390,0.0437415577,0.0053591728,9.9404029846,51.4788322449,-169.5028533936,0.2281789184,0.0682444572,-0.1116488576,-36.6098442078,83.9848022461,173.6681671143,0.0164667964,0.0276146680,0.0255245566,44.2348899841,42.0267677307,165.5166168213,0.0654737949,-0.0183076859,0.0042846203,
256.463,-3.2917556763,1.3783121109,29.2661876678,0.0621397048,0.0442202017,0.0073114038,10.2336988449,51.0401420593,-169.2904357910,0.2297351360,0.0703921169,-0.1237999201,-37.4524421692,83.9506530762,172.8527526855,0.0193338394,0.0199457407,0.0181975365,44.2887268066,41.9656372070,165.5863037109,0.0641925931,-0.0188177228,-0.0020868182,
