Time(sec),Gyr1_X(deg/sec),Gyr1_Y(deg/sec),Gyr1_Z(deg/sec),Acc1_X(m/s^2),Acc1_Y(m/s^2),Acc1_Z(m/s^2),Gyr2_X(deg/sec),Gyr2_Y(deg/sec),Gyr2_Z(deg/sec),Acc2_X(m/s^2),Acc2_Y(m/s^2),Acc2_Z(m/s^2),Gyr_X(deg/sec),Gyr_Y(deg/sec),Gyr_Z(deg/sec),Acc_X(m/s^2),Acc_Y(m/s^2),Acc_Z(m/s^2),Gyr_X(deg/sec),Gyr_Y(deg/sec),Gyr_Z(deg/sec),Acc_X(m/s^2),Acc_Y(m/s^2),Acc_Z(m/s^2),
353.303,-3.2561817169,1.3747630119,40.3863525391,0.0630543455,0.0411591791,-0.0015146732,-106.8658370972,-8.5278997421,80.0920333862,-0.0311034918,-0.0752637982,0.0038145185,-58.4876937866,84.6586608887,-144.8330993652,0.0239781141,0.0199268758,0.0242836475,43.5308914185,40.8928794861,-130.7934417725,0.0687093735,-0.0080516338,-0.0051903725,
353.313,-3.2564759254,1.3744826317,40.3868751526,0.0610963255,0.0392111875,0.0106921196,-106.8666839600,-8.5372114182,80.1034622192,-0.0312642157,-0.0586894751,-0.0049676299,-58.5107154846,84.6581497192,-144.8401184082,0.0234889984,0.0267884433,0.0267547965,43.5356101990,40.8927230835,-130.7814941406,0.0657775998,-0.0066331029,-0.0183314085,
353.323,-3.2548997402,1.3737776279,40.3887290955,0.0562012121,0.0435782820,0.0048315525,-106.8724060059,-8.5440406799,80.1118392944,-0.0269875526,-0.0606882572,-0.0048780441,-58.5582199097,84.6593627930,-144.8731231689,0.0215378404,0.0263262391,0.0151124597,43.5335617065,40.8892440796,-130.7732086182,0.0696380138,-0.0110354424,-0.0027546287,
353.333,-3.2551574707,1.3747212887,40.3893394470,0.0547528304,0.0435827486,0.0141087174,-106.8806076050,-8.5534543991,80.1201629639,-0.0247086287,-0.0597762465,-0.0047494173,-58.5832939148,84.6599121094,-144.8826293945,0.0215387344,0.0234065354,0.0219920874,43.5341911316,40.8865165710,-130.7617797852,0.0710668564,-0.0061801076,-0.0057007670,
353.343,-3.2548861504,1.3741436005,40.3911094666,0.0601138473,0.0411366336,0.0072729588,-106.8840408325,-8.5642147064,80.1261215210,-0.0239177644,-0.0661675930,-0.0012832284,-58.5874671936,84.6593246460,-144.8742980957,0.0166549683,0.0234228075,0.0283370614,43.5339050293,40.8861198425,-130.7528228760,0.0691084266,-0.0135046840,-0.0061948299,
353.353,-3.2547762394,1.3769390583,40.3934440613,0.0528384000,0.0425994880,0.0116684437,-106.8816299438,-8.5723953247,80.1290893555,-0.0274769366,-0.0647112131,-0.0037704706,-58.5511932373,84.6606445313,-144.8268890381,0.0171453953,0.0262999237,0.0287870169,43.5300521851,40.8879013062,-130.7471008301,0.0696202517,-0.0149186850,-0.0062152743,
353.363,-3.2527265549,1.3770343065,40.3951759338,0.0621174052,0.0430520624,0.0092251301,-106.8761520386,-8.5800523758,80.1291427612,-0.0232145488,-0.0647027493,-0.0077731013,-58.5576934814,84.6622924805,-144.8202056885,0.0234957337,0.0243292153,0.0229510069,43.5263938904,40.8885002136,-130.7419891357,0.0666984320,-0.0163437724,-0.0038022399,
353.373,-3.2540791035,1.3766149282,40.3950347900,0.0655280650,0.0420990847,0.0048317909,-106.8713912964,-8.5877647400,80.1288909912,-0.0287187397,-0.0593270063,-0.0044395924,-58.5532608032,84.6641311646,-144.8045043945,0.0127565265,0.0238104463,0.0258905888,43.5249824524,40.8925323486,-130.7369842529,0.0618689060,-0.0153219700,-0.0057348609,
353.383,-3.2556178570,1.3768396378,40.3974037170,0.0596726015,0.0411493108,0.0102040768,-106.8675613403,-8.5942468643,80.1263122559,-0.0239477754,-0.0598120689,0.0023277700,-58.5655632019,84.6651611328,-144.8059692383,0.0171527267,0.0208767056,0.0200577378,43.5229415894,40.8971366882,-130.7316741943,0.0604647398,-0.0152662396,-0.0042504668,
353.393,-3.2568430901,1.3777825832,40.3996047974,0.0655484349,0.0401940793,0.0053235888,-106.8635253906,-8.5994663239,80.1245574951,-0.0220847428,-0.0661530495,-0.0006718040,-58.5672760010,84.6682815552,-144.7993164063,0.0152046680,0.0281570852,0.0166699290,43.5218658447,40.8974838257,-130.7260894775,0.0677936077,-0.0118352175,-0.0018157363,
353.403,-3.2567772865,1.3795334101,40.4006919861,0.0582547635,0.0426342897,0.0067885518,-106.8588485718,-8.6024360657,80.1223526001,-0.0333664417,-0.0661364794,0.0016893148,-58.5417251587,84.6712951660,-144.7654571533,0.0181392431,0.0305327773,0.0200782418,43.5239295959,40.9007759094,-130.7174835205,0.0610010624,-0.0113407373,-0.0086054802,
353.413,-3.2566440105,1.3804715872,40.4017677307,0.0612008199,0.0406788178,0.0097185373,-106.8556671143,-8.6066789627,80.1208953857,-0.0275802910,-0.0675965548,-0.0042251647,-58.5097274780,84.6714096069,-144.7248229980,0.0205808282,0.0256210268,0.0332170725,43.5222969055,40.9033317566,-130.7119750977,0.0664058924,-0.0186294317,-0.0056700706,
353.423,-3.2556567192,1.3812730312,40.4022674561,0.0592616796,0.0416381620,0.0053235292,-106.8508987427,-8.6109895706,80.1188278198,-0.0344906449,-0.0724657774,0.0098522305,-58.5080871582,84.6718826294,-144.7119140625,0.0156987906,0.0241461992,0.0249195099,43.5221633911,40.9047660828,-130.7049407959,0.0659365058,-0.0103158951,-0.0080999136,
353.433,-3.2550680637,1.3826309443,40.4040107727,0.0553791225,0.0401630327,0.0038585663,-106.8467483521,-8.6148509979,80.1131744385,-0.0360220969,-0.0670840740,0.0019689500,-58.4684524536,84.6740188599,-144.6603851318,0.0191202164,0.0284782350,0.0268331170,43.5186424255,40.9036560059,-130.6989746094,0.0698280931,-0.0102910995,-0.0022826195,
353.443,-3.2541816235,1.3855228424,40.4057083130,0.0568944253,0.0474717394,0.0185070038,-106.8453369141,-8.6204738617,80.1076202393,-0.0248886645,-0.0666024685,-0.0083129108,-58.4402961731,84.6758575439,-144.6175689697,0.0210763216,0.0377022624,0.0282761455,43.5151443481,40.9046783447,-130.6914367676,0.0639822483,-0.0087845325,-0.0062114596,
353.453,-3.2531895638,1.3839297295,40.4056892395,0.0632142872,0.0459896550,0.0048338175,-106.8384323120,-8.6260023117,80.0992279053,-0.0327965617,-0.0685352087,-0.0035480857,-58.3901367188,84.6753158569,-144.5533447266,0.0235168338,0.0279016197,0.0365004539,43.5131607056,40.9035415649,-130.6835021973,0.0732446313,-0.0107277632,-0.0042866468,
353.463,-3.2546668053,1.3839733601,40.4074478149,0.0578439534,0.0372263268,0.0043470263,-106.8281631470,-8.6365966797,80.0882186890,-0.0290731192,-0.0665570498,-0.0032379627,-58.3620796204,84.6752700806,-144.5104675293,0.0191222429,0.0234833062,0.0320656896,43.5127258301,40.9022178650,-130.6746826172,0.0649263859,-0.0073158741,-0.0111364126,
353.473,-3.2556343079,1.3852877617,40.4079818726,0.0573786050,0.0455439314,0.0023953319,-106.8218765259,-8.6500244141,80.0778274536,-0.0288165212,-0.0733954906,0.0010428131,-58.3396148682,84.6764144897,-144.4744110107,0.0171709657,0.0258871019,0.0300922990,43.5073738098,40.9026184082,-130.6695251465,0.0659081936,-0.0145859718,-0.0023937225,
353.483,-3.2530498505,1.3860250711,40.4109230042,0.0622742809,0.0469637364,0.0097174644,-106.8178176880,-8.6682472229,80.0705032349,-0.0296192467,-0.0685382485,-0.0044092238,-58.3008117676,84.6800155640,-144.4237213135,0.0220596194,0.0287324488,0.0256735682,43.5030021667,40.9050674438,-130.6656951904,0.0639873743,-0.0150129795,-0.0112010241,
353.493,-3.2515881062,1.3847026825,40.4133644104,0.0627394915,0.0474265814,0.0043444633,-106.8157958984,-8.6902885437,80.0677642822,-0.0295112431,-0.0676070452,-0.0093423128,-58.2937889099,84.6798782349,-144.4071807861,0.0230359435,0.0189626813,0.0266390443,43.5042190552,40.9099617004,-130.6575775146,0.0664933324,-0.0135213137,-0.0150565505,
353.503,-3.2515292168,1.3847823143,40.4133186340,0.0573697835,0.0405896157,0.0048326850,-106.8074645996,-8.7157306671,80.0680770874,-0.0265322030,-0.0749543905,0.0124736428,-58.3336563110,84.6811981201,-144.4393920898,0.0127841830,0.0223966837,0.0218241215,43.5012359619,40.9139137268,-130.6531677246,0.0577564240,-0.0163913965,-0.0033317208,
353.513,-3.2493875027,1.3852114677,40.4138641357,0.0603069589,0.0478765145,-0.0020052195,-106.8010559082,-8.7428455353,80.0727996826,-0.0328593552,-0.0686432123,0.0094169378,-58.3741455078,84.6786270142,-144.4734954834,0.0201042295,0.0180733800,0.0252775550,43.5032081604,40.9149513245,-130.6445007324,0.0646060109,-0.0154255629,-0.0003756881,
353.523,-3.2481627464,1.3838614225,40.4144897461,0.0627248138,0.0488317721,0.0111765862,-106.7929534912,-8.7705821991,80.0797882080,-0.0299198329,-0.0730679035,-0.0005039573,-58.4037094116,84.6760406494,-144.4980010986,0.0166820884,0.0230213702,0.0287126303,43.5049400330,40.9123382568,-130.6376647949,0.0655481815,-0.0115563869,0.0015715361,
353.533,-3.2506542206,1.3853799105,40.4161376953,0.0593333356,0.0356915519,0.0111796856,-106.7841415405,-8.7956790924,80.0859298706,-0.0367003679,-0.0662522316,-0.0011567771,-58.4606323242,84.6721115112,-144.5475921631,0.0142343044,0.0284951329,0.0297380090,43.5063896179,40.9101562500,-130.6284484863,0.0635662079,-0.0174468160,-0.0047810674,
353.543,-3.2486741543,1.3847620487,40.4178771973,0.0646936521,0.0449344106,0.0111775398,-106.7743225098,-8.8179883957,80.0905532837,-0.0390382707,-0.0672368407,0.0040346682,-58.5240478516,84.6694259644,-144.6039276123,0.0244838595,0.0256637633,0.0175935030,43.5150146484,40.9048004150,-130.6160888672,0.0737494826,-0.0029230714,-0.0101182461,
353.553,-3.2487735748,1.3871387243,40.4189949036,0.0539929308,0.0420063995,0.0092254877,-106.7631530762,-8.8466415405,80.0990142822,-0.0312316716,-0.0589542389,0.0043165982,-58.5596351624,84.6648330688,-144.6314697266,0.0156873465,0.0262458324,0.0263954401,43.5154266357,40.9032287598,-130.6071014404,0.0615217090,-0.0122166872,-0.0013384819,
353.563,-3.2501070499,1.3875628710,40.4201889038,0.0564417392,0.0420296192,0.0058084726,-106.7509231567,-8.8732233047,80.1048583984,-0.0365729034,-0.0628678203,0.0011638403,-58.5989952087,84.6631393433,-144.6583862305,0.0249619484,0.0214240551,0.0278992057,43.5208702087,40.9003448486,-130.5937347412,0.0722258687,-0.0044789910,-0.0144964457,
353.573,-3.2516429424,1.3866047859,40.4206733704,0.0657023638,0.0391267091,0.0126458406,-106.7414703369,-8.9008588791,80.1139068604,-0.0380259752,-0.0677753687,-0.0043843389,-58.5983428955,84.6639480591,-144.6447296143,0.0225218534,0.0214102566,0.0303481817,43.5220947266,40.8988342285,-130.5820007324,0.0692762136,-0.0113385320,-0.0096151233,
353.583,-3.2518992424,1.3868769407,40.4223709106,0.0637539923,0.0435257033,0.0121579766,-106.7334594727,-8.9307394028,80.1207809448,-0.0360997915,-0.0541407466,-0.0001459122,-58.6031570435,84.6643905640,-144.6370239258,0.0186163187,0.0204338431,0.0259624720,43.5186042786,40.8999443054,-130.5746765137,0.0648963451,-0.0166674256,-0.0037780404,
353.593,-3.2510740757,1.3867484331,40.4241333008,0.0608220547,0.0430230498,0.0111807585,-106.7278900146,-8.9589157104,80.1304855347,-0.0287730694,-0.0624874830,-0.0031892061,-58.6106414795,84.6640625000,-144.6314392090,0.0230103135,0.0189785361,0.0279247761,43.5148658752,40.8977050781,-130.5688323975,0.0765855908,-0.0156728029,-0.0072489977,
353.603,-3.2504038811,1.3887014389,40.4264068604,0.0598795712,0.0425230414,0.0053215027,-106.7215194702,-8.9873991013,80.1384735107,-0.0248695910,-0.0615534782,0.0015659332,-58.6031417847,84.6666641235,-144.6120910645,0.0186200142,0.0287016630,0.0274474621,43.5147209167,40.8975334167,-130.5614624023,0.0712122321,-0.0112780929,-0.0077390671,
353.613,-3.2505860329,1.3871241808,40.4282341003,0.0618051775,0.0415496975,0.0165513754,-106.7196121216,-9.0109167099,80.1478195190,-0.0321109295,-0.0630702376,-0.0058082938,-58.6389312744,84.6655654907,-144.6404418945,0.0181299448,0.0233752131,0.0284671187,43.5128517151,40.8991432190,-130.5558013916,0.0595146418,-0.0151540041,0.0005567670,
353.623,-3.2496500015,1.3875787258,40.4300384521,0.0564420111,0.0434864983,0.0053202510,-106.7207031250,-9.0362625122,80.1567230225,-0.0198525190,-0.0548413396,-0.0058101118,-58.6646499634,84.6644668579,-144.6616363525,0.0161750317,0.0214625001,0.0270273685,43.5160560608,40.8948287964,-130.5477600098,0.0745944977,-0.0103355646,-0.0097026825,
353.633,-3.2488782406,1.3870117664,40.4306182861,0.0598500893,0.0429847874,0.0077606440,-106.7217483521,-9.0581254959,80.1668930054,-0.0280418396,-0.0607632399,0.0005374551,-58.7115783691,84.6645355225,-144.7009582520,0.0191048384,0.0268715322,0.0212368369,43.5150451660,40.8939628601,-130.5418853760,0.0662822723,-0.0147273540,0.0000458956,
353.643,-3.2502422333,1.3870607615,40.4335823059,0.0603392273,0.0395905823,0.0082502961,-106.7209243774,-9.0749568939,80.1759338379,-0.0317499042,-0.0573855639,-0.0014426112,-58.7320365906,84.6631393433,-144.7164154053,0.0176377296,0.0239810944,0.0310180783,43.5160102844,40.8961563110,-130.5368194580,0.0599635243,-0.0166723728,-0.0067620873,
353.653,-3.2492060661,1.3869043589,40.4340705872,0.0647310242,0.0439670645,0.0048311949,-106.7206878662,-9.0871925354,80.1820755005,-0.0309842229,-0.0544869304,0.0024500191,-58.7529067993,84.6614532471,-144.7333984375,0.0225178003,0.0215809941,0.0261511803,43.5149612427,40.8924560547,-130.5320129395,0.0701686740,-0.0108321905,0.0039388537,
353.663,-3.2486829758,1.3888568878,40.4363365173,0.0579291582,0.0376102552,0.0111792088,-106.7137374878,-9.0959005356,80.1898727417,-0.0369936824,-0.0569170713,0.0096527338,-58.7620887756,84.6610107422,-144.7373504639,0.0220288038,0.0225734413,0.0217645764,43.5148391724,40.8909454346,-130.5261230469,0.0657542348,-0.0123075843,-0.0033979416,
353.673,-3.2471454144,1.3875051737,40.4381446838,0.0627883822,0.0434428677,0.0062942505,-106.7062835693,-9.1029806137,80.1944046021,-0.0366274118,-0.0622696877,-0.0012183785,-58.7353019714,84.6617507935,-144.7031097412,0.0200768709,0.0288848877,0.0300354958,43.5117607117,40.8893127441,-130.5224304199,0.0662209988,-0.0118028522,-0.0005109310,
353.683,-3.2466013432,1.3902435303,40.4386329651,0.0545353852,0.0444098935,0.0019003153,-106.6961212158,-9.1062955856,80.1997222900,-0.0313134491,-0.0573453903,0.0039822161,-58.7317886353,84.6619644165,-144.6907653809,0.0274014473,0.0235084593,0.0246607065,43.5111389160,40.8893547058,-130.5164184570,0.0647566319,-0.0103315115,-0.0053980947,
353.693,-3.2467820644,1.3928099871,40.4396972656,0.0575098544,0.0439246930,0.0058079362,-106.6888656616,-9.1094522476,80.2051696777,-0.0333209634,-0.0636657476,0.0028835237,-58.7322120667,84.6631088257,-144.6800231934,0.0205673575,0.0274001658,0.0295528173,43.5098457336,40.8892936707,-130.5109405518,0.0686621070,-0.0112963915,-0.0039464831,
353.703,-3.2486331463,1.3937165737,40.4401817322,0.0589905158,0.0380975418,0.0082511902,-106.6823806763,-9.1093797684,80.2099304199,-0.0299017429,-0.0602152348,0.0052177906,-58.7404861450,84.6633605957,-144.6776275635,0.0166615248,0.0220294595,0.0241984725,43.5069541931,40.8912811279,-130.5063781738,0.0638054609,-0.0141825676,-0.0049318075,
353.713,-3.2502174377,1.3953024149,40.4424743652,0.0570650585,0.0366602652,0.0111837983,-106.6738586426,-9.1090068817,80.2150039673,-0.0323367417,-0.0645669103,0.0143548548,-58.7027549744,84.6641693115,-144.6286773682,0.0161745548,0.0239417255,0.0309846997,43.5078048706,40.8896560669,-130.4984283447,0.0715965629,-0.0044380426,-0.0039618611,
353.723,-3.2487738132,1.3970793486,40.4441833496,0.0605140328,0.0473772585,0.0092290044,-106.6629943848,-9.1058340073,80.2202758789,-0.0352117419,-0.0664576292,0.0112479925,-58.6819343567,84.6669998169,-144.5971221924,0.0181322694,0.0282734632,0.0192645192,43.5078582764,40.8900871277,-130.4920196533,0.0681842566,-0.0102944970,-0.0078637004,
353.733,-3.2486016750,1.3980748653,40.4453353882,0.0566251539,0.0429797061,0.0072768927,-106.6574859619,-9.1006994247,80.2253036499,-0.0312170088,-0.0649524927,-0.0044634342,-58.6638488770,84.6669616699,-144.5695037842,0.0156908035,0.0219148397,0.0265591145,43.5042877197,40.8896522522,-130.4868774414,0.0735496283,-0.0151464939,-0.0030168891,
353.743,-3.2473196983,1.3989368677,40.4471397400,0.0551753491,0.0424690768,0.0106939077,-106.6474227905,-9.0940570831,80.2287673950,-0.0301259756,-0.0565838814,0.0051404834,-58.6437339783,84.6686553955,-144.5363922119,0.0181349516,0.0252872705,0.0280133486,43.5015335083,40.8887939453,-130.4822082520,0.0647492409,-0.0107323527,-0.0015840530,
353.753,-3.2464480400,1.3975391388,40.4495735168,0.0629634634,0.0453836061,0.0033677816,-106.6337356567,-9.0843381882,80.2314834595,-0.0338647366,-0.0662568212,0.0063875616,-58.6028747559,84.6690216064,-144.4842529297,0.0215535164,0.0276915431,0.0279554725,43.5003547668,40.8892936707,-130.4747772217,0.0715917349,-0.0136468410,-0.0108679533,
353.763,-3.2452023029,1.3955626488,40.4508285522,0.0624406934,0.0468267947,-0.0010285974,-106.6204910278,-9.0746421814,80.2326812744,-0.0361390114,-0.0617709160,0.0027577877,-58.5622177124,84.6698989868,-144.4317779541,0.0191135406,0.0222682059,0.0283972025,43.4976005554,40.8919944763,-130.4672851563,0.0691860318,-0.0160406828,-0.0108711720,
353.773,-3.2447342873,1.3974084854,40.4507293701,0.0556369647,0.0419357903,0.0102022290,-106.6074676514,-9.0677404404,80.2350997925,-0.0379731953,-0.0675483942,-0.0037989020,-58.5203590393,84.6700439453,-144.3780212402,0.0200903416,0.0232094526,0.0288248062,43.4944152832,40.8911209106,-130.4612274170,0.0760104060,-0.0130872726,0.0003241301,
353.783,-3.2453553677,1.3997154236,40.4494552612,0.0517709628,0.0424348377,0.0155748725,-106.5891799927,-9.0609493256,80.2362518311,-0.0363912880,-0.0684168339,0.0085990429,-58.4850769043,84.6735076904,-144.3301391602,0.0171662569,0.0260570943,0.0209941268,43.4912528992,40.8960952759,-130.4546966553,0.0604510307,-0.0130180120,-0.0089414716,
353.793,-3.2448399067,1.3989679813,40.4518203735,0.0629883930,0.0419375971,0.0077617764,-106.5683517456,-9.0572900772,80.2394561768,-0.0363282263,-0.0712347031,0.0116760731,-58.4540176392,84.6724777222,-144.2853240967,0.0161880255,0.0187206566,0.0282651782,43.4908638000,40.8986473083,-130.4474029541,0.0673206449,-0.0115293264,-0.0142946243,
353.803,-3.2471313477,1.3959022760,40.4530830383,0.0643997490,0.0429541469,0.0067862272,-106.5503540039,-9.0544700623,80.2435913086,-0.0328616500,-0.0667443275,0.0050331056,-58.3985290527,84.6735076904,-144.2160797119,0.0137482882,0.0201228261,0.0296601057,43.4897575378,40.9009933472,-130.4388122559,0.0649102330,-0.0080823302,-0.0084258318,
353.813,-3.2437279224,1.3965899944,40.4542312622,0.0595289320,0.0458245277,-0.0020064116,-106.5367126465,-9.0558996201,80.2501449585,-0.0260503590,-0.0696107745,-0.0039827228,-58.3620109558,84.6749420166,-144.1664886475,0.0147271752,0.0264183283,0.0296208262,43.4885787964,40.8996467590,-130.4309844971,0.0697752237,-0.0041754246,-0.0030767322,
353.823,-3.2439894676,1.3939615488,40.4554214478,0.0672955662,0.0414346196,0.0102000833,-106.5281295776,-9.0587596893,80.2583007813,-0.0246348083,-0.0627405643,-0.0041265190,-58.3758049011,84.6770401001,-144.1677093506,0.0157071352,0.0239583552,0.0203819275,43.4864768982,40.9005279541,-130.4235687256,0.0658806562,-0.0163553357,-0.0040651560,
353.833,-3.2447538376,1.3939279318,40.4565734863,0.0624121688,0.0482838675,0.0082478523,-106.5235595703,-9.0614786148,80.2678298950,-0.0285879076,-0.0612601042,0.0006781220,-58.3665657043,84.6777801514,-144.1465911865,0.0225442648,0.0224733055,0.0262359381,43.4898185730,40.9039421082,-130.4131469727,0.0610428452,-0.0129425526,-0.0108424425,
353.843,-3.2440660000,1.3927288055,40.4577178955,0.0662975013,0.0448539518,0.0033637881,-106.5220260620,-9.0646181107,80.2783813477,-0.0276654661,-0.0661438107,-0.0071619749,-58.3678779602,84.6749038696,-144.1367187500,0.0200982094,0.0220297277,0.0301167369,43.4891052246,40.9038925171,-130.4051818848,0.0688546896,-0.0173305869,-0.0079192519,
353.853,-3.2468030453,1.3920674324,40.4581642151,0.0667742342,0.0370891429,0.0116667151,-106.5166015625,-9.0686607361,80.2895584106,-0.0267586112,-0.0602684617,-0.0018837452,-58.3499832153,84.6746063232,-144.1088104248,0.0196094513,0.0229915977,0.0256971717,43.4902572632,40.9049072266,-130.3971862793,0.0649617910,-0.0144040585,-0.0083892941,
353.863,-3.2487421036,1.3914574385,40.4574737549,0.0618807860,0.0400526263,0.0072740316,-106.5078887939,-9.0713634491,80.2977752686,-0.0277817249,-0.0607211590,-0.0005651712,-58.3481178284,84.6756362915,-144.0992279053,0.0220525265,0.0244436264,0.0232590437,43.4898414612,40.9048004150,-130.3894958496,0.0674018264,-0.0134242177,0.0008842945,
353.873,-3.2514290810,1.3897916079,40.4586639404,0.0618517175,0.0371697880,0.0126470923,-106.5033950806,-9.0756721497,80.3058929443,-0.0307856798,-0.0660818815,-0.0113847256,-58.3462257385,84.6753463745,-144.0904541016,0.0200989246,0.0220007300,0.0286282897,43.4882507324,40.9064559937,-130.3842773438,0.0610759854,-0.0148609281,-0.0030233860,
353.883,-3.2505025864,1.3888010979,40.4591789246,0.0657406896,0.0435013250,0.0106925964,-106.4973831177,-9.0812330246,80.3115539551,-0.0289283991,-0.0650905371,-0.0090470910,-58.3181991577,84.6778488159,-144.0542144775,0.0210795403,0.0287806094,0.0261657238,43.4929275513,40.9083442688,-130.3753967285,0.0615891814,-0.0061017275,-0.0107777119,
353.893,-3.2514617443,1.3887737989,40.4620819092,0.0647636503,0.0410766229,0.0048341751,-106.4903717041,-9.0883998871,80.3141708374,-0.0270987749,-0.0587275028,-0.0052622259,-58.3359260559,84.6766281128,-144.0641937256,0.0196127295,0.0180680454,0.0188586116,43.4897384644,40.9082756042,-130.3708038330,0.0694007874,-0.0143725872,0.0009115338,
353.903,-3.2531549931,1.3889228106,40.4625892639,0.0613482818,0.0430592448,-0.0000467300,-106.4824676514,-9.0975437164,80.3154067993,-0.0292094946,-0.0699434280,-0.0010057092,-58.3375930786,84.6799850464,-144.0561676025,0.0225478411,0.0268127024,0.0164474249,43.4856834412,40.9095878601,-130.3663635254,0.0620938540,-0.0167648196,-0.0005791187,
353.913,-3.2502782345,1.3895968199,40.4643859863,0.0579420701,0.0459388085,0.0092277527,-106.4748458862,-9.1101121902,80.3156967163,-0.0294260681,-0.0694511533,-0.0001651049,-58.3140335083,84.6801376343,-144.0258331299,0.0225480795,0.0223939419,0.0339948535,43.4819297791,40.9104919434,-130.3620910645,0.0684534311,-0.0147686601,-0.0010940433,
353.923,-3.2523570061,1.3895002604,40.4655303955,0.0603817925,0.0415804870,0.0053236485,-106.4665603638,-9.1219396591,80.3194808960,-0.0350010097,-0.0733482838,-0.0012878776,-58.3075180054,84.6816787720,-144.0104217529,0.0210857391,0.0272503793,0.0237439871,43.4830589294,40.9118881226,-130.3549804688,0.0665187240,-0.0103739500,-0.0118143559,
353.933,-3.2524850368,1.3908323050,40.4641723633,0.0594284683,0.0420709662,0.0126485229,-106.4603118896,-9.1351146698,80.3235397339,-0.0357163250,-0.0640754700,-0.0111671686,-58.3095321655,84.6831512451,-144.0048675537,0.0162053108,0.0257641673,0.0252264142,43.4857482910,40.9121284485,-130.3470764160,0.0611507893,-0.0055149794,-0.0015339851,
353.943,-3.2537705898,1.3901156187,40.4659347534,0.0628339350,0.0420933813,0.0097198486,-106.4530944824,-9.1458129883,80.3294219971,-0.0359006822,-0.0616272688,0.0038419366,-58.3141708374,84.6799850464,-144.0039825439,0.0201064348,0.0219089687,0.0364340544,43.4837341309,40.9131622314,-130.3423767090,0.0680003762,-0.0137883425,-0.0054499507,
353.953,-3.2531771660,1.3889540434,40.4677429199,0.0618371069,0.0445244759,-0.0015117526,-106.4496536255,-9.1581888199,80.3348464966,-0.0302545428,-0.0616434813,0.0008456111,-58.3556022644,84.6797637939,-144.0378417969,0.0142467022,0.0248746276,0.0213567615,43.4841537476,40.9112586975,-130.3369140625,0.0694401264,-0.0118542910,-0.0039975047,
353.963,-3.2538027763,1.3873397112,40.4695167542,0.0637620613,0.0401408859,0.0077657700,-106.4464187622,-9.1672382355,80.3397293091,-0.0318753123,-0.0567689538,0.0081092119,-58.3794403076,84.6779174805,-144.0545654297,0.0147320032,0.0215092897,0.0238112807,43.4852333069,40.9104804993,-130.3317413330,0.0645470619,-0.0094292760,-0.0030172467,
353.973,-3.2541205883,1.3860368729,40.4707260132,0.0603213608,0.0391698852,0.0053236485,-106.4436721802,-9.1749019623,80.3440704346,-0.0320073664,-0.0641002059,-0.0031726956,-58.3858795166,84.6743927002,-144.0536193848,0.0181442499,0.0240027308,0.0301404595,43.4890556335,40.9087448120,-130.3224792480,0.0679421425,-0.0099678040,-0.0039733648,
353.983,-3.2527384758,1.3877447844,40.4718589783,0.0564449057,0.0450051464,0.0126475692,-106.4368972778,-9.1826372147,80.3471832275,-0.0336054862,-0.0596933365,-0.0013376474,-58.3799324036,84.6751251221,-144.0413055420,0.0244930983,0.0200842917,0.0306237340,43.4876060486,40.9081344604,-130.3181915283,0.0713520646,-0.0119118094,-0.0010620356,
353.993,-3.2516515255,1.3860517740,40.4730262756,0.0661809966,0.0440096855,0.0106927156,-106.4298706055,-9.1868820190,80.3462829590,-0.0351434648,-0.0533227921,-0.0034102798,-58.3697090149,84.6772613525,-144.0234527588,0.0215668678,0.0278557241,0.0208638906,43.4887809753,40.9099655151,-130.3122100830,0.0640519857,-0.0065375566,-0.0049422979,
354.003,-3.2526240349,1.3869042397,40.4747428894,0.0593599305,0.0410969220,0.0062994361,-106.4140243530,-9.1893043518,80.3427200317,-0.0342086554,-0.0615529418,-0.0017209053,-58.3079223633,84.6796875000,-143.9530181885,0.0181528330,0.0267902613,0.0354465246,43.4855232239,40.9135818481,-130.3062896729,0.0640997291,-0.0128255486,0.0009174347,
354.013,-3.2493495941,1.3857766390,40.4759979248,0.0598285422,0.0473875552,0.0087369680,-106.3968276978,-9.1916522980,80.3382034302,-0.0337608159,-0.0565924644,0.0043400824,-58.2936820984,84.6813125610,-143.9292602539,0.0215734243,0.0208950043,0.0256751180,43.4820899963,40.9159889221,-130.3020782471,0.0641314387,-0.0103324652,-0.0025122166,
354.023,-3.2496707439,1.3861596584,40.4753684998,0.0564172529,0.0434868969,0.0121555328,-106.3869857788,-9.1884784698,80.3324890137,-0.0390772223,-0.0560481548,-0.0104681253,-58.2374076843,84.6835250854,-143.8636169434,0.0147410631,0.0252082646,0.0304983854,43.4770393372,40.9191207886,-130.2988433838,0.0690555573,-0.0136772990,-0.0039960146,
354.033,-3.2493414879,1.3883284330,40.4770660400,0.0569433719,0.0434811115,0.0077615976,-106.3785705566,-9.1834421158,80.3275451660,-0.0375256240,-0.0594118834,0.0001388788,-58.1890335083,84.6860275269,-143.8064117432,0.0171865225,0.0226879716,0.0294762850,43.4729957581,40.9230003357,-130.2944335938,0.0632473826,-0.0140965581,-0.0015603900,
354.043,-3.2481319904,1.3916966915,40.4799385071,0.0574904270,0.0463896431,0.0145975947,-106.3690109253,-9.1815891266,80.3242568970,-0.0326108634,-0.0657081008,0.0038883090,-58.1323318481,84.6888275146,-143.7396850586,0.0181676149,0.0230860114,0.0294216275,43.4696807861,40.9247817993,-130.2908172607,0.0686419010,-0.0106327534,-0.0025512576,
354.053,-3.2492697239,1.3902332783,40.4816970825,0.0633242652,0.0361555927,0.0102037191,-106.3582077026,-9.1768407822,80.3202819824,-0.0344821811,-0.0666195750,0.0032252371,-58.0793647766,84.6922683716,-143.6797332764,0.0147551894,0.0254322588,0.0288890600,43.4650001526,40.9262619019,-130.2892456055,0.0618255138,-0.0125293732,0.0037661195,
354.063,-3.2507770061,1.3882657290,40.4835357666,0.0628016591,0.0435061194,0.0062980652,-106.3478393555,-9.1700706482,80.3157653809,-0.0377835035,-0.0680158734,-0.0062185526,-58.0310935974,84.6938476563,-143.6240539551,0.0137811899,0.0258553922,0.0351830721,43.4617614746,40.9288177490,-130.2870788574,0.0657654405,-0.0149196982,-0.0055195689,
354.073,-3.2501957417,1.3879421949,40.4853019714,0.0588897616,0.0381249003,-0.0024917126,-106.3366241455,-9.1623592377,80.3102645874,-0.0386272073,-0.0591521263,-0.0034681559,-57.9842605591,84.6982116699,-143.5671844482,0.0132999420,0.0296580195,0.0263671875,43.4595298767,40.9326667786,-130.2832794189,0.0614216328,-0.0143798590,-0.0045313835,
354.083,-3.2491095066,1.3865576982,40.4864654541,0.0652132630,0.0439653881,0.0136200190,-106.3248672485,-9.1578149796,80.3053054810,-0.0326895118,-0.0654306412,-0.0051239729,-57.9285049438,84.7003555298,-143.5026855469,0.0245338678,0.0276241899,0.0292386413,43.4561538696,40.9327774048,-130.2780151367,0.0736301541,-0.0167880058,-0.0055373311,
354.093,-3.2490520477,1.3870402575,40.4863586426,0.0603388697,0.0405464061,0.0077608824,-106.3111724854,-9.1486072540,80.3002090454,-0.0427847803,-0.0668047071,-0.0004605651,-57.9099884033,84.7018356323,-143.4746093750,0.0157471895,0.0207513869,0.0233661532,43.4607772827,40.9344406128,-130.2677612305,0.0677927732,-0.0065653324,-0.0128064156,
354.103,-3.2484109402,1.3864774704,40.4880867004,0.0642352998,0.0424883775,0.0043419600,-106.2993164063,-9.1404485703,80.2967605591,-0.0441090167,-0.0677021742,0.0003261268,-57.8829460144,84.7055358887,-143.4369354248,0.0221008062,0.0289762616,0.0258022547,43.4564094543,40.9366683960,-130.2652282715,0.0658689737,-0.0192011595,-0.0055024028,
354.113,-3.2494812012,1.3874870539,40.4898490906,0.0564404130,0.0429952778,-0.0010277033,-106.2906494141,-9.1378211975,80.2958145142,-0.0333215594,-0.0627706051,0.0050678849,-57.8135185242,84.7073135376,-143.3563842773,0.0260099173,0.0293773711,0.0320690870,43.4551277161,40.9374046326,-130.2589569092,0.0663669705,-0.0099059343,-0.0069738626,
354.123,-3.2479391098,1.3901678324,40.4903297424,0.0569754690,0.0478511713,0.0053196549,-106.2888488770,-9.1385040283,80.2998657227,-0.0391927063,-0.0647168159,-0.0022867024,-57.7840652466,84.7086410522,-143.3137054443,0.0167347193,0.0195631981,0.0227655768,43.4531669617,40.9401588440,-130.2530517578,0.0556610823,-0.0093770623,-0.0040380955,
354.133,-3.2485334873,1.3912866116,40.4914169312,0.0604129583,0.0424903966,0.0053206086,-106.2920989990,-9.1408529282,80.3059158325,-0.0353269279,-0.0666918755,0.0002065301,-57.7974739075,84.7130889893,-143.3168334961,0.0147887468,0.0229334831,0.0184264183,43.4509963989,40.9420852661,-130.2469940186,0.0664286613,-0.0083647966,-0.0045308471,
354.143,-3.2491064072,1.3936802149,40.4918975830,0.0560601912,0.0425003208,0.0126463771,-106.2988128662,-9.1442260742,80.3136978149,-0.0368498862,-0.0662449598,-0.0001732409,-57.7773590088,84.7152023315,-143.2891235352,0.0094210505,0.0228821635,0.0262328386,43.4475784302,40.9423484802,-130.2424011230,0.0674086809,-0.0107712746,-0.0016296506,
354.153,-3.2482774258,1.3917145729,40.4930763245,0.0648149550,0.0410210863,0.0062971115,-106.3014526367,-9.1480360031,80.3216934204,-0.0344741046,-0.0696858168,0.0076799393,-57.7754745483,84.7162017822,-143.2801971436,0.0177234411,0.0238471627,0.0277002454,43.4464683533,40.9420356750,-130.2382354736,0.0713108182,-0.0132045746,-0.0050604343,
354.163,-3.2470235825,1.3922286034,40.4947395325,0.0648239255,0.0424640775,0.0062960386,-106.3002243042,-9.1540288925,80.3305892944,-0.0394602120,-0.0706722140,0.0110726058,-57.7438926697,84.7138671875,-143.2412414551,0.0177196860,0.0233607590,0.0344741344,43.4464302063,40.9430084229,-130.2335205078,0.0723001957,-0.0171028376,-0.0060292482,
354.173,-3.2459595203,1.3920502663,40.4958877563,0.0604262799,0.0419572666,-0.0015176535,-106.3023300171,-9.1621189117,80.3394851685,-0.0347167850,-0.0658214092,0.0018240809,-57.7438163757,84.7132415771,-143.2334136963,0.0201600790,0.0214203000,0.0237229466,43.4484100342,40.9436264038,-130.2274322510,0.0635192990,-0.0141871572,-0.0099123120,
354.183,-3.2456688881,1.3917552233,40.4983253479,0.0594445765,0.0453701690,0.0131304264,-106.3027343750,-9.1737012863,80.3558731079,-0.0368694961,-0.0682957768,0.0194000006,-57.7537422180,84.7127227783,-143.2371520996,0.0186944008,0.0189914703,0.0320360661,43.4426841736,40.9450302124,-130.2248382568,0.0664675236,-0.0194923878,0.0032312870,
354.193,-3.2459886074,1.3917837143,40.4988098145,0.0643278807,0.0434226170,0.0111775994,-106.3073883057,-9.1865510941,80.3761520386,-0.0361143053,-0.0610281229,0.0121424794,-57.7289810181,84.7124176025,-143.2056427002,0.0191822052,0.0267882645,0.0378564596,43.4450225830,40.9431304932,-130.2169189453,0.0766963363,-0.0141586065,-0.0045759082,
354.203,-3.2421267033,1.3905724287,40.5006408691,0.0623536259,0.0472616181,0.0077553391,-106.3191986084,-9.1972513199,80.3998413086,-0.0431346297,-0.0576961040,0.0064701736,-57.7462768555,84.7114257813,-143.2167358398,0.0167391896,0.0199806690,0.0334781408,43.4434623718,40.9433403015,-130.2110748291,0.0644921064,-0.0170717239,0.0007828474,
354.213,-3.2394351959,1.3894170523,40.5000190735,0.0618451834,0.0433085114,0.0126348734,-106.3316421509,-9.2101707458,80.4268264771,-0.0370095372,-0.0695097446,0.0076425374,-57.7446022034,84.7098312378,-143.2100677490,0.0182014704,0.0229338408,0.0334595442,43.4436912537,40.9442596436,-130.2058105469,0.0596213937,-0.0141370296,-0.0021371841,
354.223,-3.2415342331,1.3870741129,40.5006179810,0.0642457083,0.0413920097,0.0160542130,-106.3418197632,-9.2232112885,80.4546279907,-0.0362576544,-0.0651994348,0.0038943291,-57.7966766357,84.7106475830,-143.2552642822,0.0201559067,0.0302887261,0.0223123431,43.4465866089,40.9431304932,-130.1967926025,0.0600947738,-0.0156384706,-0.0050499439,
354.233,-3.2411308289,1.3859645128,40.5018157959,0.0617849454,0.0438264124,0.0053112507,-106.3494110107,-9.2344112396,80.4835205078,-0.0364505947,-0.0701490045,0.0108469427,-57.8487014771,84.7080459595,-143.3010101318,0.0191751719,0.0230526328,0.0316346288,43.4486923218,40.9417381287,-130.1868438721,0.0674006939,-0.0117632747,-0.0035776496,
354.243,-3.2404122353,1.3878365755,40.5035667419,0.0559582338,0.0447904170,0.0116589665,-106.3639221191,-9.2434034348,80.5174865723,-0.0453945696,-0.0565718412,0.0144978762,-57.8884391785,84.7068252563,-143.3338623047,0.0157552361,0.0245654285,0.0253354907,43.4517974854,40.9410133362,-130.1773529053,0.0625082850,-0.0113105178,-0.0035560727,
354.253,-3.2431740761,1.3897565603,40.5046539307,0.0574565753,0.0414205119,0.0004315376,-106.3827590942,-9.2555303574,80.5575866699,-0.0407206416,-0.0615786314,0.0191942453,-57.8948326111,84.7045745850,-143.3309478760,0.0196578503,0.0221661925,0.0316683054,43.4549102783,40.9408569336,-130.1676025391,0.0649476051,-0.0054820776,-0.0084110498,
354.263,-3.2450881004,1.3899083138,40.5070304871,0.0574592277,0.0399890058,0.0004341602,-106.4097442627,-9.2636022568,80.6049804688,-0.0457425117,-0.0592904091,0.0118218064,-57.9318084717,84.7042694092,-143.3579101563,0.0206339359,0.0241522193,0.0229316354,43.4526062012,40.9401779175,-130.1606597900,0.0620090365,-0.0118130445,0.0003507733,
354.273,-3.2466471195,1.3892015219,40.5076980591,0.0559820458,0.0434341505,0.0053176880,-106.4407196045,-9.2728843689,80.6565933228,-0.0376016200,-0.0526299477,0.0128141940,-57.9636039734,84.7061309814,-143.3771057129,0.0216134787,0.0236698687,0.0244538188,43.4517402649,40.9383430481,-130.1502685547,0.0678441525,-0.0093777776,-0.0001596212,
354.283,-3.2474260330,1.3905770779,40.5088233948,0.0574708916,0.0439359657,0.0082489848,-106.4783401489,-9.2778034210,80.7109756470,-0.0318269730,-0.0533150434,-0.0017045736,-57.9986724854,84.7061996460,-143.4029083252,0.0206370354,0.0212542713,0.0289014578,43.4496841431,40.9369544983,-130.1431884766,0.0678258538,-0.0137636662,-0.0026324987,
354.293,-3.2447602749,1.3858046532,40.5095977783,0.0637352765,0.0453544930,0.0043379068,-106.5090484619,-9.2770071030,80.7630615234,-0.0293718576,-0.0524866581,0.0071043372,-58.0146751404,84.7063064575,-143.4076995850,0.0123364329,0.0232223570,0.0298992395,43.4470787048,40.9369239807,-130.1383666992,0.0653840899,-0.0171567202,-0.0090030432,
354.303,-3.2424860001,1.3853690624,40.5119743347,0.0617745519,0.0438500345,0.0043357015,-106.5390319824,-9.2691888809,80.8128128052,-0.0287488997,-0.0584716797,-0.0026479959,-58.0379371643,84.7047195435,-143.4228363037,0.0196580887,0.0203324258,0.0265026689,43.4491539001,40.9351310730,-130.1307067871,0.0687783957,-0.0118197799,-0.0129062533,
354.313,-3.2420818806,1.3858183622,40.5124664307,0.0627589524,0.0438429900,0.0087299347,-106.5660324097,-9.2575855255,80.8638153076,-0.0324552655,-0.0536900163,-0.0056107044,-58.0327453613,84.7081222534,-143.4109954834,0.0206401348,0.0271191597,0.0177332163,43.4504776001,40.9332542419,-130.1242828369,0.0697301626,-0.0128235817,-0.0070493221,
354.323,-3.2417066097,1.3846476078,40.5136833191,0.0622502491,0.0457895994,0.0121469498,-106.5880661011,-9.2427530289,80.9139251709,-0.0326880515,-0.0596179962,-0.0076761246,-58.0146751404,84.7092361450,-143.3864746094,0.0196653605,0.0202473998,0.0221157670,43.4487304688,40.9344291687,-130.1220397949,0.0692573786,-0.0157275200,-0.0036387444,
354.333,-3.2396879196,1.3831279278,40.5160903931,0.0656417012,0.0472193174,0.0062849522,-106.6067962646,-9.2293090820,80.9640502930,-0.0344095528,-0.0601620674,0.0048507154,-57.9214477539,84.7133865356,-143.2874603271,0.0255314112,0.0240144432,0.0312980413,43.4453697205,40.9373931885,-130.1182403564,0.0663667917,-0.0122538805,0.0007510185,
354.343,-3.2411274910,1.3814792633,40.5166740417,0.0636598021,0.0438264646,0.0082389712,-106.6287994385,-9.2166166306,81.0180664063,-0.0366323292,-0.0617011786,-0.0011235178,-57.8482513428,84.7185745239,-143.2066955566,0.0260280371,0.0243634880,0.0302662849,43.4407844543,40.9416275024,-130.1168060303,0.0669109225,-0.0112003088,-0.0075571537,
354.353,-3.2406151295,1.3810886145,40.5166282654,0.0592584610,0.0399112962,0.0121445656,-106.6507110596,-9.2022457123,81.0694198608,-0.0383378565,-0.0627475381,0.0065743327,-57.8069000244,84.7243652344,-143.1564788818,0.0216428041,0.0266855657,0.0253781080,43.4390373230,40.9433860779,-130.1128234863,0.0718169212,-0.0092164278,-0.0095105171,
354.363,-3.2389302254,1.3797726631,40.5166625977,0.0602120608,0.0462296307,0.0077477694,-106.6770477295,-9.1826839447,81.1234588623,-0.0370242596,-0.0716142654,-0.0042059422,-57.7302932739,84.7287902832,-143.0712280273,0.0162788033,0.0329021513,0.0336123109,43.4366416931,40.9460449219,-130.1069488525,0.0674574375,-0.0091726780,-0.0046281815,
354.373,-3.2403063774,1.3796908855,40.5178527832,0.0582575090,0.0418590792,0.0072607994,-106.6996536255,-9.1659440994,81.1764831543,-0.0323413014,-0.0711932182,0.0000869632,-57.6775550842,84.7300872803,-143.0074310303,0.0162808895,0.0264900327,0.0355033278,43.4358139038,40.9463539124,-130.0996704102,0.0645318031,-0.0072091818,-0.0031678677,
354.383,-3.2385361195,1.3813958168,40.5202026367,0.0563341305,0.0442696102,0.0009121895,-106.7177429199,-9.1493082047,81.2286758423,-0.0330312252,-0.0687972307,0.0057702959,-57.6454811096,84.7311248779,-142.9616546631,0.0138411522,0.0249805450,0.0266804099,43.4370574951,40.9473190308,-130.0896453857,0.0669859648,-0.0135611296,-0.0153555274,
354.393,-3.2373785973,1.3794693947,40.5213737488,0.0670427084,0.0442494899,0.0116523504,-106.7322006226,-9.1329870224,81.2795639038,-0.0307968557,-0.0698019266,0.0045566559,-57.6558914185,84.7336654663,-142.9582366943,0.0275170803,0.0259328783,0.0203678012,43.4356994629,40.9459609985,-130.0827178955,0.0684328675,-0.0086759329,-0.0026838183,
354.403,-3.2388076782,1.3803582191,40.5218238831,0.0611988418,0.0374384262,0.0082357526,-106.7482376099,-9.1190643311,81.3304214478,-0.0222561359,-0.0678915977,-0.0083507895,-57.6703491211,84.7341842651,-142.9588775635,0.0167757273,0.0220298767,0.0208825469,43.4355392456,40.9458541870,-130.0751190186,0.0689197779,-0.0116050839,-0.0065928698,
354.413,-3.2407743931,1.3802791834,40.5235595703,0.0582677759,0.0355195589,0.0043321252,-106.7637634277,-9.1090488434,81.3813018799,-0.0294077694,-0.0645242333,0.0016790926,-57.6596679688,84.7348480225,-142.9375152588,0.0138471127,0.0234763026,0.0272209644,43.4334449768,40.9466819763,-130.0700378418,0.0674658418,-0.0115783215,-0.0051391125,
354.423,-3.2377357483,1.3784704208,40.5254135132,0.0645838678,0.0486502573,0.0111637115,-106.7817459106,-9.1008996964,81.4344711304,-0.0243844986,-0.0670334101,-0.0024121404,-57.6672439575,84.7336654663,-142.9342498779,0.0157983303,0.0176395774,0.0189208984,43.4276618958,40.9447669983,-130.0677185059,0.0679289103,-0.0159327388,0.0026040673,
354.433,-3.2368364334,1.3772668839,40.5271835327,0.0665159971,0.0476580635,0.0053030252,-106.8038787842,-9.0962991714,81.4913787842,-0.0291880369,-0.0612721443,-0.0098555088,-57.6777534485,84.7327651978,-142.9365081787,0.0167734623,0.0191281438,0.0277149677,43.4266319275,40.9463119507,-130.0620880127,0.0611132979,-0.0134691000,-0.0037390590,
354.443,-3.2400188446,1.3770473003,40.5276336670,0.0650473237,0.0399010070,0.0072594881,-106.8222808838,-9.0900983810,81.5458297729,-0.0324991643,-0.0647654533,-0.0027109683,-57.6777687073,84.7304229736,-142.9325866699,0.0157931447,0.0230660439,0.0252539515,43.4268989563,40.9457550049,-130.0565032959,0.0655004978,-0.0159176588,-0.0027657151,
354.453,-3.2395038605,1.3775212765,40.5294303894,0.0587079376,0.0462396778,0.0111649036,-106.8441772461,-9.0888214111,81.6026458740,-0.0256412029,-0.0663360357,-0.0057666898,-57.7162437439,84.7310638428,-142.9652404785,0.0143293142,0.0265100002,0.0209177732,43.4286804199,40.9427413940,-130.0516204834,0.0654607415,-0.0125403404,-0.0042392015,
354.463,-3.2386412621,1.3778953552,40.5299720764,0.0587144643,0.0432949550,0.0082352757,-106.8624649048,-9.0843200684,81.6598968506,-0.0289815962,-0.0732514858,-0.0030198097,-57.7148704529,84.7304992676,-142.9618530273,0.0231174827,0.0235884786,0.0301868916,43.4312438965,40.9414100647,-130.0447082520,0.0639783740,-0.0145285130,0.0011442900,
354.473,-3.2400100231,1.3810093403,40.5291023254,0.0592570752,0.0379476286,-0.0015283823,-106.8812561035,-9.0775728226,81.7174224854,-0.0400957763,-0.0674680471,-0.0031930208,-57.7491111755,84.7303924561,-142.9910278320,0.0216524601,0.0241057873,0.0263294578,43.4384689331,40.9408302307,-130.0347595215,0.0610410571,-0.0063014030,-0.0070958138,
354.483,-3.2396826744,1.3796445131,40.5322265625,0.0567918569,0.0433130562,0.0106780529,-106.8999710083,-9.0724010468,81.7739486694,-0.0375652313,-0.0665718317,0.0107921362,-57.7727203369,84.7311706543,-143.0094299316,0.0231185555,0.0275357962,0.0219728947,43.4376220703,40.9399185181,-130.0275573730,0.0683532953,-0.0126481652,-0.0051580667,
354.493,-3.2414214611,1.3800216913,40.5327453613,0.0587515645,0.0384605229,0.0097033381,-106.9177932739,-9.0702104568,81.8307571411,-0.0360626578,-0.0637255907,0.0081581175,-57.7399902344,84.7289352417,-142.9693298340,0.0206735730,0.0236308873,0.0346040726,43.4364776611,40.9393463135,-130.0209655762,0.0644394159,-0.0121533871,-0.0012669563,
354.503,-3.2424597740,1.3813469410,40.5344314575,0.0577981248,0.0365254581,0.0092167854,-106.9369812012,-9.0718040466,81.8864669800,-0.0331604183,-0.0613846779,-0.0042219758,-57.7067146301,84.7284545898,-142.9266967773,0.0187196732,0.0240978897,0.0306460261,43.4356002808,40.9407615662,-130.0140686035,0.0668995380,-0.0111573339,-0.0085871220,
354.513,-3.2406265736,1.3817955256,40.5355567932,0.0607356429,0.0423528850,0.0087268949,-106.9503860474,-9.0753517151,81.9403762817,-0.0293152928,-0.0682974458,-0.0015620291,-57.6865463257,84.7311248779,-142.8951568604,0.0177474022,0.0230641365,0.0238074064,43.4344291687,40.9410514832,-130.0076141357,0.0664150715,-0.0047960877,-0.0056656599,
354.523,-3.2395529747,1.3846945763,40.5384521484,0.0568799749,0.0437989570,0.0111680031,-106.9607543945,-9.0738506317,81.9894943237,-0.0297777355,-0.0683450699,-0.0140856802,-57.6488342285,84.7311248779,-142.8451080322,0.0221419334,0.0249845386,0.0335201025,43.4323997498,40.9412078857,-130.0028686523,0.0688585043,-0.0111231804,-0.0061711073,
354.533,-3.2408499718,1.3855686188,40.5413932800,0.0598249100,0.0418683998,0.0150761604,-106.9631576538,-9.0732936859,82.0331344604,-0.0283032954,-0.0620083213,-0.0037913918,-57.6313438416,84.7318801880,-142.8170623779,0.0114009380,0.0269118547,0.0291078687,43.4316253662,40.9438743591,-129.9941406250,0.0605928898,-0.0081651211,-0.0061560273,
354.543,-3.2434079647,1.3872133493,40.5437202454,0.0544825122,0.0355652720,0.0033607483,-106.9665603638,-9.0713338852,82.0679702759,-0.0243632793,-0.0620201230,0.0035902262,-57.5762939453,84.7328109741,-142.7503509521,0.0231211782,0.0244084597,0.0383172035,43.4293746948,40.9443855286,-129.9882354736,0.0649941564,-0.0120458603,-0.0008015633,
354.553,-3.2448129654,1.3868234158,40.5455322266,0.0593585223,0.0438905321,0.0043384433,-106.9707031250,-9.0669889450,82.1030273438,-0.0277063251,-0.0654475689,0.0021973252,-57.5643882751,84.7327651978,-142.7253570557,0.0172617435,0.0224453807,0.0270696878,43.4232368469,40.9487113953,-129.9854583740,0.0601683855,-0.0178123713,0.0006439686,
354.563,-3.2444009781,1.3881028891,40.5448684692,0.0554746017,0.0438833348,0.0141043067,-106.9787902832,-9.0650577545,82.1374588013,-0.0227902234,-0.0591354370,-0.0045037866,-57.4964408875,84.7352600098,-142.6486206055,0.0221485496,0.0262559652,0.0299277902,43.4198989868,40.9510269165,-129.9814910889,0.0694761872,-0.0153208971,-0.0096210241,
354.573,-3.2439181805,1.3886781931,40.5460548401,0.0559729151,0.0419217832,0.0077559948,-106.9855117798,-9.0656204224,82.1682052612,-0.0188936889,-0.0669833422,0.0009778142,-57.4650764465,84.7379074097,-142.6107788086,0.0197113752,0.0242358744,0.0211206079,43.4153022766,40.9565315247,-129.9786682129,0.0671073794,-0.0152334571,-0.0101050138,
354.583,-3.2450797558,1.3865240812,40.5477981567,0.0676540807,0.0404772237,0.0043389797,-106.9910583496,-9.0674858093,82.2000122070,-0.0267383456,-0.0699458122,0.0005795360,-57.4052009583,84.7400283813,-142.5451660156,0.0187382102,0.0226897895,0.0322857499,43.4152603149,40.9589767456,-129.9741363525,0.0749521255,-0.0093545318,-0.0100851059,
354.593,-3.2453298569,1.3860394955,40.5484542847,0.0573917218,0.0458526872,0.0067793727,-106.9980926514,-9.0689888000,82.2319183350,-0.0336001813,-0.0636373758,-0.0056536198,-57.3792076111,84.7416687012,-142.5139465332,0.0172759891,0.0202001333,0.0254303813,43.4132881165,40.9616546631,-129.9707336426,0.0666866899,-0.0127325058,-0.0100806355,
354.603,-3.2451918125,1.3853261471,40.5508651733,0.0607972406,0.0448737368,0.0097093582,-107.0050048828,-9.0735025406,82.2628021240,-0.0297717452,-0.0700318813,0.0017811656,-57.3376998901,84.7456893921,-142.4678039551,0.0158175826,0.0269420445,0.0234564543,43.4145431519,40.9641876221,-129.9647216797,0.0623254776,-0.0073535442,-0.0061420202,
354.613,-3.2450165749,1.3844811916,40.5525703430,0.0656653121,0.0385230482,0.0155682564,-107.0133895874,-9.0768032074,82.2927093506,-0.0303168893,-0.0725241899,0.0019168258,-57.3246879578,84.7478561401,-142.4501647949,0.0133796334,0.0249469280,0.0234580040,43.4186477661,40.9670600891,-129.9565887451,0.0618750453,-0.0054172277,-0.0094990730,
354.623,-3.2449738979,1.3862898350,40.5537261963,0.0539781190,0.0424285159,0.0141041279,-107.0218276978,-9.0784025192,82.3216705322,-0.0357155502,-0.0701296329,-0.0077109933,-57.3565101624,84.7476272583,-142.4763183594,0.0124027133,0.0274198353,0.0264294147,43.4200973511,40.9650001526,-129.9485015869,0.0618479252,-0.0098417401,0.0027040243,
354.633,-3.2454900742,1.3876472712,40.5548057556,0.0598611794,0.0404843502,0.0136168003,-107.0296020508,-9.0799274445,82.3470535278,-0.0318355858,-0.0594305992,-0.0066074431,-57.3694877625,84.7458038330,-142.4849243164,0.0148411989,0.0240393877,0.0318018794,43.4230079651,40.9593467712,-129.9402008057,0.0744687319,-0.0104023218,0.0012185574,
354.643,-3.2449045181,1.3841392994,40.5560722351,0.0661476254,0.0443804823,0.0116616488,-107.0393981934,-9.0797405243,82.3689956665,-0.0293909609,-0.0653389692,-0.0040045381,-57.4016151428,84.7421493530,-142.5100860596,0.0187416077,0.0226544738,0.0259540081,43.4263420105,40.9549522400,-129.9312133789,0.0685514212,-0.0143750906,-0.0066002607,
354.653,-3.2445890903,1.3845825195,40.5566101074,0.0583428591,0.0414452851,0.0043374300,-107.0498352051,-9.0819025040,82.3878936768,-0.0216157138,-0.0663735867,-0.0062760115,-57.4328918457,84.7375717163,-142.5363159180,0.0211756825,0.0198181868,0.0293732882,43.4334220886,40.9536132813,-129.9195709229,0.0685337782,-0.0115237832,-0.0124066472,
354.663,-3.2419760227,1.3850451708,40.5577278137,0.0627454668,0.0472591296,0.0062880516,-107.0569000244,-9.0832967758,82.4050521851,-0.0314053595,-0.0634837747,0.0016525388,-57.4568099976,84.7351531982,-142.5538635254,0.0231249332,0.0208526254,0.0279177427,43.4337768555,40.9497451782,-129.9123992920,0.0699476004,-0.0130224228,-0.0016933680,
354.673,-3.2419431210,1.3850059509,40.5576210022,0.0622565001,0.0404226184,0.0101942420,-107.0593643188,-9.0897283554,82.4205932617,-0.0261451304,-0.0659539700,0.0060817003,-57.4634590149,84.7318801880,-142.5549468994,0.0182368755,0.0223655403,0.0313189030,43.4401741028,40.9483604431,-129.9015502930,0.0713942051,-0.0096765757,-0.0094593763,
354.683,-3.2407910824,1.3858933449,40.5593414307,0.0617837012,0.0462618992,0.0175178051,-107.0597686768,-9.0976181030,82.4330139160,-0.0345818698,-0.0591413975,-0.0002651811,-57.4644355774,84.7315063477,-142.5513610840,0.0265370607,0.0238404274,0.0278955102,43.4427528381,40.9476013184,-129.8947753906,0.0665013790,-0.0097072124,-0.0060243607,
354.693,-3.2399907112,1.3873549700,40.5598716736,0.0569263920,0.0452713668,0.0043339729,-107.0604705811,-9.1055183411,82.4457397461,-0.0288586318,-0.0645365715,-0.0027016997,-57.4667091370,84.7329940796,-142.5473175049,0.0172621012,0.0238175690,0.0264505744,43.4459152222,40.9491920471,-129.8868255615,0.0709168911,-0.0092366934,-0.0123298764,
354.703,-3.2411124706,1.3878293037,40.5622367859,0.0588877946,0.0404080823,0.0131242275,-107.0618820190,-9.1112508774,82.4554290771,-0.0333519578,-0.0626061559,0.0002472401,-57.4399948120,84.7323226929,-142.5130157471,0.0236086845,0.0218545794,0.0307983160,43.4430961609,40.9470748901,-129.8825988770,0.0708889961,-0.0092264414,-0.0011431575,
354.713,-3.2416749001,1.3889870644,40.5640068054,0.0564665869,0.0423709825,0.0165432692,-107.0685195923,-9.1155405045,82.4648361206,-0.0348907411,-0.0577679873,0.0003527999,-57.4011917114,84.7338485718,-142.4637298584,0.0182400346,0.0276543200,0.0302731991,43.4414634705,40.9476776123,-129.8768157959,0.0665023923,-0.0111590624,-0.0084767342,
354.723,-3.2399861813,1.3871437311,40.5646781921,0.0598523915,0.0462478548,0.0023807287,-107.0758132935,-9.1228942871,82.4716262817,-0.0306229293,-0.0627070665,-0.0005096495,-57.3677520752,84.7359695435,-142.4207916260,0.0211731195,0.0227155089,0.0282896161,43.4401321411,40.9484672546,-129.8713378906,0.0626065731,-0.0091869831,-0.0016462207,
354.733,-3.2409579754,1.3866968155,40.5671043396,0.0598445944,0.0452882312,0.0092176199,-107.0809783936,-9.1308565140,82.4763717651,-0.0273421705,-0.0700784922,-0.0004308820,-57.3602447510,84.7383575439,-142.4026489258,0.0182472467,0.0246244371,0.0243979096,43.4355010986,40.9503822327,-129.8657073975,0.0640966892,-0.0140104294,-0.0046021342,
354.743,-3.2419550419,1.3871246576,40.5688629150,0.0608286262,0.0453055874,0.0058003664,-107.0833129883,-9.1383628845,82.4776229858,-0.0308894813,-0.0681569576,-0.0052815378,-57.3464622498,84.7393188477,-142.3764801025,0.0182487965,0.0270429254,0.0321973562,43.4371986389,40.9507026672,-129.8563079834,0.0641008615,-0.0042585731,-0.0148380995,
354.753,-3.2404978275,1.3817862272,40.5677223206,0.0700128227,0.0433272049,0.0131210685,-107.0789260864,-9.1467304230,82.4755249023,-0.0281039774,-0.0754811764,-0.0024308860,-57.3822479248,84.7384262085,-142.4009094238,0.0192239285,0.0207356811,0.0185703039,43.4351921082,40.9500160217,-129.8489990234,0.0723925829,-0.0135220289,-0.0099788308,
354.763,-3.2398238182,1.3813142776,40.5682868958,0.0597506799,0.0403857902,0.0145852566,-107.0725021362,-9.1577177048,82.4740142822,-0.0248753428,-0.0749897957,-0.0035220683,-57.3891372681,84.7407379150,-142.3959197998,0.0143448114,0.0329203308,0.0244566202,43.4376411438,40.9488487244,-129.8390655518,0.0689592361,-0.0076953173,-0.0055718422,
354.773,-3.2413072586,1.3802632093,40.5707206726,0.0597323440,0.0413882211,0.0067737699,-107.0689315796,-9.1702280045,82.4699478149,-0.0304619968,-0.0667039156,-0.0114039183,-57.4233093262,84.7369003296,-142.4195709229,0.0182449222,0.0188411772,0.0283786058,43.4393959045,40.9467315674,-129.8302612305,0.0625836849,-0.0116350651,-0.0060619116,
354.783,-3.2414546013,1.3794599771,40.5718383789,0.0650894195,0.0418790840,0.0077501535,-107.0625686646,-9.1859264374,82.4647903442,-0.0268262327,-0.0667136908,-0.0012674332,-57.4893913269,84.7364883423,-142.4735107422,0.0255684853,0.0218401849,0.0167436004,43.4400215149,40.9439849854,-129.8218688965,0.0625474453,-0.0136157274,-0.0026611090,
354.793,-3.2418348789,1.3789674044,40.5735282898,0.0665456653,0.0409091599,0.0145858526,-107.0627059937,-9.2020578384,82.4593048096,-0.0300338268,-0.0701752901,-0.0134854615,-57.5267677307,84.7332839966,-142.4978942871,0.0216571093,0.0228911042,0.0245824456,43.4408683777,40.9408378601,-129.8132476807,0.0664122105,-0.0116955638,-0.0051209331,
354.803,-3.2407796383,1.3802617788,40.5764579773,0.0607088804,0.0457735546,0.0209336877,-107.0628356934,-9.2190895081,82.4476165771,-0.0273975730,-0.0628971457,-0.0032435060,-57.5305709839,84.7305755615,-142.4924011230,0.0192113519,0.0258653164,0.0309085846,43.4419250488,40.9358940125,-129.8034667969,0.0717181563,-0.0063734055,0.0002186298,
354.813,-3.2390530109,1.3811088800,40.5758056641,0.0568174087,0.0442786217,0.0082364082,-107.0574874878,-9.2393436432,82.4344329834,-0.0238402486,-0.0653659105,0.0020231009,-57.5417098999,84.7291641235,-142.4961395264,0.0216504931,0.0288234055,0.0294479132,43.4421195984,40.9337310791,-129.7962799072,0.0687599182,-0.0146929622,0.0055735707,
354.823,-3.2387378216,1.3797763586,40.5769844055,0.0626535341,0.0413434729,0.0077473521,-107.0578842163,-9.2594709396,82.4173049927,-0.0241869688,-0.0649335384,-0.0106823742,-57.5762023926,84.7296447754,-142.5230255127,0.0216512680,0.0210365653,0.0265687704,43.4450569153,40.9315986633,-129.7875061035,0.0653138161,-0.0108315945,-0.0051596165,
354.833,-3.2410953045,1.3810901642,40.5787239075,0.0577936471,0.0448024794,0.0077503920,-107.0603103638,-9.2789182663,82.3965835571,-0.0289164782,-0.0610916615,-0.0126116276,-57.5893440247,84.7295684814,-142.5298461914,0.0162800550,0.0278818905,0.0221946836,43.4459571838,40.9319725037,-129.7796936035,0.0599476695,-0.0147435665,-0.0041718483,
354.843,-3.2403035164,1.3832982779,40.5804557800,0.0568556078,0.0472300388,0.0092154145,-107.0595321655,-9.2946949005,82.3678131104,-0.0272351205,-0.0645482540,-0.0062896609,-57.6176986694,84.7279739380,-142.5517883301,0.0226251483,0.0220740438,0.0275875330,43.4458618164,40.9317398071,-129.7735137939,0.0633625984,-0.0137678981,-0.0036863089,
354.853,-3.2408039570,1.3839683533,40.5815887451,0.0578438640,0.0384496786,0.0097044706,-107.0628814697,-9.3074283600,82.3352584839,-0.0342903733,-0.0577634573,-0.0155225396,-57.6049804688,84.7251892090,-142.5330200195,0.0216441154,0.0269828737,0.0358474851,43.4464607239,40.9332160950,-129.7673797607,0.0638703108,-0.0171800256,-0.0041568875,
354.863,-3.2396595478,1.3860833645,40.5820808411,0.0569042042,0.0442890599,0.0082393885,-107.0641174316,-9.3187866211,82.2972640991,-0.0330211520,-0.0626834631,-0.0218589306,-57.6016578674,84.7251892090,-142.5221557617,0.0216441154,0.0264923275,0.0270532370,43.4488601685,40.9321708679,-129.7591857910,0.0741104484,-0.0113518238,-0.0124446154,
354.873,-3.2372667789,1.3847078085,40.5833816528,0.0583450459,0.0486419462,0.0023770332,-107.0602722168,-9.3324241638,82.2520446777,-0.0322794616,-0.0646538734,-0.0048439801,-57.6083106995,84.7261123657,-142.5207214355,0.0216456056,0.0255084038,0.0290240049,43.4519844055,40.9337348938,-129.7512817383,0.0697365403,-0.0113694668,-0.0143563747,
354.883,-3.2376003265,1.3852691650,40.5845489502,0.0583548434,0.0432766452,0.0136079788,-107.0586624146,-9.3460397720,82.2016601563,-0.0290959775,-0.0617529154,-0.0112294555,-57.5838890076,84.7262268066,-142.4876556396,0.0231106281,0.0245091617,0.0348501205,43.4519958496,40.9337501526,-129.7462921143,0.0663187504,-0.0079514384,-0.0070319772,
354.893,-3.2403912544,1.3849641085,40.5856933594,0.0607909262,0.0413721502,-0.0034790039,-107.0512542725,-9.3561496735,82.1442031860,-0.0351294577,-0.0651610494,0.0032888651,-57.5964736938,84.7270431519,-142.4920806885,0.0133463144,0.0259726942,0.0260863900,43.4522361755,40.9327239990,-129.7408294678,0.0711880326,-0.0069853067,-0.0055734515,
354.903,-3.2418253422,1.3829934597,40.5881423950,0.0607565418,0.0394440517,0.0053105950,-107.0501403809,-9.3666105270,82.0831909180,-0.0309150517,-0.0646954179,-0.0089454055,-57.5856628418,84.7257080078,-142.4708251953,0.0133441687,0.0284237266,0.0328952670,43.4488792419,40.9310226440,-129.7353515625,0.0653062463,-0.0118494034,0.0085419416,
354.913,-3.2424128056,1.3811981678,40.5887870789,0.0597486533,0.0404308848,0.0043338537,-107.0491638184,-9.3770046234,82.0163955688,-0.0296292305,-0.0715547800,-0.0128763020,-57.5993041992,84.7288284302,-142.4750061035,0.0187202692,0.0283914208,0.0217118859,43.4428863525,40.9313163757,-129.7331695557,0.0609155893,-0.0152077079,0.0040954947,
354.923,-3.2416000366,1.3809754848,40.5893516541,0.0607213303,0.0452995524,0.0057977438,-107.0437622070,-9.3892507553,81.9436187744,-0.0298400819,-0.0686311126,-0.0105341375,-57.5998306274,84.7263717651,-142.4660949707,0.0192046165,0.0191501677,0.0290141106,43.4439010620,40.9326248169,-129.7258605957,0.0697219372,-0.0088593960,-0.0085797310,
354.933,-3.2418234348,1.3811737299,40.5905189514,0.0573068187,0.0394440591,0.0082393885,-107.0378036499,-9.4028320313,81.8697814941,-0.0281208456,-0.0705911517,-0.0096670985,-57.5909767151,84.7261505127,-142.4491271973,0.0177394152,0.0206101537,0.0314413309,43.4416198730,40.9315414429,-129.7205505371,0.0682427883,-0.0142171383,-0.0056794882,
354.943,-3.2420060635,1.3811733723,40.5922966003,0.0582833774,0.0394472480,0.0131224394,-107.0291748047,-9.4183750153,81.7940979004,-0.0322947204,-0.0710783005,-0.0054277182,-57.5926513672,84.7257080078,-142.4438171387,0.0192035437,0.0201295018,0.0285100937,43.4418869019,40.9313735962,-129.7140350342,0.0687288642,-0.0112913847,-0.0095853209,
354.953,-3.2420217991,1.3807253838,40.5941276550,0.0572989956,0.0423772149,0.0004269481,-107.0185928345,-9.4366703033,81.7169799805,-0.0330979824,-0.0705866814,0.0036601424,-57.5618324280,84.7273406982,-142.4080200195,0.0157881975,0.0288684964,0.0314114690,43.4412460327,40.9326553345,-129.7088775635,0.0677691698,-0.0132281780,-0.0042083263,
354.963,-3.2430260181,1.3799470663,40.5952644348,0.0626565143,0.0389767587,0.0023803711,-107.0089263916,-9.4546260834,81.6370697021,-0.0324305594,-0.0735167265,-0.0096979141,-57.5720367432,84.7268600464,-142.4124603271,0.0192053914,0.0225365162,0.0280033946,43.4447288513,40.9309043884,-129.7008209229,0.0706757903,-0.0059512258,-0.0061455965,
354.973,-3.2421460152,1.3824732304,40.5962753296,0.0597709045,0.0433559082,0.0053110719,-106.9964370728,-9.4744310379,81.5567932129,-0.0274004042,-0.0798557997,-0.0128500462,-57.5820770264,84.7272720337,-142.4173736572,0.0226240158,0.0274211168,0.0216744542,43.4434776306,40.9319419861,-129.6947326660,0.0614120960,-0.0137434602,0.0031300783,
354.983,-3.2437431812,1.3829519749,40.5992698669,0.0588026941,0.0409423038,0.0072649717,-106.9780120850,-9.4949312210,81.4723739624,-0.0316596031,-0.0803077221,-0.0092646480,-57.6030921936,84.7268218994,-142.4332580566,0.0201818943,0.0245180130,0.0270692706,43.4461250305,40.9314346313,-129.6869812012,0.0643351078,-0.0088901520,-0.0012457967,
354.993,-3.2435722351,1.3818835020,40.6016960144,0.0597606078,0.0428924859,0.0058002472,-106.9515838623,-9.5148792267,81.3827819824,-0.0344443619,-0.0816950798,-0.0082514882,-57.6408233643,84.7240753174,-142.4659423828,0.0216423273,0.0241014361,0.0261211991,43.4489669800,40.9301071167,-129.6790771484,0.0682238936,-0.0123456120,-0.0022065043,
355.003,-3.2431194782,1.3826124668,40.6040840149,0.0578202084,0.0438611358,0.0077531934,-106.9210357666,-9.5343484879,81.2877731323,-0.0372208953,-0.0635290146,0.0000174642,-57.6472511292,84.7211380005,-142.4654998779,0.0162665248,0.0285451710,0.0300083160,43.4537315369,40.9272804260,-129.6678466797,0.0740459561,-0.0119252801,-0.0075585842,
355.013,-3.2445571423,1.3824506998,40.6046791077,0.0583056659,0.0438861921,0.0038477182,-106.8919601440,-9.5568799973,81.1905593872,-0.0327258706,-0.0653990507,-0.0102460682,-57.6814231873,84.7167587280,-142.4941711426,0.0182126164,0.0247281790,0.0300194025,43.4568138123,40.9240188599,-129.6583404541,0.0710732341,-0.0095390081,-0.0016979575,
355.023,-3.2424333096,1.3829871416,40.6040039063,0.0602681525,0.0477554277,0.0145887136,-106.8622894287,-9.5789346695,81.0894470215,-0.0384765267,-0.0653123856,-0.0034287870,-57.6975898743,84.7138366699,-142.5033874512,0.0221141577,0.0203941762,0.0314764380,43.4624938965,40.9203796387,-129.6484680176,0.0715135336,-0.0110868216,-0.0143718719,
355.033,-3.2422673702,1.3824142218,40.6039886475,0.0597698689,0.0409166105,0.0082397461,-106.8346481323,-9.6020927429,80.9865951538,-0.0432696342,-0.0652390718,-0.0053685606,-57.7281837463,84.7127227783,-142.5271301270,0.0162529945,0.0262928903,0.0256528258,43.4652252197,40.9176483154,-129.6398773193,0.0700127482,-0.0067398548,-0.0002095699,
355.043,-3.2419693470,1.3822258711,40.6063842773,0.0587900206,0.0433528349,0.0048223138,-106.8100051880,-9.6285448074,80.8797607422,-0.0383537114,-0.0598188043,-0.0038442314,-57.7588577271,84.7142028809,-142.5488739014,0.0269975662,0.0267907381,0.0217995644,43.4649391174,40.9124717712,-129.6324157715,0.0743389726,-0.0111724138,0.0016977787,
355.053,-3.2422420979,1.3825465441,40.6087226868,0.0612370223,0.0414044484,0.0033574104,-106.7868881226,-9.6538915634,80.7692718506,-0.0363484323,-0.0631928444,-0.0061995685,-57.7751121521,84.7157592773,-142.5577239990,0.0211406946,0.0282441676,0.0267221928,43.4658737183,40.9085540771,-129.6254882813,0.0747755766,-0.0082824230,-0.0051620603,
355.063,-3.2424023151,1.3813762665,40.6093254089,0.0597517565,0.0418955497,0.0057986975,-106.7636947632,-9.6785831451,80.6570205688,-0.0382381082,-0.0616822243,0.0026747584,-57.7741088867,84.7164993286,-142.5487365723,0.0240715742,0.0277484655,0.0360012054,43.4660415649,40.9062728882,-129.6197509766,0.0659564137,-0.0131847858,-0.0066441894,
355.073,-3.2424535751,1.3786916733,40.6105995178,0.0631228834,0.0443379097,0.0082391500,-106.7438125610,-9.7048158646,80.5432815552,-0.0382011533,-0.0670281649,-0.0103709400,-57.7856445313,84.7163543701,-142.5534362793,0.0138174295,0.0238505602,0.0272303820,43.4664039612,40.9063529968,-129.6136016846,0.0654691458,-0.0136759281,-0.0066403151,
355.083,-3.2414979935,1.3779361248,40.6123313904,0.0650628358,0.0413915925,0.0082373619,-106.7241897583,-9.7329416275,80.4247207642,-0.0450326204,-0.0723819733,-0.0092528462,-57.8041687012,84.7137603760,-142.5644531250,0.0206491947,0.0190245509,0.0345541239,43.4685020447,40.9067153931,-129.6056671143,0.0644973516,-0.0088104010,-0.0051533580,
355.093,-3.2403995991,1.3789771795,40.6139831543,0.0631278679,0.0418607146,0.0101900697,-106.7046279907,-9.7636089325,80.3047180176,-0.0450718701,-0.0660242438,-0.0159488916,-57.8332252502,84.7153854370,-142.5852355957,0.0250463486,0.0224413276,0.0209406018,43.4700965881,40.9092979431,-129.5983581543,0.0630666614,-0.0141764879,-0.0139066577,
355.103,-3.2429463863,1.3802863359,40.6150550842,0.0577796213,0.0355573967,0.0106813908,-106.6817855835,-9.7969980240,80.1814575195,-0.0363688171,-0.0801664591,-0.0144006014,-57.8730621338,84.7150192261,-142.6186523438,0.0152801275,0.0210205615,0.0248959064,43.4707832336,40.9127693176,-129.5919799805,0.0557881594,-0.0170853734,-0.0114300847,
355.113,-3.2418398857,1.3788144588,40.6168785095,0.0611719042,0.0418858118,0.0092150569,-106.6541595459,-9.8332996368,80.0575561523,-0.0413876474,-0.0703678727,-0.0007270873,-57.9099540710,84.7138366699,-142.6510314941,0.0177196264,0.0225315392,0.0254279375,43.4700813293,40.9142761230,-129.5875701904,0.0616674423,-0.0204847455,-0.0104474425,
355.123,-3.2390203476,1.3785390854,40.6179733276,0.0650733560,0.0437898263,-0.0000652671,-106.6282882690,-9.8706541061,79.9317550659,-0.0439831316,-0.0708359480,-0.0046029389,-57.9324302673,84.7116088867,-142.6692047119,0.0152746439,0.0230730772,0.0342270136,43.4716033936,40.9121665955,-129.5811920166,0.0679873228,-0.0107503533,-0.0138689876,
355.133,-3.2370085716,1.3772767782,40.6203422546,0.0670044497,0.0471727811,0.0092096925,-106.6052856445,-9.9096889496,79.8069152832,-0.0461191237,-0.0703464746,-0.0103869438,-58.0251579285,84.7116088867,-142.7585754395,0.0230871439,0.0202232003,0.0221511722,43.4729423523,40.9101333618,-129.5735626221,0.0640541911,-0.0132204890,0.0017512441,
355.143,-3.2379894257,1.3766872883,40.6209068298,0.0621113554,0.0432836339,0.0087217093,-106.5814895630,-9.9510211945,79.6817932129,-0.0463414192,-0.0752319098,-0.0044667721,-58.1119842529,84.7106018066,-142.8415222168,0.0147847533,0.0256869197,0.0247033834,43.4763946533,40.9074516296,-129.5624389648,0.0703665018,-0.0127863884,-0.0045874119,
355.153,-3.2356336117,1.3746103048,40.6215171814,0.0630516782,0.0442192033,0.0092075467,-106.5608596802,-9.9944782257,79.5579147339,-0.0426939130,-0.0674440265,-0.0092389882,-58.1982231140,84.7095336914,-142.9251708984,0.0201541185,0.0243113935,0.0257925987,43.4816284180,40.9066352844,-129.5527191162,0.0586369634,-0.0104014874,-0.0035700798,
355.163,-3.2349345684,1.3759340048,40.6238594055,0.0601450875,0.0446952730,0.0111594796,-106.5374679565,-10.0355453491,79.4352340698,-0.0453528762,-0.0659842491,-0.0047771335,-58.2841644287,84.7093505859,-143.0082702637,0.0177124143,0.0219494998,0.0166324973,43.4865150452,40.9055023193,-129.5435638428,0.0678993464,-0.0124103427,-0.0059764981,
355.173,-3.2350041866,1.3746126890,40.6262969971,0.0606103092,0.0442082472,0.0048121810,-106.5163269043,-10.0769758224,79.3138046265,-0.0436234176,-0.0581895709,-0.0178565979,-58.3413352966,84.7043151855,-143.0660552979,0.0196574330,0.0201148391,0.0332729816,43.4908447266,40.9027290344,-129.5366516113,0.0668862462,-0.0183329582,-0.0025422573,
355.183,-3.2353975773,1.3731853962,40.6261672974,0.0669330657,0.0368909054,0.0052998066,-106.4891357422,-10.1138563156,79.1876068115,-0.0462102890,-0.0591413975,-0.0100363791,-58.4513816833,84.7036437988,-143.1750640869,0.0181915164,0.0241306722,0.0168166757,43.4980392456,40.9031181335,-129.5270843506,0.0590788722,-0.0125394464,-0.0112627745,
355.193,-3.2361004353,1.3735941648,40.6290855408,0.0610808209,0.0398328267,0.0043248534,-106.4625930786,-10.1469154358,79.0570449829,-0.0487314165,-0.0561798811,-0.0197796822,-58.5461578369,84.7013931274,-143.2721252441,0.0186761618,0.0213116109,0.0237697363,43.5043258667,40.9029579163,-129.5188140869,0.0585884452,-0.0169954300,-0.0116953850,
355.203,-3.2343587875,1.3750183582,40.6301727295,0.0615939498,0.0441969894,0.0082290173,-106.4350585938,-10.1716117859,78.9207763672,-0.0540384948,-0.0610017776,-0.0119543076,-58.6502151489,84.6992416382,-143.3783111572,0.0142781734,0.0224132538,0.0224294662,43.5123863220,40.9007415771,-129.5101623535,0.0619771481,-0.0146486163,-0.0111523271,
355.213,-3.2324652672,1.3763741255,40.6294593811,0.0572230741,0.0426991135,0.0096933842,-106.4050903320,-10.1898136139,78.7781600952,-0.0597222447,-0.0506562591,-0.0041633546,-58.7270965576,84.6968078613,-143.4555816650,0.0201336145,0.0200696886,0.0210549235,43.5176582336,40.8957633972,-129.5017547607,0.0687474608,-0.0079022646,-0.0028448105,
355.223,-3.2312211990,1.3765624762,40.6294479370,0.0572263598,0.0446305722,0.0121334195,-106.3785400391,-10.2043066025,78.6337890625,-0.0599712133,-0.0578946471,-0.0041257143,-58.7504425049,84.6986160278,-143.4774017334,0.0196482539,0.0273918509,0.0259833336,43.5182952881,40.8976478577,-129.4967956543,0.0609598160,-0.0166825652,-0.0125891566,
355.233,-3.2314221859,1.3777818680,40.6299858093,0.0557827950,0.0417043567,0.0092043877,-106.3450622559,-10.2207365036,78.4886779785,-0.0612300038,-0.0699885488,-0.0027387738,-58.7461547852,84.6993560791,-143.4700164795,0.0211142898,0.0268846452,0.0284288526,43.5193481445,40.8998222351,-129.4897460938,0.0678244233,-0.0113044977,-0.0125616193,
355.243,-3.2302999496,1.3777976036,40.6311607361,0.0601776019,0.0441262200,0.0106680989,-106.3102111816,-10.2380962372,78.3430175781,-0.0634813011,-0.0645008683,-0.0082114339,-58.7408256531,84.7027206421,-143.4613647461,0.0172134638,0.0263473094,0.0299122334,43.5187950134,40.9043350220,-129.4836425781,0.0659308434,-0.0112636089,-0.0139937997,
355.253,-3.2289526463,1.3775670528,40.6305122375,0.0606618598,0.0450793169,0.0101783872,-106.2686462402,-10.2547111511,78.1955032349,-0.0593721271,-0.0741157532,0.0042720437,-58.7075233459,84.7036819458,-143.4231719971,0.0181915760,0.0258144140,0.0371994376,43.5209808350,40.9082641602,-129.4762268066,0.0645178556,-0.0073474646,-0.0139414668,
355.263,-3.2285325527,1.3770017624,40.6310653687,0.0596754327,0.0397009067,0.0028536320,-106.2294540405,-10.2681179047,78.0455245972,-0.0654617548,-0.0632252693,-0.0061517358,-58.7316169739,84.7097549438,-143.4416198730,0.0191779137,0.0281892717,0.0275208354,43.5264930725,40.9127578735,-129.4646911621,0.0660419464,-0.0054116249,-0.0158073902,
355.273,-3.2297942638,1.3783590794,40.6334190369,0.0577459931,0.0421642698,0.0072495341,-106.1906661987,-10.2805509567,77.8926620483,-0.0593276024,-0.0674713254,-0.0038724542,-58.7167510986,84.7110137939,-143.4168395996,0.0177150965,0.0237646401,0.0333697200,43.5280570984,40.9148941040,-129.4561767578,0.0636286736,-0.0098044276,-0.0157755613,
355.283,-3.2308948040,1.3763508797,40.6358795166,0.0606406406,0.0407186449,-0.0015389919,-106.1592559814,-10.2920236588,77.7396316528,-0.0517121255,-0.0629608631,-0.0170961022,-58.7037239075,84.7122039795,-143.3939514160,0.0128341913,0.0232474804,0.0353152156,43.5284881592,40.9140853882,-129.4470825195,0.0636180639,-0.0068851709,-0.0030829906,
355.293,-3.2315540314,1.3754113913,40.6370201111,0.0630656555,0.0402418599,-0.0015388131,-106.1276245117,-10.3029403687,77.5834732056,-0.0523878634,-0.0589361787,-0.0078621507,-58.7184906006,84.7106781006,-143.3998107910,0.0201559663,0.0174220800,0.0250692964,43.5265121460,40.9163093567,-129.4377746582,0.0592528582,-0.0166144371,-0.0050356388,
355.303,-3.2357716560,1.3768610954,40.6393318176,0.0552784465,0.0339676477,0.0072550774,-106.0946044922,-10.3096837997,77.4243698120,-0.0578747690,-0.0651469827,-0.0040181279,-58.7315216064,84.7117156982,-143.4046478271,0.0235756040,0.0227896571,0.0270497203,43.5235061646,40.9172058105,-129.4318542480,0.0675654411,-0.0126723647,-0.0045672655,
355.313,-3.2361595631,1.3742717505,40.6399879456,0.0625574887,0.0432518125,0.0053011179,-106.0628204346,-10.3198461533,77.2660903931,-0.0551195741,-0.0708856583,-0.0050399899,-58.7195854187,84.7113800049,-143.3827209473,0.0235750675,0.0213196874,0.0284946561,43.5208358765,40.9203376770,-129.4258575439,0.0705364347,-0.0165284276,-0.0065187812,
355.323,-3.2359004021,1.3741668463,40.6417579651,0.0606025308,0.0432472974,0.0072540641,-106.0279541016,-10.3326587677,77.1071090698,-0.0538747311,-0.0634346604,-0.0153921545,-58.7593955994,84.7123489380,-143.4147491455,0.0216234922,0.0179220140,0.0197700858,43.5178794861,40.9230155945,-129.4212799072,0.0622709394,-0.0120845437,-0.0060349107,
355.333,-3.2377676964,1.3757129908,40.6428146362,0.0591646656,0.0379086956,0.0126277208,-105.9929046631,-10.3490686417,76.9475021362,-0.0565978885,-0.0696656704,-0.0169618726,-58.7680587769,84.7132415771,-143.4189147949,0.0138124228,0.0242631435,0.0280917883,43.5148315430,40.9226226807,-129.4165344238,0.0691017509,-0.0125467181,-0.0011831522,
355.343,-3.2374250889,1.3766156435,40.6427307129,0.0586921349,0.0437620804,0.0023733974,-105.9545288086,-10.3687934875,76.7878341675,-0.0554716885,-0.0710089207,-0.0117529631,-58.7837753296,84.7142028809,-143.4319458008,0.0123491287,0.0223113596,0.0281208754,43.5169143677,40.9235458374,-129.4093322754,0.0622779727,-0.0110945106,-0.0065276027,
355.353,-3.2368502617,1.3771910667,40.6426200867,0.0601670146,0.0422872081,0.0121394396,-105.9182586670,-10.3844738007,76.6259002686,-0.0562291741,-0.0684440732,-0.0138301849,-58.8103981018,84.7146453857,-143.4536743164,0.0172326565,0.0286740661,0.0320699215,43.5172958374,40.9219017029,-129.4022521973,0.0666508675,-0.0120876431,0.0027396679,
355.363,-3.2352712154,1.3775875568,40.6425552368,0.0606622174,0.0437245369,0.0082308650,-105.8848190308,-10.4009408951,76.4626693726,-0.0613946617,-0.0683366060,-0.0139085650,-58.8488464355,84.7140502930,-143.4871520996,0.0162551403,0.0272526443,0.0311406851,43.5192565918,40.9217300415,-129.3930969238,0.0627422929,-0.0145491958,-0.0050565004,
355.373,-3.2358825207,1.3775142431,40.6443061829,0.0606609397,0.0422703400,0.0121383667,-105.8558959961,-10.4207077026,76.2969741821,-0.0612457097,-0.0658197403,-0.0231920481,-58.8933906555,84.7143096924,-143.5254821777,0.0191852450,0.0238652527,0.0273027420,43.5167655945,40.9182052612,-129.3891601563,0.0661138296,-0.0169944763,0.0027042031,
355.383,-3.2358114719,1.3765044212,40.6460494995,0.0660144091,0.0447105393,0.0096966028,-105.8227920532,-10.4391098022,76.1288375854,-0.0659561157,-0.0657205582,-0.0135010481,-58.9313659668,84.7151641846,-143.5577545166,0.0211397409,0.0312145650,0.0268715024,43.5182762146,40.9160499573,-129.3812408447,0.0699916482,-0.0140962601,-0.0070655346,
355.393,-3.2368066311,1.3779106140,40.6477966309,0.0552967601,0.0388684645,0.0067679286,-105.7880859375,-10.4611244202,75.9593963623,-0.0673105419,-0.0690434575,-0.0165345669,-58.9620971680,84.7147216797,-143.5835113525,0.0196741819,0.0219658911,0.0298440456,43.5185928345,40.9159126282,-129.3736572266,0.0641304255,-0.0141003728,-0.0085285902,
355.403,-3.2389721870,1.3777370453,40.6501388550,0.0611531064,0.0389061943,0.0126297474,-105.7516784668,-10.4861240387,75.7904968262,-0.0643216372,-0.0718796253,-0.0152048767,-59.0184593201,84.7154617310,-143.6334991455,0.0235816240,0.0180998445,0.0279747844,43.5174942017,40.9171562195,-129.3678283691,0.0660999417,-0.0160331726,-0.0012041926,
355.413,-3.2366514206,1.3770567179,40.6513252258,0.0626060814,0.0461899973,0.0101858377,-105.7081375122,-10.5127725601,75.6206359863,-0.0677086115,-0.0742001534,-0.0081347525,-59.0676841736,84.7147216797,-143.6770172119,0.0191859007,0.0215702951,0.0280380845,43.5167732239,40.9190177917,-129.3623809814,0.0583119988,-0.0160115957,-0.0051014423,
355.423,-3.2377426624,1.3774862289,40.6536331177,0.0611487329,0.0383964963,0.0116519332,-105.6651000977,-10.5430002213,75.4496154785,-0.0648093522,-0.0736051798,-0.0205906630,-59.1215400696,84.7125701904,-143.7278747559,0.0201590061,0.0255493820,0.0320051908,43.5225715637,40.9163093567,-129.3542480469,0.0695067644,-0.0048578978,-0.0080009699,
355.433,-3.2406659126,1.3773853779,40.6541748047,0.0582172833,0.0364942998,0.0077484250,-105.6216049194,-10.5752735138,75.2738723755,-0.0624333918,-0.0661790371,-0.0203611255,-59.1944885254,84.7121276855,-143.7968902588,0.0182051659,0.0256219804,0.0252653360,43.5217170715,40.9146270752,-129.3468170166,0.0685079694,-0.0156053305,-0.0031405091,
355.443,-3.2415645123,1.3779777288,40.6552848816,0.0601807460,0.0413927548,0.0072613955,-105.5768966675,-10.6065225601,75.0973205566,-0.0678523183,-0.0733936429,-0.0162442029,-59.2895889282,84.7064971924,-143.8876190186,0.0157546997,0.0228532851,0.0253527761,43.5248031616,40.9104690552,-129.3375854492,0.0640586019,-0.0142024755,-0.0041223764,
355.453,-3.2449936867,1.3822697401,40.6563186646,0.0514665693,0.0390109830,0.0053130388,-105.5298767090,-10.6410512924,74.9170455933,-0.0640501082,-0.0679132938,-0.0063093305,-59.4023857117,84.7021713257,-143.9948883057,0.0147711635,0.0234999955,0.0313351154,43.5297164917,40.9081878662,-129.3252716064,0.0635402799,-0.0113378763,-0.0031211972,
355.463,-3.2452969551,1.3834235668,40.6573562622,0.0622288920,0.0414576419,-0.0000569820,-105.4917297363,-10.6720008850,74.7354507446,-0.0699520409,-0.0585574508,-0.0157556236,-59.5399971008,84.6996154785,-144.1280212402,0.0167201757,0.0265827179,0.0207670331,43.5347328186,40.9019432068,-129.3126678467,0.0673641562,-0.0094817281,-0.0050794482,
355.473,-3.2471382618,1.3844957352,40.6584815979,0.0563882217,0.0380717255,0.0082460642,-105.4548721313,-10.7076339722,74.5553512573,-0.0686100423,-0.0668005943,-0.0222554505,-59.6402587891,84.6965484619,-144.2250976563,0.0211097598,0.0208525956,0.0272313356,43.5350570679,40.8983306885,-129.3047637939,0.0678047538,-0.0100017786,-0.0026660562,
355.483,-3.2457172871,1.3844716549,40.6584320068,0.0598057732,0.0453711897,0.0028734803,-105.4150238037,-10.7446022034,74.3751525879,-0.0716854036,-0.0721060038,-0.0102506280,-59.7395210266,84.6953277588,-144.3205261230,0.0211077929,0.0263254941,0.0224794149,43.5368385315,40.8957252502,-129.2963562012,0.0697234869,-0.0173634291,-0.0065766573,
355.493,-3.2472858429,1.3864712715,40.6595115662,0.0549578480,0.0370976888,-0.0024949312,-105.3762741089,-10.7879295349,74.1935958862,-0.0660806298,-0.0686478615,-0.0197179914,-59.8350906372,84.6889801025,-144.4143066406,0.0215858221,0.0186842084,0.0333055258,43.5426712036,40.8953285217,-129.2854919434,0.0663002729,-0.0120514035,-0.0118990541,
355.503,-3.2485580444,1.3821939230,40.6613998413,0.0666019619,0.0400496311,0.0062934756,-105.3302688599,-10.8309936523,74.0093002319,-0.0663306415,-0.0705280304,-0.0063562989,-59.9493789673,84.6895675659,-144.5257568359,0.0240281820,0.0221931636,0.0193107128,43.5463676453,40.8937873840,-129.2780303955,0.0672565699,-0.0155166388,-0.0089476109,
355.513,-3.2467534542,1.3821344376,40.6625061035,0.0646478012,0.0444127396,0.0082443953,-105.2857894897,-10.8760929108,73.8232955933,-0.0675919652,-0.0675399303,-0.0227561593,-60.0999183655,84.6876525879,-144.6754455566,0.0152360201,0.0223429203,0.0185369849,43.5487899780,40.8900032043,-129.2692260742,0.0637886524,-0.0131282806,-0.0040748119,
355.523,-3.2479474545,1.3860491514,40.6634445190,0.0593450144,0.0424803160,0.0097124577,-105.2352600098,-10.9189281464,73.6323089600,-0.0751620233,-0.0694016218,-0.0158166885,-60.1788940430,84.6846313477,-144.7544555664,0.0220670700,0.0263585448,0.0318088531,43.5545768738,40.8873214722,-129.2594299316,0.0671712160,-0.0141812563,-0.0108798742,
355.533,-3.2478654385,1.3868696690,40.6663894653,0.0598476082,0.0424788669,0.0102008581,-105.1832427979,-10.9613761902,73.4400634766,-0.0783308148,-0.0585613251,-0.0132961869,-60.3051147461,84.6807937622,-144.8811187744,0.0230374336,0.0240806937,0.0241438150,43.5565109253,40.8832855225,-129.2516632080,0.0646765828,-0.0127667189,-0.0011302233,
355.543,-3.2490658760,1.3887848854,40.6662139893,0.0593927428,0.0405466072,0.0014138222,-105.1363677979,-11.0031747818,73.2474822998,-0.0824649334,-0.0609270334,-0.0180139840,-60.4369583130,84.6772613525,-145.0129852295,0.0191254616,0.0252143145,0.0257720351,43.5593223572,40.8798141479,-129.2441406250,0.0675604343,-0.0147740245,-0.0021096468,
355.553,-3.2480719090,1.3897855282,40.6660995483,0.0608750507,0.0459003597,0.0136204958,-105.0922851563,-11.0473518372,73.0554733276,-0.0773623884,-0.0579427481,-0.0114576817,-60.5695114136,84.6756362915,-145.1440734863,0.0205876827,0.0273047388,0.0215520859,43.5608367920,40.8764419556,-129.2359466553,0.0645862222,-0.0138384700,-0.0016356707,
355.563,-3.2499189377,1.3882369995,40.6666564941,0.0632894337,0.0381200761,0.0077618957,-105.0476760864,-11.0927076340,72.8680267334,-0.0786275566,-0.0676563978,-0.0185832381,-60.6778945923,84.6729125977,-145.2518310547,0.0230246782,0.0235232115,0.0265724659,43.5624465942,40.8733558655,-129.2311248779,0.0645455122,-0.0182726979,-0.0094590187,
355.573,-3.2492079735,1.3890577555,40.6677551270,0.0613506287,0.0449436046,0.0023906231,-104.9955062866,-11.1379919052,72.6818389893,-0.0828210711,-0.0768496990,-0.0150910020,-60.7703399658,84.6669616699,-145.3447570801,0.0225267410,0.0153878033,0.0305618048,43.5639228821,40.8730964661,-129.2236175537,0.0625889897,-0.0158474445,-0.0065179467,
355.583,-3.2475171089,1.3888111115,40.6707878113,0.0613463297,0.0502852537,0.0072718859,-104.9374389648,-11.1850290298,72.4923248291,-0.0733725727,-0.0826058984,-0.0180462599,-60.9474067688,84.6596908569,-145.5234985352,0.0132375956,0.0146611929,0.0229480863,43.5667419434,40.8698463440,-129.2151031494,0.0649874806,-0.0168765187,-0.0001716018,
355.593,-3.2453470230,1.3891620636,40.6725883484,0.0589110479,0.0478060395,0.0043401718,-104.8778152466,-11.2268323898,72.3007049561,-0.0897132754,-0.0561131239,-0.0049094558,-61.1038131714,84.6542282104,-145.6804199219,0.0171349645,0.0246390998,0.0265458822,43.5716400146,40.8647956848,-129.2050628662,0.0629677176,-0.0076857805,-0.0050518513,
355.603,-3.2452428341,1.3906157017,40.6724700928,0.0589364097,0.0429213680,0.0033637881,-104.8187561035,-11.2642564774,72.1066818237,-0.0840062201,-0.0603718758,-0.0269156396,-61.2458877563,84.6464614868,-145.8215179443,0.0117512345,0.0282826126,0.0340176821,43.5743103027,40.8567695618,-129.1954650879,0.0716508031,-0.0150986910,-0.0006994009,
355.613,-3.2451143265,1.3901441097,40.6730461121,0.0594164617,0.0429191440,0.0048285723,-104.7611389160,-11.2988862991,71.9096527100,-0.0787395835,-0.0494923592,-0.0156927109,-61.3838615417,84.6415557861,-145.9596099854,0.0176026225,0.0260257125,0.0302733183,43.5765686035,40.8487014771,-129.1878509521,0.0769154429,-0.0156720877,-0.0031868219,
355.623,-3.2450067997,1.3905724287,40.6754112244,0.0589356571,0.0404758528,0.0097115040,-104.7089080811,-11.3306369781,71.7116241455,-0.0870954692,-0.0513234138,-0.0239092708,-61.5282936096,84.6388168335,-146.1036071777,0.0239458084,0.0276478827,0.0329040885,43.5845565796,40.8389854431,-129.1764984131,0.0811816454,-0.0031296611,-0.0105186701,
355.633,-3.2454352379,1.3896195889,40.6778602600,0.0594073124,0.0429247506,0.0072697997,-104.6485519409,-11.3637752533,71.5112686157,-0.0822914243,-0.0594725609,-0.0181018710,-61.6958236694,84.6369171143,-146.2696838379,0.0190598965,0.0243923366,0.0170217156,43.5875244141,40.8359794617,-129.1691284180,0.0684466958,-0.0114823580,-0.0041687489,
355.643,-3.2457120419,1.3895128965,40.6790008545,0.0603820123,0.0414647274,0.0043409467,-104.5841979980,-11.3994731903,71.3099670410,-0.0799725652,-0.0578492880,-0.0152921677,-61.7901496887,84.6339187622,-146.3645629883,0.0205198526,0.0220708549,0.0308084488,43.5890922546,40.8339385986,-129.1629180908,0.0640251637,-0.0144431591,-0.0071009994,
355.653,-3.2447347641,1.3884779215,40.6802558899,0.0574342646,0.0414477326,0.0111749172,-104.5174865723,-11.4291419983,71.1089859009,-0.0868277848,-0.0591266155,-0.0183762014,-61.9189338684,84.6327514648,-146.4919891357,0.0127054453,0.0226749778,0.0226911306,43.5893859863,40.8363342285,-129.1558227539,0.0586857200,-0.0168685317,-0.0056136847,
355.663,-3.2469224930,1.3869500160,40.6814384460,0.0613138564,0.0346499458,0.0111764669,-104.4380798340,-11.4579782486,70.9042587280,-0.0843913853,-0.0671848059,-0.0172752142,-62.0680351257,84.6311035156,-146.6407775879,0.0166090131,0.0208685994,0.0199654102,43.5924110413,40.8328819275,-129.1484375000,0.0649877787,-0.0066707134,0.0007328391,
355.673,-3.2472655773,1.3852425814,40.6826438904,0.0642137527,0.0453981422,0.0141058564,-104.3556289673,-11.4770574570,70.6958999634,-0.0837411880,-0.0610390902,-0.0210997015,-62.1688346863,84.6292495728,-146.7419586182,0.0151411295,0.0331804454,0.0376797318,43.5962562561,40.8267555237,-129.1386108398,0.0693014264,-0.0067557096,-0.0061187744,
355.683,-3.2467889786,1.3840639591,40.6832504272,0.0597986542,0.0419718996,0.0062924623,-104.2781753540,-11.4954757690,70.4849243164,-0.0796616673,-0.0480782986,-0.0155639350,-62.2942657471,84.6234130859,-146.8649749756,0.0185495615,0.0240891278,0.0290304422,43.5983924866,40.8206558228,-129.1296386719,0.0697091222,-0.0126835108,-0.0012667775,
355.693,-3.2499511242,1.3825551271,40.6850128174,0.0631902963,0.0356793664,0.0023883581,-104.2086334229,-11.5094594955,70.2774505615,-0.0852719247,-0.0639463663,-0.0240532011,-62.4756202698,84.6186447144,-147.0476074219,0.0458855033,0.0199086666,0.0287736654,43.5989723206,40.8188629150,-129.1228332520,0.0599197745,-0.0195391178,0.0001886487,
355.703,-3.2475755215,1.3819153309,40.6868286133,0.0602494478,0.0463801809,0.0048273802,-104.1440658569,-11.5223550797,70.0696716309,-0.0767033994,-0.0656725764,-0.0226940662,-62.5835571289,84.6156158447,-147.1579132080,0.0185368061,0.0322458446,0.0240274072,43.6023902893,40.8169212341,-129.1135101318,0.0662418604,-0.0205636024,-0.0085852146,
355.713,-3.2461357117,1.3827583790,40.6885452271,0.0617290027,0.0473316535,0.0116624832,-104.0778579712,-11.5346326828,69.8658370972,-0.0876555145,-0.0507900119,-0.0120840073,-62.7232208252,84.6064605713,-147.2979736328,0.0253577232,0.0041708648,0.0261180997,43.6068763733,40.8188934326,-129.1049346924,0.0550373793,-0.0113136768,-0.0046218634,
355.723,-3.2454528809,1.3817548752,40.6896972656,0.0636646152,0.0404838398,0.0082429647,-104.0089569092,-11.5443592072,69.6641769409,-0.0946578085,-0.0686035156,-0.0210483521,-62.8261871338,84.6087112427,-147.4025878906,0.0278028250,0.0286301970,0.0209186077,43.6078147888,40.8145256042,-129.0997924805,0.0666984320,-0.0113570690,-0.0041615963,
355.733,-3.2439420223,1.3792624474,40.6897010803,0.0645976961,0.0433872677,0.0145883560,-103.9336471558,-11.5552978516,69.4649047852,-0.0855675042,-0.0590524077,-0.0110774338,-62.9221153259,84.6074752808,-147.5015716553,0.0038750172,0.0326281488,0.0274009705,43.6084060669,40.8108749390,-129.0952911377,0.0637205839,-0.0133444667,0.0006973147,
355.743,-3.2418546677,1.3790341616,40.6914901733,0.0611757375,0.0453040376,0.0111683011,-103.8575515747,-11.5618953705,69.2659683228,-0.0954459310,-0.0602273941,-0.0128348917,-62.9894981384,84.6064910889,-147.5685424805,0.0180335641,0.0322084129,0.0357935429,43.6138801575,40.8088264465,-129.0863952637,0.0646700859,-0.0104833841,-0.0085477233,
355.753,-3.2429120541,1.3805134296,40.6926116943,0.0572952963,0.0428810120,0.0140996575,-103.7849807739,-11.5678577423,69.0664672852,-0.0935947895,-0.0531154871,-0.0179515332,-63.0866966248,84.6030426025,-147.6639556885,0.0209575891,0.0254983902,0.0305423737,43.6167182922,40.8072700500,-129.0790252686,0.0583018064,-0.0080813169,-0.0036515594,
355.763,-3.2413516045,1.3816550970,40.6925010681,0.0602449067,0.0457834862,0.0097040534,-103.7222671509,-11.5690612793,68.8677368164,-0.0960567594,-0.0509116650,-0.0263186842,-63.2159652710,84.6005020142,-147.7906341553,0.0165588856,0.0212398767,0.0243698359,43.6163864136,40.8015861511,-129.0714263916,0.0631095171,-0.0125174522,-0.0027251244,
355.773,-3.2392392159,1.3809747696,40.6925239563,0.0602330342,0.0476998314,0.0106778145,-103.6587524414,-11.5690994263,68.6720123291,-0.0916628838,-0.0550495982,-0.0220029056,-63.3197097778,84.5972366333,-147.8913116455,0.0194832087,0.0228340924,0.0288950205,43.6159057617,40.7971458435,-129.0657958984,0.0679337382,-0.0203601718,-0.0066723228,
355.783,-3.2387187481,1.3818647861,40.6924552917,0.0568305999,0.0442727730,0.0097019076,-103.5997161865,-11.5709552765,68.4778747559,-0.0897414982,-0.0553066730,-0.0215206593,-63.4279670715,84.5941925049,-147.9982452393,0.0272907019,0.0171028078,0.0280584693,43.6201057434,40.7954406738,-129.0587310791,0.0620517731,-0.0116248131,-0.0056716204,
355.793,-3.2385983467,1.3817752600,40.6930618286,0.0582938790,0.0428058393,0.0111656189,-103.5420761108,-11.5753393173,68.2866592407,-0.0888398886,-0.0536257625,-0.0171115249,-63.5391235352,84.5903549194,-148.1091613770,0.0258195400,0.0182215869,0.0218495131,43.6237258911,40.7945632935,-129.0510406494,0.0625284314,-0.0131310821,-0.0046693683,
355.803,-3.2396509647,1.3773924112,40.6942291260,0.0714010000,0.0364766158,0.0121422410,-103.4938201904,-11.5779504776,68.0999526978,-0.0957204700,-0.0529533625,-0.0281704217,-63.5965080261,84.5888290405,-148.1669006348,0.0253287554,0.0221957862,0.0238766670,43.6231269836,40.7898559570,-129.0472259521,0.0707670450,-0.0077912807,0.0035873652,
355.813,-3.2375631332,1.3763803244,40.6941719055,0.0655239671,0.0476707406,0.0062803030,-103.4386215210,-11.5813646317,67.9141769409,-0.1011499465,-0.0659289360,-0.0134664625,-63.6626319885,84.5870208740,-148.2348632813,0.0170249939,0.0242241323,0.0298237205,43.6218566895,40.7903976440,-129.0452728271,0.0649148822,-0.0175404549,-0.0061854124,
355.823,-3.2382745743,1.3752118349,40.6965751648,0.0645270199,0.0462183170,0.0092097521,-103.3798751831,-11.5855493546,67.7307739258,-0.1002449393,-0.0666870475,-0.0193300098,-63.7500648499,84.5890502930,-148.3250732422,0.0209345818,0.0237711668,0.0216701031,43.6224784851,40.7900772095,-129.0404510498,0.0678403378,-0.0151075721,-0.0037410259,
355.833,-3.2389409542,1.3755277395,40.6983451843,0.0591614321,0.0442767963,0.0082345009,-103.3210220337,-11.5894823074,67.5494461060,-0.1017770171,-0.0596323013,-0.0203126073,-63.8095893860,84.5894393921,-148.3869781494,0.0165407062,0.0291810334,0.0285989642,43.6263847351,40.7895584106,-129.0341949463,0.0644155145,-0.0107544661,-0.0100574493,
355.843,-3.2377760410,1.3748775721,40.7001266479,0.0625680536,0.0442565195,0.0087208748,-103.2571334839,-11.5911245346,67.3676376343,-0.1027816534,-0.0608519316,-0.0204008371,-63.8711166382,84.5896301270,-148.4496765137,0.0145878792,0.0243405104,0.0286942124,43.6278381348,40.7868957520,-129.0277404785,0.0682865381,-0.0151839256,-0.0061600208,
355.853,-3.2364590168,1.3730435371,40.7000579834,0.0659540221,0.0408156477,-0.0010467768,-103.1984405518,-11.5911188126,67.1886291504,-0.1037580967,-0.0572043657,-0.0184484273,-63.9462547302,84.5907135010,-148.5252075195,0.0180076361,0.0307315588,0.0258836746,43.6305541992,40.7847137451,-129.0211944580,0.0628865957,-0.0088793635,-0.0032233000,
355.863,-3.2383413315,1.3748307228,40.6998863220,0.0601258352,0.0423132405,0.0096981525,-103.1472396851,-11.5909843445,67.0108795166,-0.0983847082,-0.0540748835,-0.0241838843,-64.0459747314,84.5887908936,-148.6248474121,0.0131216645,0.0215536952,0.0226052999,43.6324844360,40.7810440063,-129.0136260986,0.0677209496,-0.0079501867,-0.0047007799,
355.873,-3.2394783497,1.3724834919,40.6998634338,0.0639911294,0.0384268574,0.0121398568,-103.0967788696,-11.5899982452,66.8331832886,-0.0939733386,-0.0533875227,-0.0220938474,-64.1273117065,84.5862197876,-148.7059783936,0.0199533701,0.0216550827,0.0271028280,43.6315574646,40.7803802490,-129.0073547363,0.0540402532,-0.0138058662,0.0060274601,
355.883,-3.2388722897,1.3702526093,40.7016601563,0.0659053326,0.0423226021,0.0072554350,-103.0436935425,-11.5915222168,66.6602020264,-0.0954642296,-0.0600237250,-0.0146785378,-64.2192764282,84.5840148926,-148.7990875244,0.0184848905,0.0237082541,0.0247859955,43.6314353943,40.7752952576,-129.0021972656,0.0749691129,-0.0094501376,0.0006132126,
355.893,-3.2391023636,1.3711172342,40.7039451599,0.0615258850,0.0393969044,0.0048142672,-102.9911804199,-11.5956611633,66.4927673340,-0.1043240726,-0.0564177036,-0.0233694613,-64.3148880005,84.5856781006,-148.8937835693,0.0233704448,0.0247295201,0.0205492377,43.6326026917,40.7743415833,-128.9982910156,0.0651909113,-0.0133750439,-0.0091496706,
355.903,-3.2394473553,1.3731018305,40.7030830383,0.0635136366,0.0413559861,0.0072575212,-102.9379501343,-11.6021814346,66.3282470703,-0.0985761583,-0.0660015345,-0.0276798606,-64.3787002563,84.5861816406,-148.9581909180,0.0106759667,0.0306305885,0.0304139853,43.6333274841,40.7710533142,-128.9921722412,0.0690537095,-0.0114547014,-0.0067287683,
355.913,-3.2388129234,1.3726656437,40.7042312622,0.0615528971,0.0403683893,0.0048147440,-102.8810119629,-11.6074323654,66.1642990112,-0.1094081104,-0.0609193444,-0.0188675523,-64.4925460815,84.5857925415,-149.0721435547,0.0204409361,0.0248564184,0.0300989747,43.6346626282,40.7693367004,-128.9853363037,0.0685427785,-0.0114809871,-0.0077072978,
355.923,-3.2420134544,1.3700051308,40.7041244507,0.0693189800,0.0355413929,0.0101879835,-102.8274612427,-11.6133861542,66.0068130493,-0.1012091339,-0.0597597361,-0.0266008079,-64.6136245728,84.5865097046,-149.1940917969,0.0136061907,0.0249381661,0.0190551877,43.6350555420,40.7683181763,-128.9810485840,0.0651112795,-0.0149108171,-0.0003879070,
355.933,-3.2433094978,1.3724418879,40.7057609558,0.0581310242,0.0399584398,0.0072606802,-102.7775039673,-11.6184539795,65.8556518555,-0.1081317067,-0.0566581488,-0.0206023008,-64.7465744019,84.5824584961,-149.3252105713,0.0170174837,0.0216749907,0.0241141319,43.6425437927,40.7652587891,-128.9703674316,0.0631177425,-0.0071939230,-0.0145050287,
355.943,-3.2448678017,1.3717998266,40.7062644958,0.0639792010,0.0414504446,-0.0029919147,-102.7308502197,-11.6228857040,65.7081146240,-0.1091840565,-0.0574740171,-0.0189424306,-64.8451232910,84.5799942017,-149.4212646484,0.0189665556,0.0237415731,0.0330329537,43.6442108154,40.7585983276,-128.9619598389,0.0703539252,-0.0097036958,-0.0013611913,
355.953,-3.2444493771,1.3702863455,40.7081069946,0.0610231049,0.0438846014,0.0009132624,-102.6886367798,-11.6259384155,65.5642471313,-0.1121658981,-0.0460954309,-0.0279496610,-64.9631576538,84.5767822266,-149.5355529785,0.0052893758,0.0175243020,0.0244042277,43.6488189697,40.7548637390,-128.9516754150,0.0727459192,-0.0044060946,-0.0067207813,
355.963,-3.2447803020,1.3697355986,40.7092552185,0.0619900562,0.0434020907,0.0057963133,-102.6441726685,-11.6340847015,65.4221725464,-0.1000981331,-0.0518162251,-0.0194205493,-65.0458679199,84.5748977661,-149.6118621826,0.0253058076,0.0205460489,0.0250030160,43.6510314941,40.7478828430,-128.9421539307,0.0755833387,-0.0035055280,-0.0013870597,
355.973,-3.2451274395,1.3694210052,40.7092018127,0.0610080063,0.0434081517,0.0082379580,-102.6015625000,-11.6369247437,65.2804718018,-0.1025880873,-0.0565496683,-0.0342939645,-65.1405563354,84.5743942261,-149.7039794922,0.0165159106,0.0255007148,0.0222176313,43.6475143433,40.7448501587,-128.9368591309,0.0696839094,-0.0152144432,-0.0029089451,
355.983,-3.2465600967,1.3685532808,40.7097702026,0.0609928668,0.0395268798,0.0101915598,-102.5588073730,-11.6401224136,65.1393890381,-0.0987364948,-0.0481008291,-0.0242677629,-65.2443389893,84.5722656250,-149.8039703369,0.0306725502,0.0231699944,0.0282184482,43.6465988159,40.7465896606,-128.9311981201,0.0609177947,-0.0205631256,-0.0077859163,
355.993,-3.2466330528,1.3680070639,40.7115783691,0.0600067750,0.0463640988,0.0072623491,-102.5180740356,-11.6430931091,65.0009460449,-0.1022052467,-0.0450302958,-0.0337390602,-65.3294906616,84.5690231323,-149.8878173828,0.0013703108,0.0193711519,0.0253989100,43.6436882019,40.7439270020,-128.9271392822,0.0735778809,-0.0200679302,-0.0014867187,
356.003,-3.2479231358,1.3673353195,40.7121047974,0.0624364577,0.0400389321,0.0097044706,-102.4738311768,-11.6490030289,64.8646621704,-0.0993766189,-0.0575823784,-0.0310643613,-65.4412612915,84.5680084229,-150.0026550293,0.0257827044,0.0287453234,0.0284921527,43.6396064758,40.7430648804,-128.9253387451,0.0613594651,-0.0224770308,0.0057930946,
356.013,-3.2509529591,1.3673566580,40.7131347656,0.0619485490,0.0298378058,0.0009183288,-102.4231872559,-11.6551179886,64.7270812988,-0.0965514183,-0.0593701005,-0.0221488476,-65.5665054321,84.5612258911,-150.1313629150,0.0018457174,0.0123363137,0.0252199173,43.6403465271,40.7441177368,-128.9205169678,0.0589320660,-0.0156398416,-0.0010273457,
356.023,-3.2510669231,1.3648353815,40.7144050598,0.0628811195,0.0440000109,0.0170305967,-102.3730545044,-11.6570701599,64.5894851685,-0.1117215157,-0.0587048531,-0.0332415402,-65.6784362793,84.5584945679,-150.2468261719,0.0223490000,0.0261276960,0.0200036168,43.6417617798,40.7402610779,-128.9161529541,0.0671818256,-0.0156836510,0.0082311034,
356.033,-3.2527520657,1.3654912710,40.7160987854,0.0599628761,0.0386582576,0.0038492084,-102.3177566528,-11.6574144363,64.4492568970,-0.1053797603,-0.0560625792,-0.0219585150,-65.7611770630,84.5533828735,-150.3327178955,0.0198991299,0.0223596394,0.0347434282,43.6473197937,40.7391204834,-128.9084777832,0.0657019019,-0.0089099407,-0.0127235651,
356.043,-3.2512433529,1.3662502766,40.7178192139,0.0599761195,0.0410733558,0.0145897865,-102.2582092285,-11.6574382782,64.3041992188,-0.1058684289,-0.0509632230,-0.0268599689,-65.8306579590,84.5521926880,-150.4023895264,0.0145260692,0.0346322954,0.0343555212,43.6486549377,40.7344894409,-128.9022064209,0.0661289096,-0.0162833333,0.0004339814,
356.053,-3.2524826527,1.3665466309,40.7183609009,0.0590047315,0.0445129052,0.0087325573,-102.1991424561,-11.6535224915,64.1542282104,-0.1116608679,-0.0551307797,-0.0288202167,-65.9312820435,84.5509033203,-150.5018157959,0.0169653296,0.0317948759,0.0276651382,43.6498908997,40.7273826599,-128.8946990967,0.0738474131,-0.0139096379,-0.0069375634,
356.063,-3.2530226707,1.3654763699,40.7201728821,0.0619157404,0.0425692201,0.0092200041,-102.1369476318,-11.6517934799,64.0027313232,-0.1106547713,-0.0602719784,-0.0283940285,-66.0533294678,84.5446472168,-150.6203155518,0.0193963647,0.0192793906,0.0322071910,43.6497802734,40.7242851257,-128.8867187500,0.0576931238,-0.0129563808,0.0008484721,
356.073,-3.2528271675,1.3635323048,40.7225761414,0.0648115128,0.0430541411,0.0018950701,-102.0795974731,-11.6513071060,63.8511047363,-0.1086933315,-0.0537170768,-0.0337470174,-66.1673049927,84.5418090820,-150.7301025391,0.0159736872,0.0281914771,0.0284586549,43.6567382813,40.7192993164,-128.8757171631,0.0649514198,-0.0072028041,-0.0098712444,
356.083,-3.2537333965,1.3617117405,40.7243804932,0.0647797436,0.0455113761,0.0150791407,-102.0204162598,-11.6538925171,63.6975746155,-0.1028781533,-0.0525383353,-0.0279028565,-66.2925491333,84.5373992920,-150.8503265381,0.0208491683,0.0220005810,0.0271573663,43.6574592590,40.7146797180,-128.8664855957,0.0639137626,-0.0091990829,0.0008394718,
356.093,-3.2553977966,1.3614742756,40.7243041992,0.0584279448,0.0367513113,0.0033619404,-101.9597625732,-11.6592931747,63.5443458557,-0.1010173261,-0.0533184409,-0.0362453014,-66.3964233398,84.5309448242,-150.9526824951,0.0203501582,0.0236327052,0.0326493382,43.6571578979,40.7097244263,-128.8582458496,0.0618950725,-0.0219304562,-0.0065280199,
356.103,-3.2545726299,1.3596626520,40.7255325317,0.0623025820,0.0430846326,0.0106841326,-101.9027862549,-11.6652317047,63.3907623291,-0.0986774266,-0.0550907850,-0.0415974259,-66.5583038330,84.5271072388,-151.1120147705,0.0203437805,0.0223423541,0.0270143151,43.6649513245,40.7055816650,-128.8453521729,0.0681878924,-0.0108072162,-0.0147925019,
356.113,-3.2558641434,1.3617352247,40.7247314453,0.0589207746,0.0401773974,0.0072685480,-101.8394088745,-11.6677989960,63.2339897156,-0.1060455143,-0.0524357557,-0.0353353918,-66.6985321045,84.5218429565,-151.2530364990,0.0154522061,0.0259339511,0.0276892185,43.6732215881,40.6978530884,-128.8343200684,0.0719919205,-0.0065523982,-0.0059905052,
356.123,-3.2551176548,1.3611501455,40.7259292603,0.0598871298,0.0450472161,0.0033612847,-101.7747802734,-11.6688613892,63.0757484436,-0.1050871313,-0.0507487059,-0.0266523957,-66.8710403442,84.5145187378,-151.4255828857,0.0212993622,0.0271443129,0.0249795914,43.6770973206,40.6899795532,-128.8262786865,0.0670048594,-0.0100695491,-0.0055326819,
356.133,-3.2553842068,1.3615401983,40.7269859314,0.0633119047,0.0391924791,0.0145922899,-101.7125091553,-11.6652383804,62.9137916565,-0.1089314520,-0.0451487899,-0.0301334709,-66.9851074219,84.5057373047,-151.5393218994,0.0183550119,0.0288232565,0.0343779922,43.6817283630,40.6813812256,-128.8174438477,0.0683559775,-0.0096929669,-0.0031186938,
356.143,-3.2562162876,1.3607724905,40.7288131714,0.0589039773,0.0436015241,0.0150811076,-101.6492843628,-11.6596059799,62.7502098083,-0.1127414405,-0.0390512943,-0.0263054371,-67.1106033325,84.4983978271,-151.6656341553,0.0178544521,0.0280423462,0.0281814933,43.6893920898,40.6742820740,-128.8057556152,0.0628908873,-0.0117753148,-0.0084787607,
356.153,-3.2550613880,1.3587284088,40.7306098938,0.0652159750,0.0421166010,0.0062897205,-101.5884017944,-11.6568422318,62.5863571167,-0.1034168601,-0.0481097698,-0.0326940417,-67.2696838379,84.4935531616,-151.8252563477,0.0232174397,0.0243207812,0.0230284333,43.6945457458,40.6691017151,-128.7954711914,0.0623340607,-0.0128418207,-0.0114035606,
356.163,-3.2527191639,1.3586584330,40.7323989868,0.0603319332,0.0484234653,0.0028696656,-101.5253143311,-11.6492757797,62.4228439331,-0.1135413945,-0.0415199995,-0.0225153714,-67.4021301270,84.4899978638,-151.9602203369,0.0193052292,0.0259275138,0.0266340971,43.6987495422,40.6631736755,-128.7858581543,0.0676266551,-0.0099989772,-0.0050661564,
356.173,-3.2514231205,1.3603045940,40.7353858948,0.0569426902,0.0488891304,0.0097049475,-101.4643020630,-11.6409463882,62.2629852295,-0.1143755913,-0.0510491133,-0.0225554854,-67.4961624146,84.4838790894,-152.0543365479,0.0192949772,0.0231555700,0.0301615000,43.7001533508,40.6608848572,-128.7804565430,0.0705260038,-0.0217491388,-0.0133728981,
356.183,-3.2519807816,1.3618142605,40.7364196777,0.0613635629,0.0425511524,0.0101946592,-101.4055557251,-11.6333646774,62.1043739319,-0.1122928560,-0.0552187562,-0.0333001465,-67.5911941528,84.4798355103,-152.1501922607,0.0178233385,0.0286553502,0.0356558561,43.7054901123,40.6587066650,-128.7712707520,0.0656143427,-0.0135166049,-0.0099240541,
356.193,-3.2541551590,1.3629149199,40.7370185852,0.0540585518,0.0455186926,0.0092205405,-101.3461685181,-11.6247615814,61.9442062378,-0.1106809378,-0.0447350144,-0.0318485647,-67.7468490601,84.4768447876,-152.3075714111,0.0192831755,0.0253825486,0.0163553953,43.7122879028,40.6547813416,-128.7614898682,0.0640975237,-0.0106828213,-0.0098941326,
356.203,-3.2557365894,1.3621386290,40.7381629944,0.0628340691,0.0411517322,0.0072686672,-101.2846298218,-11.6121072769,61.7826690674,-0.1070466340,-0.0518094301,-0.0377546102,-67.8971710205,84.4706802368,-152.4577636719,0.0202493668,0.0192343295,0.0253418684,43.7166709900,40.6504211426,-128.7546386719,0.0591570139,-0.0132004023,-0.0054954290,
356.213,-3.2535667419,1.3616832495,40.7387351990,0.0613612793,0.0479498804,0.0009186864,-101.2172012329,-11.5972299576,61.6202087402,-0.1150930822,-0.0510452390,-0.0320395082,-68.0325775146,84.4581451416,-152.5966033936,0.0212048292,0.0175617635,0.0337819457,43.7206573486,40.6431541443,-128.7473449707,0.0663850307,-0.0172019601,-0.0055185556,
356.223,-3.2523229122,1.3615938425,40.7404747009,0.0628245622,0.0445102490,0.0106827021,-101.1499099731,-11.5825233459,61.4573745728,-0.1163064837,-0.0488185287,-0.0229047388,-68.1786575317,84.4497375488,-152.7463226318,0.0260734558,0.0236510336,0.0232190490,43.7288093567,40.6357879639,-128.7365112305,0.0653108954,-0.0153847933,-0.0074577332,
356.233,-3.2515225410,1.3609932661,40.7423019409,0.0603726730,0.0493791252,0.0121471286,-101.0879516602,-11.5671329498,61.2990722656,-0.1140902042,-0.0602805018,-0.0302815288,-68.3036270142,84.4409103394,-152.8763732910,0.0407069921,0.0267986953,0.0262950659,43.7321968079,40.6292343140,-128.7293090820,0.0637592077,-0.0144920349,0.0008206367,
356.243,-3.2529742718,1.3602502346,40.7452888489,0.0588948652,0.0328028724,0.0101946592,-101.0275955200,-11.5563116074,61.1429367065,-0.1134168804,-0.0361195803,-0.0268934071,-68.4365615845,84.4353485107,-153.0166625977,0.0030999184,0.0328314304,0.0235442519,43.7357063293,40.6231155396,-128.7226257324,0.0675843954,-0.0145736933,-0.0060334206,
356.253,-3.2581832409,1.3590047359,40.7475700378,0.0627793819,0.0260577053,0.0126409531,-100.9701004028,-11.5435419083,60.9895629883,-0.1146633625,-0.0505369306,-0.0385923237,-68.5581741333,84.4293670654,-153.1445159912,0.0172499418,0.0237256289,0.0290746093,43.7386512756,40.6169013977,-128.7156677246,0.0626193285,-0.0122092366,0.0012667775,
356.263,-3.2621376514,1.3598703146,40.7492103577,0.0588882342,0.0310093835,-0.0059095025,-100.9139785767,-11.5331363678,60.8373603821,-0.1096026301,-0.0449481606,-0.0322040021,-68.6626815796,84.4196624756,-153.2565612793,0.0226045847,0.0185748339,0.0340660810,43.7423477173,40.6121444702,-128.7084808350,0.0640211105,-0.0117937326,-0.0060626864,
356.273,-3.2634100914,1.3568062782,40.7504119873,0.0642058700,0.0359144323,0.0019029975,-100.8594741821,-11.5195455551,60.6833381653,-0.1196241081,-0.0457023382,-0.0350636840,-68.7712173462,84.4145736694,-153.3682556152,0.0182014108,0.0201888680,0.0307925940,43.7483787537,40.6058082581,-128.7009429932,0.0717496276,-0.0119012594,-0.0080124140,
356.283,-3.2634274960,1.3548702002,40.7521820068,0.0651486516,0.0378679037,0.0141088963,-100.8054962158,-11.5055150986,60.5279998779,-0.1193841398,-0.0454808474,-0.0354734808,-68.8602294922,84.4082260132,-153.4603729248,0.0181906223,0.0183941126,0.0323619246,43.7491264343,40.6005630493,-128.6967620850,0.0643559694,-0.0095081925,-0.0090251565,
356.293,-3.2624278069,1.3550457954,40.7532768250,0.0617337450,0.0437098630,0.0097141862,-100.7434082031,-11.4903516769,60.3716545105,-0.1147302687,-0.0403481126,-0.0252763927,-68.9693984985,84.4035644531,-153.5727996826,0.0196475387,0.0283001363,0.0295825005,43.7529106140,40.5929107666,-128.6876068115,0.0740201473,-0.0076513886,-0.0095416307,
356.303,-3.2630720139,1.3537994623,40.7544975281,0.0602471568,0.0422562733,0.0087372661,-100.6844787598,-11.4707269669,60.2141990662,-0.1222071052,-0.0410705209,-0.0355316848,-69.0754928589,84.3979339600,-153.6790008545,0.0088957548,0.0245516300,0.0316729546,43.7554512024,40.5877914429,-128.6819610596,0.0636984110,-0.0145518184,-0.0002828836,
356.313,-3.2632262707,1.3515478373,40.7574996948,0.0660672411,0.0417707227,0.0033655167,-100.6270904541,-11.4493646622,60.0544433594,-0.1154940426,-0.0442344546,-0.0296470672,-69.1828308105,84.3926544189,-153.7877197266,0.0157226920,0.0266534388,0.0274227858,43.7588577271,40.5818061829,-128.6727905273,0.0724080801,-0.0121900439,-0.0081132650,
356.323,-3.2647936344,1.3496696949,40.7581024170,0.0626164973,0.0432629213,0.0160615444,-100.5712890625,-11.4261455536,59.8937225342,-0.1155851185,-0.0439799428,-0.0291062742,-69.2994384766,84.3873443604,-153.9043426514,0.0137605071,0.0204646289,0.0295331478,43.7615623474,40.5783615112,-128.6641387939,0.0621085167,-0.0171257854,-0.0071401000,
356.333,-3.2638196945,1.3494776487,40.7599525452,0.0567537770,0.0456873700,0.0111777186,-100.5176925659,-11.4015979767,59.7316589355,-0.1146768928,-0.0364050269,-0.0319451094,-69.3674163818,84.3822097778,-153.9719696045,0.0186345577,0.0240042806,0.0359623432,43.7610549927,40.5742568970,-128.6602325439,0.0649838448,-0.0147117376,-0.0037605762,
356.343,-3.2647149563,1.3502084017,40.7603912354,0.0616493411,0.0393552929,0.0053194761,-100.4675216675,-11.3778362274,59.5697975159,-0.1157351732,-0.0395860672,-0.0425406545,-69.4660339355,84.3788604736,-154.0710601807,0.0147225857,0.0250951052,0.0219435692,43.7634773254,40.5695190430,-128.6537933350,0.0673624277,-0.0137956142,-0.0071951747,
356.353,-3.2640273571,1.3513385057,40.7608604431,0.0602042153,0.0427612551,0.0038543940,-100.4195327759,-11.3524103165,59.4122200012,-0.1157884002,-0.0417928696,-0.0340552330,-69.5446166992,84.3751678467,-154.1533355713,0.0156928301,0.0217852294,0.0298625231,43.7626571655,40.5667533875,-128.6504211426,0.0678139925,-0.0172274113,-0.0067372322,
356.363,-3.2640652657,1.3523278236,40.7613525391,0.0587566346,0.0422736034,0.0097143054,-100.3691787720,-11.3312005997,59.2542152405,-0.1124957502,-0.0557261705,-0.0280538499,-69.5956726074,84.3743667603,-154.2093353271,0.0205742717,0.0262236297,0.0323830843,43.7625579834,40.5651969910,-128.6470642090,0.0707230568,-0.0177269578,-0.0043091774,
356.373,-3.2630813122,1.3509814739,40.7656059265,0.0611745492,0.0412799381,0.0077595711,-100.3185653687,-11.3115043640,59.0985984802,-0.1170414686,-0.0501331091,-0.0376836210,-69.6959457397,84.3755798340,-154.3125915527,0.0215529203,0.0248008370,0.0252305865,43.7646408081,40.5632057190,-128.6429290771,0.0672787428,-0.0143445730,-0.0111424327,
356.383,-3.2620201111,1.3508708477,40.7661933899,0.0582429245,0.0461442657,0.0072704554,-100.2640838623,-11.2914018631,58.9434776306,-0.1196271181,-0.0528289676,-0.0346823931,-69.7668838501,84.3730392456,-154.3866729736,0.0210602880,0.0209772289,0.0326570868,43.7678222656,40.5579948425,-128.6357116699,0.0755104423,-0.0105096102,-0.0052964687,
356.393,-3.2618572712,1.3493676186,40.7667922974,0.0630995184,0.0451649018,0.0067809820,-100.2099304199,-11.2759189606,58.7869720459,-0.1125261784,-0.0496823192,-0.0336329639,-69.8749847412,84.3712310791,-154.4960632324,0.0166626573,0.0244913697,0.0313583612,43.7722282410,40.5546569824,-128.6265869141,0.0642356277,-0.0052070022,-0.0072365999,
356.403,-3.2630906105,1.3518246412,40.7672042847,0.0577712916,0.0403035134,0.0058069229,-100.1551971436,-11.2589139938,58.6325340271,-0.1185827553,-0.0484834909,-0.0364977568,-70.0000686646,84.3662872314,-154.6224822998,0.0147010684,0.0241535604,0.0227487683,43.7775650024,40.5508575439,-128.6184234619,0.0612556338,-0.0101707578,-0.0067310333,
356.413,-3.2637178898,1.3518470526,40.7689514160,0.0602130890,0.0422675721,0.0087372065,-100.0994873047,-11.2442770004,58.4755401611,-0.1110079885,-0.0487554073,-0.0344982892,-70.1067047119,84.3583602905,-154.7321929932,0.0137109160,0.0233725309,0.0302001238,43.7792434692,40.5450592041,-128.6104125977,0.0675263405,-0.0151149631,-0.0013909340,
356.423,-3.2648060322,1.3519300222,40.7693672180,0.0660739094,0.0408216864,0.0058087707,-100.0390319824,-11.2251358032,58.3181343079,-0.1209342480,-0.0402095318,-0.0311120749,-70.2632598877,84.3524932861,-154.8916778564,0.0176070929,0.0196503997,0.0148020387,43.7835998535,40.5411338806,-128.6018066406,0.0542907119,-0.0151877403,-0.0077317953,
356.433,-3.2657883167,1.3529063463,40.7710914612,0.0587667227,0.0432801768,0.0014156103,-99.9822540283,-11.2030906677,58.1605682373,-0.1151857376,-0.0404554605,-0.0310799479,-70.3678894043,84.3458404541,-154.9988250732,0.0039237738,0.0251941085,0.0320248604,43.7893257141,40.5323600769,-128.5936889648,0.0722407103,-0.0148230791,-0.0106803179,
356.443,-3.2624013424,1.3538221121,40.7710380554,0.0587827042,0.0500570908,0.0062949657,-99.9211654663,-11.1852874756,58.0035629272,-0.1158574522,-0.0529109240,-0.0281935334,-70.5102157593,84.3356552124,-155.1467590332,0.0175781250,0.0161595941,0.0209751725,43.7945213318,40.5276222229,-128.5845336914,0.0653418899,-0.0139334798,-0.0096949339,
356.453,-3.2594687939,1.3559709787,40.7709350586,0.0588201992,0.0548887625,0.0082464218,-99.8608016968,-11.1673870087,57.8490142822,-0.1194572151,-0.0404666662,-0.0218778849,-70.6387863159,84.3308105469,-155.2787475586,0.0200111866,0.0226660073,0.0206703544,43.7955055237,40.5209693909,-128.5799102783,0.0628123283,-0.0208309889,0.0024667978,
356.463,-3.2563760281,1.3582235575,40.7732849121,0.0569063798,0.0509285852,0.0116623044,-99.8044967651,-11.1526145935,57.6970214844,-0.1182277203,-0.0319525003,-0.0355145931,-70.7577743530,84.3261795044,-155.4041137695,0.0243977308,0.0286642313,0.0276812315,43.7967147827,40.5135231018,-128.5755462646,0.0719908476,-0.0140650868,-0.0083252192,
356.473,-3.2559607029,1.3560671806,40.7745246887,0.0632164106,0.0460385829,0.0028719902,-99.7517547607,-11.1405115128,57.5456390381,-0.1180204451,-0.0449424982,-0.0393280089,-70.8860549927,84.3252868652,-155.5371246338,0.0087711811,0.0248476565,0.0181242824,43.7995605469,40.5071640015,-128.5689849854,0.0719064474,-0.0146304965,-0.0024917126,
356.483,-3.2538464069,1.3572514057,40.7756958008,0.0559128523,0.0455134436,0.0053118467,-99.6961746216,-11.1270160675,57.3962478638,-0.1231604218,-0.0515730381,-0.0422118604,-71.0208435059,84.3206634521,-155.6792907715,0.0273178816,0.0235377550,0.0266232491,43.8022994995,40.5016517639,-128.5626220703,0.0669505000,-0.0044460297,-0.0034883022,
356.493,-3.2542686462,1.3551857471,40.7757225037,0.0627127513,0.0474739745,0.0043347478,-99.6389465332,-11.1123819351,57.2460708618,-0.1248629391,-0.0489186049,-0.0290100127,-71.1493911743,84.3156204224,-155.8155364990,0.0136373043,0.0271086693,0.0336475372,43.8068428040,40.4945335388,-128.5552215576,0.0624614358,-0.0143110752,-0.0093640685,
356.503,-3.2523300648,1.3560281992,40.7775230408,0.0573563576,0.0469519086,0.0092155933,-99.5801315308,-11.0998916626,57.0987281799,-0.1305083930,-0.0531037450,-0.0353676975,-71.3221282959,84.3095550537,-155.9956665039,0.0141150951,0.0248638093,0.0202318430,43.8109130859,40.4863624573,-128.5487670898,0.0657709241,-0.0129493475,-0.0089051723,
356.513,-3.2522416115,1.3552523851,40.7786521912,0.0651553124,0.0469503812,0.0116569996,-99.5224533081,-11.0904664993,56.9546966553,-0.1254641712,-0.0577917099,-0.0334070623,-71.4518890381,84.3016357422,-156.1292572021,0.0170310736,0.0221370459,0.0311478972,43.8145828247,40.4790534973,-128.5412139893,0.0578614473,-0.0091355443,-0.0016070604,
356.523,-3.2533843517,1.3574759960,40.7791175842,0.0544519275,0.0362280570,0.0106824636,-99.4635467529,-11.0817108154,56.8094100952,-0.1282438934,-0.0536902547,-0.0402569920,-71.6032638550,84.2932891846,-156.2849121094,0.0179931521,0.0238178670,0.0362428427,43.8201942444,40.4711227417,-128.5305328369,0.0660569072,-0.0116928816,-0.0152921677,
356.533,-3.2523665428,1.3570040464,40.7808990479,0.0598147884,0.0415814221,0.0092164278,-99.4049377441,-11.0751895905,56.6686172485,-0.1198314130,-0.0403208137,-0.0285487175,-71.7782287598,84.2852249146,-156.4642028809,0.0140728951,0.0220984519,0.0267262459,43.8253822327,40.4622421265,-128.5191345215,0.0683804750,-0.0113238692,-0.0094571710,
356.543,-3.2537634373,1.3569356203,40.7826499939,0.0607901551,0.0416057594,0.0160536170,-99.3569717407,-11.0713548660,56.5319290161,-0.1256251037,-0.0352917314,-0.0322867930,-71.9250106812,84.2773056030,-156.6144409180,0.0165005326,0.0237686932,0.0288878679,43.8272781372,40.4530334473,-128.5134124756,0.0663049817,-0.0114144087,-0.0002383590,
356.553,-3.2530560493,1.3561607599,40.7844696045,0.0607766360,0.0469645523,0.0062869191,-99.3082580566,-11.0723867416,56.3969955444,-0.1153888702,-0.0361365676,-0.0238336325,-72.0765151978,84.2676925659,-156.7708435059,0.0228314400,0.0210810006,0.0222567916,43.8297500610,40.4432182312,-128.5076599121,0.0778933764,-0.0163976550,-0.0056657791,
356.563,-3.2529811859,1.3548784256,40.7844238281,0.0622191057,0.0406156108,0.0072628260,-99.2658538818,-11.0754022598,56.2671928406,-0.1247178614,-0.0433538556,-0.0357825756,-72.2185058594,84.2599029541,-156.9211120605,0.0203764439,0.0183512866,0.0302718282,43.8319854736,40.4404678345,-128.5032196045,0.0602787733,-0.0174173713,-0.0061571598,
356.573,-3.2523958683,1.3531620502,40.7856559753,0.0597477518,0.0401171818,0.0087263584,-99.2260589600,-11.0821075439,56.1406402588,-0.1160436571,-0.0408250093,-0.0335298330,-72.3914871216,84.2562789917,-157.1035156250,0.0208584070,0.0224149525,0.0115022659,43.8339385986,40.4338226318,-128.5016632080,0.0689795017,-0.0096755028,-0.0008213520,
356.583,-3.2531490326,1.3530045748,40.7849655151,0.0602332838,0.0420834236,0.0053093433,-99.1875991821,-11.0882081985,56.0142898560,-0.1200543940,-0.0407401323,-0.0361363590,-72.5121536255,84.2506866455,-157.2380065918,0.0159658194,0.0206136703,0.0312126875,43.8316650391,40.4281578064,-128.5021362305,0.0630449057,-0.0101865530,0.0098527074,
356.593,-3.2517390251,1.3545812368,40.7872772217,0.0612373576,0.0493830405,0.0062851906,-99.1543655396,-11.0906543732,55.8884277344,-0.1240025163,-0.0387043953,-0.0410945117,-72.6607589722,84.2462615967,-157.3999938965,0.0140049458,0.0217463076,0.0255819559,43.8363914490,40.4226150513,-128.4985046387,0.0712720156,-0.0132048130,-0.0096793771,
356.603,-3.2504527569,1.3569267988,40.7884254456,0.0539540648,0.0469191819,0.0038429499,-99.1203842163,-11.0935478210,55.7629776001,-0.1230755448,-0.0518052578,-0.0382529795,-72.7860946655,84.2428207397,-157.5391540527,0.0198583007,0.0272371471,0.0291985869,43.8397865295,40.4161338806,-128.4944763184,0.0658147931,-0.0162180066,-0.0023777485,
356.613,-3.2514371872,1.3561309576,40.7889823914,0.0607761145,0.0410769731,0.0111681223,-99.0832748413,-11.0990037918,55.6388664246,-0.1260986626,-0.0551410913,-0.0423012823,-72.9136276245,84.2387008667,-157.6815795898,0.0066674948,0.0273721516,0.0318374038,43.8471221924,40.4143791199,-128.4867248535,0.0589556098,-0.0109307766,-0.0145304799,
356.623,-3.2500450611,1.3566142321,40.7901344299,0.0583431423,0.0430058353,0.0048193336,-99.0398254395,-11.1055707932,55.5153732300,-0.1242580116,-0.0452800393,-0.0391338021,-73.0824737549,84.2291183472,-157.8635101318,0.0169045925,0.0212697685,0.0252431631,43.8526649475,40.4048957825,-128.4811248779,0.0656654835,-0.0105701089,-0.0111399889,
356.633,-3.2489147186,1.3566157818,40.7913475037,0.0559017621,0.0420095772,0.0097010136,-98.9904403687,-11.1115188599,55.3946304321,-0.1331489384,-0.0471204519,-0.0267891884,-73.2982788086,84.2203598022,-158.0887908936,0.0090767145,0.0254311562,0.0245944858,43.8571891785,40.3935699463,-128.4747924805,0.0679563284,-0.0102137923,-0.0019124150,
356.643,-3.2490737438,1.3573297262,40.7930946350,0.0578673407,0.0395709388,0.0111659765,-98.9447937012,-11.1174812317,55.2765083313,-0.1273916960,-0.0396943092,-0.0329358578,-73.5016174316,84.2100601196,-158.3017578125,0.0202890635,0.0266820192,0.0273358226,43.8609580994,40.3852195740,-128.4664916992,0.0566148758,-0.0117803812,-0.0019463301,
356.653,-3.2467758656,1.3572643995,40.7948799133,0.0583544895,0.0439254344,0.0082346201,-98.8995132446,-11.1215276718,55.1621131897,-0.1294140816,-0.0400760174,-0.0249151587,-73.6914520264,84.1993713379,-158.4999847412,0.0148991346,0.0337868631,0.0261488557,43.8660774231,40.3730888367,-128.4580383301,0.0632895231,-0.0099711418,-0.0005322695,
356.663,-3.2469267845,1.3550224304,40.7967643738,0.0617333353,0.0439281128,0.0092098117,-98.8625030518,-11.1221714020,55.0499839783,-0.1318665147,-0.0346093774,-0.0392136276,-73.8975677490,84.1870498657,-158.7139587402,0.0168305039,0.0267682970,0.0284007192,43.8751983643,40.3577919006,-128.4488983154,0.0713868737,-0.0033426285,-0.0039919019,
356.673,-3.2453455925,1.3536968231,40.7979354858,0.0626867712,0.0414591990,0.0092080235,-98.8287887573,-11.1264591217,54.9394798279,-0.1221743226,-0.0311169624,-0.0314859301,-74.0937118530,84.1756973267,-158.9186096191,0.0124158859,0.0304712057,0.0306413174,43.8808708191,40.3469886780,-128.4401245117,0.0595244169,-0.0171533823,-0.0064680576,
356.683,-3.2462091446,1.3546537161,40.7990760803,0.0568440929,0.0414742157,0.0096975565,-98.7940597534,-11.1284685135,54.8297348022,-0.1270915568,-0.0378684998,-0.0374461710,-74.2639541626,84.1611099243,-159.0987243652,-0.0139771700,0.0298155248,0.0347778797,43.8894386292,40.3351669312,-128.4310150146,0.0613203049,-0.0041445494,-0.0016031265,
356.693,-3.2474286556,1.3544670343,40.8003044128,0.0543994270,0.0380774923,0.0092102289,-98.7605972290,-11.1271409988,54.7193412781,-0.1319516301,-0.0494956970,-0.0448476821,-74.4445419312,84.1469955444,-159.2870788574,0.0314078927,0.0267198384,0.0286802649,43.8958015442,40.3239212036,-128.4239501953,0.0616589189,-0.0125944614,-0.0050538778,
356.703,-3.2508597374,1.3526473045,40.8007698059,0.0660864264,0.0327662192,0.0004241467,-98.7260437012,-11.1292915344,54.6095237732,-0.1324767470,-0.0157214403,-0.0517817438,-74.6546173096,84.1369552612,-159.5066070557,-0.0135318637,0.0367511213,0.0158205032,43.9048156738,40.3137054443,-128.4120941162,0.0629878044,-0.0069015026,-0.0040769577,
356.713,-3.2548758984,1.3521689177,40.8018188477,0.0616835505,0.0284416601,0.0043340921,-98.6829910278,-11.1303710938,54.5009193420,-0.1285889745,-0.0449105501,-0.0388392657,-74.7781295776,84.1250991821,-159.6358947754,0.0279508829,0.0252872407,0.0277031660,43.9099807739,40.3000068665,-128.4040222168,0.0715945959,-0.0158473253,-0.0046289563,
356.723,-3.2571585178,1.3525061607,40.8028831482,0.0612011477,0.0343407840,0.0106841326,-98.6328277588,-11.1312370300,54.3924331665,-0.1310452223,-0.0482021570,-0.0401776880,-74.9709014893,84.1131362915,-159.8366088867,0.0083982348,0.0319222212,0.0289673209,43.9125404358,40.2872123718,-128.3969268799,0.0714243054,-0.0184133053,0.0011501312,
356.733,-3.2577300072,1.3499964476,40.8059120178,0.0650636107,0.0402101763,0.0092186928,-98.5881729126,-11.1283950806,54.2850227356,-0.1309965253,-0.0363598466,-0.0463031828,-75.1447296143,84.1038131714,-160.0140380859,0.0186354518,0.0302070677,0.0341156125,43.9197654724,40.2790527344,-128.3843841553,0.0586202741,-0.0151285529,-0.0100799203,
356.743,-3.2572462559,1.3499574661,40.8082160950,0.0626215190,0.0397134647,0.0067768097,-98.5416488647,-11.1248741150,54.1773185730,-0.1265417039,-0.0332998633,-0.0343944430,-75.3332290649,84.0930252075,-160.2097625732,0.0117801428,0.0285175443,0.0246385932,43.9278678894,40.2657585144,-128.3722991943,0.0672323704,-0.0084743500,-0.0066950917,
356.753,-3.2574546337,1.3491040468,40.8087463379,0.0630949140,0.0416702479,0.0101945996,-98.5009155273,-11.1201305389,54.0729866028,-0.1264604926,-0.0380636454,-0.0428946465,-75.4989547729,84.0789031982,-160.3814086914,0.0176141262,0.0258994699,0.0292661786,43.9329643250,40.2560348511,-128.3617858887,0.0583137870,-0.0149469376,-0.0047737956,
356.763,-3.2581727505,1.3510909081,40.8104057312,0.0597116128,0.0441241190,0.0072666407,-98.4673614502,-11.1177062988,53.9728622437,-0.1249541342,-0.0296702385,-0.0332078487,-75.6902465820,84.0653152466,-160.5793609619,0.0166130662,0.0242550671,0.0232038498,43.9369812012,40.2462310791,-128.3533782959,0.0635542870,-0.0155505538,-0.0033516288,
