Time(sec),Gyr1_X(deg/sec),Gyr1_Y(deg/sec),Gyr1_Z(deg/sec),Acc1_X(m/s^2),Acc1_Y(m/s^2),Acc1_Z(m/s^2),Gyr2_X(deg/sec),Gyr2_Y(deg/sec),Gyr2_Z(deg/sec),Acc2_X(m/s^2),Acc2_Y(m/s^2),Acc2_Z(m/s^2),Gyr_X(deg/sec),Gyr_Y(deg/sec),Gyr_Z(deg/sec),Acc_X(m/s^2),Acc_Y(m/s^2),Acc_Z(m/s^2),Gyr_X(deg/sec),Gyr_Y(deg/sec),Gyr_Z(deg/sec),Acc_X(m/s^2),Acc_Y(m/s^2),Acc_Z(m/s^2),
86.743,-3.2888417244,1.3932092190,9.6724119186,0.0604465045,0.0431925207,0.0112208724,-105.6000289917,71.9158325195,55.7311439514,0.0287265182,0.0566319227,0.0080227256,-12.1834449768,84.3052520752,60.0314445496,0.0209435821,0.0243315697,0.0185518563,42.4440841675,43.4648399353,53.6226119995,0.0614444613,-0.0089665651,0.0004286766,
86.753,-3.2890772820,1.3928474188,9.6722793579,0.0658112839,0.0436849035,0.0170804262,-104.9406356812,71.8041915894,56.4328155518,0.0354441404,0.0617989004,0.0074837804,-12.3066759109,84.3074264526,59.9175300598,0.0277832747,0.0260025561,0.0264418423,42.4481239319,43.4598274231,53.6343536377,0.0687052608,-0.0144160986,-0.0049530268,
86.763,-3.2901036739,1.3927981853,9.6733608246,0.0623924583,0.0388199762,0.0063393116,-104.2814331055,71.6832580566,57.1545448303,0.0362477899,0.0656189024,0.0210922360,-12.4221687317,84.3113861084,59.8116226196,0.0253487229,0.0242338777,0.0241138339,42.4522514343,43.4564018250,53.6456604004,0.0676852465,-0.0139939785,-0.0029939413,
86.773,-3.2897405624,1.3916460276,9.6726522446,0.0662786067,0.0436964929,0.0161040425,-103.6584548950,71.5452041626,57.8648681641,0.0418354273,0.0613362193,0.0070748925,-12.5442514420,84.3113098145,59.6994819641,0.0263251662,0.0210275054,0.0231796205,42.4537506104,43.4495964050,53.6547203064,0.0710170269,-0.0111336708,0.0033051968,
86.783,-3.2880296707,1.3911746740,9.6732339859,0.0594344437,0.0441549793,0.0053599477,-103.0760192871,71.3938598633,58.5587463379,0.0375779867,0.0635368228,-0.0067298412,-12.6336755753,84.3157577515,59.6199340820,0.0238914490,0.0250712633,0.0145002902,42.4559974670,43.4484176636,53.6649818420,0.0675840974,-0.0121405721,-0.0054742098,
86.793,-3.2863321304,1.3917887211,9.6756544113,0.0560271889,0.0460785218,0.0058468580,-102.5298004150,71.2256698608,59.2316970825,0.0434732437,0.0630123317,-0.0076372027,-12.7221937180,84.3172760010,59.5414390564,0.0248706341,0.0252186954,0.0184632838,42.4582443237,43.4423522949,53.6743354797,0.0714135170,-0.0102577806,-0.0035562515,
86.803,-3.2877588272,1.3937963247,9.6766891479,0.0594801866,0.0417087860,0.0063373446,-101.9972381592,71.0314712524,59.8967933655,0.0428652167,0.0389444828,-0.0025787950,-12.8013420105,84.3194198608,59.4720802307,0.0297571421,0.0248583555,0.0219495893,42.4601135254,43.4387550354,53.6836891174,0.0659967661,-0.0112808943,-0.0021067858,
86.813,-3.2870888710,1.3999685049,9.6769142151,0.0576347560,0.0426735394,0.0063388348,-101.4676132202,70.8259048462,60.5558242798,0.0451108813,0.0384757519,0.0019803643,-12.9003057480,84.3239059448,59.3830337524,0.0224406719,0.0240353346,0.0225501060,42.4654769897,43.4360313416,53.6959877014,0.0649857521,-0.0118413866,-0.0084332824,
86.823,-3.2888844013,1.3992373943,9.6787157059,0.0605516843,0.0446579568,0.0043879151,-100.9375686646,70.6084365845,61.2070083618,0.0428809524,0.0372042358,0.0025998950,-12.9722547531,84.3268356323,59.3173408508,0.0214691758,0.0246358514,0.0206755698,42.4668884277,43.4320259094,53.7039985657,0.0620052814,-0.0104220808,-0.0001550913,
86.833,-3.2870070934,1.3989313841,9.6792221069,0.0629877523,0.0426721349,0.0014556646,-100.3852310181,70.3850097656,61.8772544861,0.0435321331,0.0428680480,0.0113384724,-13.0346765518,84.3269042969,59.2615051270,0.0243989825,0.0213257968,0.0231380761,42.4717407227,43.4295387268,53.7115402222,0.0629503131,-0.0056049824,-0.0079488158,
86.843,-3.2873854637,1.3986942768,9.6803703308,0.0610304922,0.0431670137,0.0097568631,-99.8173370361,70.1474304199,62.5587387085,0.0328547359,0.0360583663,0.0199491382,-13.0883893967,84.3286361694,59.2122917175,0.0204957128,0.0189692378,0.0129382610,42.4723205566,43.4314422607,53.7174491882,0.0644392967,-0.0134073496,-0.0035317540,
86.853,-3.2884435654,1.3977410793,9.6821508408,0.0615021363,0.0407440551,0.0092688799,-99.2538452148,69.8987655640,63.2334518433,0.0333251357,0.0367216766,0.0114428401,-13.1478662491,84.3308105469,59.1554603577,0.0170814991,0.0249224305,0.0247163177,42.4680709839,43.4327812195,53.7207107544,0.0610382557,-0.0157982111,0.0018146634,
86.863,-3.2870855331,1.3951249123,9.6821279526,0.0668275878,0.0451150015,0.0058490634,-98.6970520020,69.6407165527,63.9020767212,0.0390919447,0.0467816591,0.0185397863,-13.1979913712,84.3330230713,59.1098937988,0.0253860950,0.0245119035,0.0267244875,42.4667549133,43.4311714172,53.7240295410,0.0688303709,-0.0148223639,-0.0001640916,
86.873,-3.2867860794,1.3965889215,9.6820440292,0.0570875071,0.0455980338,0.0136615038,-98.1534500122,69.3750305176,64.5561218262,0.0374686122,0.0554615259,0.0163703561,-13.2534952164,84.3378753662,59.0587310791,0.0200233459,0.0289826095,0.0199920237,42.4664993286,43.4310379028,53.7289543152,0.0624810457,-0.0197039843,-0.0011445284,
86.883,-3.2881631851,1.3964260817,9.6819458008,0.0624557585,0.0441571772,0.0038973093,-97.6277084351,69.1054763794,65.1914138794,0.0353127718,0.0539081395,0.0108149648,-13.3487405777,84.3426132202,58.9668579102,0.0210080743,0.0193616450,0.0171788633,42.4724082947,43.4256248474,53.7370414734,0.0633889437,-0.0036897063,-0.0021180511,
86.893,-3.2904326916,1.3957185745,9.6836738586,0.0624434128,0.0388256423,-0.0000068545,-97.1119461060,68.8303375244,65.8198165894,0.0433550477,0.0626636147,0.0106198192,-13.4346542358,84.3429260254,58.8846817017,0.0263797045,0.0214604139,0.0294266343,42.4768981934,43.4222679138,53.7462882996,0.0682292581,-0.0081534088,-0.0045502186,
86.903,-3.2909111977,1.3967967033,9.6853446960,0.0605091006,0.0407870710,0.0004823208,-96.6195068359,68.5480957031,66.4401321411,0.0410764813,0.0646542907,0.0100132227,-13.5088357925,84.3457717896,58.8149528503,0.0185720921,0.0274358690,0.0236422420,42.4827194214,43.4181747437,53.7577362061,0.0711070299,-0.0111707449,-0.0064905286,
86.913,-3.2922399044,1.3961702585,9.6859254837,0.0600098856,0.0442282036,0.0063428879,-96.1543502808,68.2524948120,67.0499267578,0.0430834889,0.0638850033,0.0104994774,-13.6052284241,84.3476028442,58.7226448059,0.0215049386,0.0236862004,0.0256696939,42.4868392944,43.4143676758,53.7659149170,0.0666642189,-0.0112400949,-0.0020939708,
86.923,-3.2914419174,1.3948675394,9.6870565414,0.0668230951,0.0451908894,0.0073176622,-95.7218017578,67.9462432861,67.6416931152,0.0410898328,0.0632395446,0.0086939931,-13.6995925903,84.3521804810,58.6335639954,0.0190714002,0.0243181586,0.0208969116,42.4947128296,43.4081726074,53.7772445679,0.0709801912,-0.0074576139,-0.0045226812,
86.933,-3.2920625210,1.3940725327,9.6894493103,0.0609498508,0.0422720350,0.0058533549,-95.3008422852,67.6245117188,68.2145309448,0.0550800562,0.0535337627,0.0000749230,-13.7949180603,84.3531188965,58.5416107178,0.0215144157,0.0293594003,0.0331610441,42.4996070862,43.4044723511,53.7860832214,0.0621442795,-0.0124162436,0.0028101206,
86.943,-3.2920582294,1.3952338696,9.6924638748,0.0565755814,0.0486195870,0.0122010708,-94.8493270874,67.2875213623,68.7661056519,0.0474540591,0.0430881977,0.0268366337,-13.8741388321,84.3559646606,58.4693603516,0.0342146158,0.0226470232,0.0210337043,42.5077018738,43.3982696533,53.7995529175,0.0757374167,-0.0086358786,-0.0137761235,
86.953,-3.2918033600,1.3935699463,9.6936454773,0.0638707727,0.0432440937,0.0092711449,-94.4304580688,66.9492797852,69.2860260010,0.0446703434,0.0604478121,0.0136956573,-13.9785709381,84.3604507446,58.3699722290,0.0273863673,0.0232948959,0.0143153667,42.5117149353,43.3949165344,53.8094673157,0.0644645095,-0.0126068592,-0.0030298233,
86.963,-3.2939181328,1.3911001682,9.6967487335,0.0604097098,0.0413278714,0.0029240251,-94.0271072388,66.6060104370,69.8016433716,0.0393782854,0.0539263189,0.0079103112,-14.0533227921,84.3650054932,58.3015365601,0.0239762068,0.0253565907,0.0212574005,42.5150375366,43.3908233643,53.8172225952,0.0688071251,-0.0131592453,-0.0049899817,
86.973,-3.2932775021,1.3929090500,9.6971912384,0.0599529892,0.0447346419,0.0034127831,-93.6146087646,66.2552032471,70.3226547241,0.0447425842,0.0440826416,0.0112660527,-14.1062850952,84.3676452637,58.2517700195,0.0264221430,0.0259239674,0.0223000944,42.5175170898,43.3898811340,53.8253784180,0.0702599883,-0.0175847411,-0.0064425468,
86.983,-3.2924404144,1.3917953968,9.6982851028,0.0687226206,0.0452083647,0.0170829892,-93.1957473755,65.8964309692,70.8436813354,0.0417150259,0.0431263149,0.0184072256,-14.1623401642,84.3736343384,58.1997985840,0.0244792700,0.0215999186,0.0199806690,42.5252342224,43.3884849548,53.8360366821,0.0687774420,-0.0083908439,-0.0034586787,
86.993,-3.2921824455,1.3914484978,9.7005939484,0.0662751570,0.0452038795,0.0175715089,-92.7851562500,65.5291900635,71.3557510376,0.0356606841,0.0442217588,0.0084393620,-14.2148170471,84.3753814697,58.1498451233,0.0181345940,0.0314474702,0.0263785124,42.5335464478,43.3873519897,53.8470497131,0.0629037023,-0.0099425316,-0.0033973455,
87.003,-3.2918617725,1.3921403885,9.7023010254,0.0618927032,0.0456865504,0.0014572144,-92.4021224976,65.1619415283,71.8437881470,0.0417760015,0.0638297796,0.0034712553,-14.2813062668,84.3785095215,58.0851898193,0.0186282396,0.0237339139,0.0240206718,42.5370292664,43.3825454712,53.8532295227,0.0696786642,-0.0124554634,0.0039142966,
87.013,-3.2941293716,1.3947948217,9.7008399963,0.0590093285,0.0388900526,0.0107385516,-92.0371932983,64.7871856689,72.3169021606,0.0394974351,0.0547095835,0.0053993464,-14.3976984024,84.3840255737,57.9716987610,0.0230321884,0.0195142925,0.0192741156,42.5435600281,43.3777580261,53.8632087708,0.0637585521,-0.0101138949,-0.0004662275,
87.023,-3.2911674976,1.3917912245,9.7033262253,0.0662811399,0.0505572818,-0.0004960299,-91.7169647217,64.4167175293,72.7595367432,0.0445367098,0.0664768815,-0.0075511932,-14.5195951462,84.3899612427,57.8498954773,0.0220657587,0.0196947157,0.0160090923,42.5512619019,43.3699226379,53.8731155396,0.0685419440,-0.0039018393,-0.0019348860,
87.033,-3.2901911736,1.3881119490,9.7033319473,0.0686583519,0.0437044203,0.0117084384,-91.4404983521,64.0454330444,73.1757583618,0.0490437150,0.0723597407,-0.0060725808,-14.6523036957,84.3984603882,57.7185859680,0.0211036801,0.0228122175,0.0137648582,42.5589714050,43.3649520874,53.8833732605,0.0689671636,-0.0128031969,-0.0019121766,
87.043,-3.2908971310,1.3894361258,9.7038002014,0.0574509874,0.0378573127,0.0058499575,-91.2051696777,63.6740646362,73.5700988770,0.0515592098,0.0684441328,-0.0126320720,-14.7265787125,84.4011459351,57.6436729431,0.0245262384,0.0263435543,0.0240968764,42.5632247925,43.3617324829,53.8920555115,0.0684381127,-0.0162869096,0.0020021200,
87.053,-3.2920856476,1.3904721737,9.7024021149,0.0623518713,0.0427608155,0.0053635240,-90.9957656860,63.3021278381,73.9535369873,0.0501263738,0.0664627850,0.0029359460,-14.7840166092,84.4038085938,57.5882530212,0.0294135809,0.0283823907,0.0300230086,42.5687294006,43.3561363220,53.9000282288,0.0639724731,-0.0129657984,-0.0019062161,
87.063,-3.2898335457,1.3908389807,9.7042617798,0.0545457751,0.0480926633,0.0029202700,-90.8144683838,62.9217071533,74.3197708130,0.0520064235,0.0660515428,-0.0018214583,-14.8767299652,84.4072494507,57.4968376160,0.0274662971,0.0216869414,0.0237754881,42.5733528137,43.3545532227,53.9091148376,0.0707883239,-0.0135101676,-0.0038335919,
87.073,-3.2919394970,1.3909944296,9.7035589218,0.0594312996,0.0393402725,0.0141524673,-90.6424942017,62.5396118164,74.6769027710,0.0411384702,0.0617350936,0.0105484724,-14.9171438217,84.4113082886,57.4554748535,0.0269849300,0.0300384164,0.0165337622,42.5793609619,43.3473777771,53.9187049866,0.0794863105,-0.0092299581,0.0020142198,
87.083,-3.2893610001,1.3917611837,9.7054204941,0.0555384308,0.0534554981,0.0112208724,-90.4749374390,62.1526756287,75.0264587402,0.0506993532,0.0623507202,0.0072955489,-14.9904956818,84.4173507690,57.3828811646,0.0279717445,0.0218338072,0.0127621591,42.5834465027,43.3459167480,53.9272117615,0.0672608018,-0.0097681880,-0.0028461218,
87.093,-3.2893834114,1.3921349049,9.7047166824,0.0604277626,0.0446668230,0.0029202104,-90.3071594238,61.7645912170,75.3761444092,0.0514214039,0.0561242700,0.0079109073,-15.0154361725,84.4207839966,57.3592414856,0.0255361795,0.0247911513,0.0206377506,42.5869979858,43.3446121216,53.9332695007,0.0648027658,-0.0088354349,-0.0013624430,
87.103,-3.2877066135,1.3915836811,9.7046890259,0.0594415814,0.0441493466,0.0009651184,-90.1376495361,61.3741149902,75.7265090942,0.0472002625,0.0543029904,0.0187313557,-15.0289001465,84.4233551025,57.3439369202,0.0284702182,0.0252898335,0.0265493989,42.5879821777,43.3431053162,53.9371032715,0.0706430078,-0.0122749805,0.0059562922,
87.113,-3.2875297070,1.3888494968,9.7046575546,0.0652532503,0.0387752317,0.0097531080,-89.9811630249,60.9835662842,76.0594024658,0.0434259176,0.0519688725,0.0130247474,-15.0556125641,84.4274978638,57.3165931702,0.0270124078,0.0262939036,0.0241832733,42.5926170349,43.3433494568,53.9447059631,0.0652750731,-0.0074333549,-0.0081614256,
87.123,-3.2871003151,1.3892747164,9.7064361572,0.0584247299,0.0460919626,-0.0024546981,-89.8318939209,60.5864105225,76.3807983398,0.0463903546,0.0516619086,0.0102773309,-15.0998754501,84.4318313599,57.2729148865,0.0182306767,0.0258598626,0.0345314741,42.5985641479,43.3422622681,53.9523506165,0.0613550544,-0.0089625716,-0.0061668158,
87.133,-3.2876954079,1.3879597187,9.7069759369,0.0623080358,0.0382898636,0.0034050941,-89.6887512207,60.1884346008,76.6894989014,0.0400284529,0.0469468832,0.0138990283,-15.1587829590,84.4330596924,57.2117538452,0.0270218253,0.0254652202,0.0365287662,42.6060485840,43.3408927917,53.9623832703,0.0657321811,-0.0080670714,-0.0085558295,
87.143,-3.2842199802,1.3871484995,9.7081565857,0.0652235672,0.0523894988,0.0102367997,-89.5497817993,59.7876205444,76.9780044556,0.0345762372,0.0232045650,0.0121563673,-15.2469110489,84.4399337769,57.1205062866,0.0236154795,0.0250927210,0.0191071630,42.6115684509,43.3344116211,53.9710388184,0.0724858046,-0.0086595118,0.0016882420,
87.153,-3.2868285179,1.3880499601,9.7079553604,0.0632861704,0.0397396013,0.0112166405,-89.3925399780,59.3969459534,77.2498550415,0.0384492874,0.0422493219,0.0082705021,-15.3695468903,84.4474105835,56.9975891113,0.0197218657,0.0252650380,0.0226978958,42.6175041199,43.3292274475,53.9808387756,0.0680254698,-0.0155929625,0.0007169843,
87.163,-3.2853074074,1.3910504580,9.7096252441,0.0560143068,0.0455724038,0.0024274588,-89.2193908691,59.0158843994,77.5163421631,0.0423686504,0.0616092086,0.0164183378,-15.5067129135,84.4534835815,56.8596496582,0.0265680552,0.0240003467,0.0150513351,42.6236724854,43.3235816956,53.9890632629,0.0620944500,-0.0137432516,0.0021852255,
87.173,-3.2845561504,1.3905110359,9.7101793289,0.0618642718,0.0450710505,0.0068209171,-89.0610961914,58.6399765015,77.7766036987,0.0448321104,0.0613353252,0.0114853978,-15.6011505127,84.4580764771,56.7659912109,0.0197398663,0.0304850340,0.0259080827,42.6316337585,43.3177947998,53.9982185364,0.0639740825,-0.0123996735,-0.0041449070,
87.183,-3.2860414982,1.3880538940,9.7113571167,0.0642628074,0.0372844860,0.0029151440,-88.9406890869,58.2653884888,78.0315704346,0.0511771441,0.0737174153,0.0029636025,-15.7132930756,84.4643783569,56.6542968750,0.0197504759,0.0286887884,0.0260651410,42.6362190247,43.3120498657,54.0088005066,0.0663425326,-0.0134657323,-0.0007381439,
87.193,-3.2861666679,1.3870744705,9.7125473022,0.0613160282,0.0441226326,0.0048677921,-88.8511657715,57.8926200867,78.2789459229,0.0477370620,0.0821465850,0.0074023008,-15.8372154236,84.4692611694,56.5295982361,0.0207352638,0.0274065733,0.0252273977,42.6420555115,43.3044967651,54.0183944702,0.0701528192,-0.0160228312,-0.0041720867,
87.203,-3.2845029831,1.3850544691,9.7132110596,0.0607924983,0.0460468233,0.0117015243,-88.7968368530,57.5146827698,78.5161437988,0.0583728552,0.0857532620,-0.0034734607,-15.9240741730,84.4742965698,56.4423179626,0.0305093527,0.0289926529,0.0214406550,42.6513977051,43.2978401184,54.0300865173,0.0607909560,-0.0093283057,0.0017083883,
87.213,-3.2845196724,1.3838459253,9.7126131058,0.0597948544,0.0445822962,0.0102357864,-88.7477951050,57.1315116882,78.7530899048,0.0489028692,0.0645104647,0.0076625943,-16.0318374634,84.4811096191,56.3321189880,0.0192903280,0.0257203579,0.0201404095,42.6604347229,43.2920570374,54.0407333374,0.0768307447,-0.0094596148,-0.0094949603,
87.223,-3.2834665775,1.3839062452,9.7138156891,0.0578427799,0.0460287929,0.0097467303,-88.7028732300,56.7375602722,78.9841842651,0.0510108471,0.0512142181,0.0144304633,-16.1441135406,84.4871139526,56.2194023132,0.0212535262,0.0219714046,0.0207790136,42.6696777344,43.2879142761,54.0515518188,0.0621296763,-0.0061615407,-0.0065217018,
87.233,-3.2851510048,1.3815953732,9.7156906128,0.0617087111,0.0450816266,0.0019350052,-88.6693801880,56.3442192078,79.2096023560,0.0486906767,0.0505801439,0.0086058378,-16.2234363556,84.4929122925,56.1390571594,0.0256577730,0.0240277648,0.0257943273,42.6748390198,43.2829895020,54.0592727661,0.0723209977,-0.0194333196,-0.0079855919,
87.243,-3.2861206532,1.3826802969,9.7155714035,0.0583096668,0.0411922447,0.0102372169,-88.6344757080,55.9458198547,79.4412460327,0.0555592179,0.0534105301,0.0164313912,-16.3003883362,84.4983215332,56.0598144531,0.0256668329,0.0241285264,0.0249434710,42.6798057556,43.2816314697,54.0684623718,0.0659561157,-0.0194907486,-0.0040484667,
87.253,-3.2866873741,1.3839904070,9.7173042297,0.0578442477,0.0446200520,0.0087730885,-88.6066589355,55.5455818176,79.6830291748,0.0521156192,0.0621013641,0.0165073276,-16.3752994537,84.5020294189,55.9840850830,0.0251847506,0.0193517506,0.0250373185,42.6841506958,43.2753524780,54.0746231079,0.0761302114,-0.0098166466,0.0008165836,
87.263,-3.2837929726,1.3866932392,9.7183322906,0.0593562499,0.0460344180,0.0112130046,-88.6019363403,55.1479454041,79.9234924316,0.0501225591,0.0692678690,0.0075325370,-16.4293746948,84.5032424927,55.9276809692,0.0222570896,0.0213876963,0.0368026197,42.6876640320,43.2713012695,54.0800018311,0.0658248663,-0.0084174871,0.0003229380,
87.273,-3.2835335732,1.3881310225,9.7193975449,0.0593813397,0.0411470495,0.0077953935,-88.6100540161,54.7442092896,80.1630706787,0.0475402474,0.0589190125,0.0069854259,-16.5028591156,84.5067367554,55.8519592285,0.0266574621,0.0214914382,0.0271296501,42.6942405701,43.2678794861,54.0886192322,0.0701758862,-0.0114363432,-0.0045334101,
87.283,-3.2849802971,1.3887891769,9.7218017578,0.0559748560,0.0436136425,0.0092620850,-88.6227035522,54.3377380371,80.4014968872,0.0473309755,0.0461402535,0.0099036694,-16.5933742523,84.5158081055,55.7587661743,0.0222780704,0.0211077332,0.0165786743,42.7000389099,43.2634620667,54.0957145691,0.0623072386,-0.0090849400,0.0003606081,
87.293,-3.2838802338,1.3900045156,9.7222433090,0.0623437166,0.0440827310,0.0121912360,-88.6353683472,53.9276504517,80.6371536255,0.0372780561,0.0397304296,0.0142894387,-16.6842365265,84.5201644897,55.6655654907,0.0271681547,0.0251415670,0.0205997825,42.7084808350,43.2577590942,54.1049156189,0.0695589781,-0.0048155785,-0.0030347109,
87.303,-3.2814328671,1.3884274960,9.7246637344,0.0657341629,0.0508760735,0.0033990145,-88.6504669189,53.5142784119,80.8664627075,0.0417980552,0.0421265960,0.0143079162,-16.7982406616,84.5267791748,55.5499114990,0.0247377753,0.0243190825,0.0178328156,42.7174263000,43.2530326843,54.1151390076,0.0602216125,-0.0073787570,-0.0044637322,
87.313,-3.2801346779,1.3909496069,9.7251625061,0.0555242673,0.0469471477,0.0097464323,-88.6641540527,53.0923309326,81.0872497559,0.0442332029,0.0314277411,0.0118707418,-16.9127731323,84.5356369019,55.4306182861,0.0198696852,0.0254389346,0.0170561671,42.7312965393,43.2476654053,54.1288833618,0.0621064305,-0.0065754056,-0.0122038126,
87.323,-3.2803092003,1.3895783424,9.7264013290,0.0608714372,0.0459736586,0.0141405463,-88.6770324707,52.6610755920,81.2972564697,0.0504327416,0.0330325961,0.0084488988,-17.0494174957,84.5413818359,55.2919235229,0.0228089094,0.0290506184,0.0245421231,42.7439727783,43.2402229309,54.1427688599,0.0654298067,-0.0077307820,-0.0048355460,
87.333,-3.2839195728,1.3903685808,9.7274456024,0.0638149083,0.0426185653,0.0082850456,-88.6999053955,52.2228584290,81.4938125610,0.0516299605,0.0430017710,0.0002532005,-17.1973114014,84.5471267700,55.1424140930,0.0281895399,0.0234034956,0.0212882459,42.7529296875,43.2275390625,54.1539649963,0.0716162324,-0.0079172254,0.0034312010,
87.343,-3.2847728729,1.3904554844,9.7297477722,0.0643047094,0.0436099917,0.0063329339,-88.7347564697,51.7744789124,81.6769180298,0.0492532253,0.0418473482,0.0014662743,-17.3345260620,84.5511550903,55.0025062561,0.0233134031,0.0211634338,0.0228910446,42.7617988586,43.2156486511,54.1641578674,0.0739063621,-0.0090731382,-0.0019676685,
87.353,-3.2852666378,1.3902719021,9.7315320969,0.0608835369,0.0470365584,0.0073098540,-88.7994918823,51.3175849915,81.8458480835,0.0604074001,0.0505436659,-0.0057777166,-17.4789867401,84.5573425293,54.8548278809,0.0252767801,0.0203903615,0.0162244439,42.7692298889,43.2107276917,54.1741867065,0.0689609647,-0.0140653253,-0.0107356906,
87.363,-3.2845056057,1.3900665045,9.7302532196,0.0628330782,0.0494647175,0.0165863633,-88.8723373413,50.8534202576,82.0119857788,0.0499475002,0.0426979065,0.0027061105,-17.6113758087,84.5634231567,54.7178802490,0.0272399783,0.0264317691,0.0202999115,42.7784805298,43.2067146301,54.1840286255,0.0630505681,-0.0132076740,-0.0145972967,
87.373,-3.2833697796,1.3907732964,9.7308101654,0.0550329089,0.0401675701,-0.0039224029,-88.9422302246,50.3837013245,82.1769638062,0.0462107658,0.0290251374,0.0150784254,-17.7455272675,84.5699920654,54.5798568726,0.0209031701,0.0178262293,0.0204713345,42.7834129333,43.2023620605,54.1889762878,0.0664131045,-0.0123125315,-0.0072684288,
87.383,-3.2808516026,1.3895883560,9.7302265167,0.0598950498,0.0469596684,0.0156059861,-89.0061721802,49.9185409546,82.3439331055,0.0449149609,0.0318486691,0.0171468258,-17.8755149841,84.5794906616,54.4438171387,0.0199422836,0.0199383795,0.0143477917,42.7921981812,43.1967086792,54.1964073181,0.0775716901,-0.0099990368,-0.0028475523,
87.393,-3.2805523872,1.3880029917,9.7326545715,0.0618205108,0.0410951152,0.0126749277,-89.0858459473,49.4495239258,82.5052108765,0.0464546084,0.0400544405,0.0037825704,-17.9785480499,84.5863723755,54.3320770264,0.0243481398,0.0244640708,0.0262252092,42.7945976257,43.1934890747,54.1994209290,0.0589759946,-0.0183483958,0.0025159121,
87.403,-3.2832713127,1.3884427547,9.7332067490,0.0545039624,0.0347948149,0.0190257430,-89.1815414429,48.9727935791,82.6659774780,0.0512729883,0.0532027483,0.0121029615,-18.0816249847,84.5937194824,54.2191467285,0.0204539895,0.0211716890,0.0254250467,42.7973175049,43.1871948242,54.2015762329,0.0686615109,-0.0115889013,0.0078555346,
87.413,-3.2858746052,1.3900954723,9.7336034775,0.0603921786,0.0377698168,0.0004744530,-89.3155288696,48.4838905334,82.8189849854,0.0446678400,0.0259413719,0.0077028871,-18.1831302643,84.6023178101,54.1056747437,0.0248626471,0.0281256735,0.0221951604,42.8025207520,43.1854515076,54.2041969299,0.0583854318,-0.0179992914,-0.0013921261,
87.423,-3.2865917683,1.3877366781,9.7355098724,0.0598627329,0.0441300161,0.0053565502,-89.4842605591,47.9943428040,82.9637374878,0.0380006433,0.0406329036,0.0095984340,-18.3005886078,84.6131439209,53.9742507935,0.0224390030,0.0253255665,0.0209681094,42.8096160889,43.1806869507,54.2085838318,0.0685787201,-0.0049206614,0.0000922680,
87.433,-3.2854731083,1.3852149248,9.7373104095,0.0710492060,0.0548527762,0.0034019351,-89.6693267822,47.4989318848,83.1047744751,0.0419522524,0.0309329033,0.0073294044,-18.4280643463,84.6204986572,53.8322143555,0.0244041681,0.0225600898,0.0270116627,42.8181037903,43.1794128418,54.2112159729,0.0587968826,-0.0108696520,-0.0032635331,
87.443,-3.2855212688,1.3881131411,9.7389535904,0.0584044643,0.0465527624,-0.0005034804,-89.8387985229,47.0048866272,83.2477035522,0.0365876555,0.0314110518,0.0268897414,-18.5496139526,84.6273498535,53.6971702576,0.0229505301,0.0285760164,0.0271857083,42.8273315430,43.1750717163,54.2172088623,0.0675306916,-0.0105027854,-0.0046865344,
87.453,-3.2871382236,1.3870712519,9.7407102585,0.0637573749,0.0431629941,0.0038923621,-89.9938278198,46.5107040405,83.3809738159,0.0331201553,0.0152332783,0.0170164704,-18.6876449585,84.6356048584,53.5485153198,0.0214991570,0.0302153826,0.0361803770,42.8402214050,43.1700782776,54.2252273560,0.0625843406,-0.0052925050,-0.0060833097,
87.463,-3.2850732803,1.3863550425,9.7413139343,0.0603269115,0.0475215651,0.0063313246,-90.1302719116,46.0175895691,83.5032043457,0.0374241471,0.0209589005,0.0191587210,-18.8622741699,84.6426162720,53.3601913452,0.0244402885,0.0231291056,0.0310164094,42.8505363464,43.1635627747,54.2325973511,0.0629896522,-0.0142307580,-0.0055629015,
87.473,-3.2865352631,1.3864024878,9.7417964935,0.0603277422,0.0348517224,0.0219578743,-90.2338867188,45.5242996216,83.6178817749,0.0441140532,0.0178442597,0.0243464708,-19.0647201538,84.6488037109,53.1446266174,0.0205441117,0.0243912935,0.0312251449,42.8655204773,43.1538009644,54.2432823181,0.0682364702,-0.0046842694,-0.0030771494,
87.483,-3.2861046791,1.3872725964,9.7435064316,0.0593663603,0.0416801386,0.0082861185,-90.3099517822,45.0268592834,83.7171707153,0.0375162959,0.0117987394,0.0218921304,-19.2723846436,84.6581497192,52.9256706238,0.0181179047,0.0290611386,0.0231867731,42.8771400452,43.1442527771,54.2526512146,0.0666500330,-0.0107296705,-0.0055013895,
87.493,-3.2847549915,1.3898967505,9.7457265854,0.0618535541,0.0470276549,0.0063326359,-90.3607711792,44.5285758972,83.8104705811,0.0303664804,0.0213353038,0.0308591723,-19.5017967224,84.6679153442,52.6843185425,0.0176454782,0.0230187178,0.0254230201,42.8871803284,43.1342315674,54.2607460022,0.0645692348,-0.0109047592,-0.0050138235,
87.503,-3.2827978134,1.3906073570,9.7468633652,0.0618659556,0.0513880774,0.0058426857,-90.4042205811,44.0299263000,83.8946456909,0.0334129333,0.0288701057,0.0177705884,-19.6956481934,84.6772918701,52.4785995483,0.0264497399,0.0296169221,0.0295856893,42.8967742920,43.1242980957,54.2682800293,0.0678607821,-0.0120514631,0.0023070574,
87.513,-3.2842743397,1.3907774687,9.7473640442,0.0594275147,0.0372536406,0.0082856417,-90.4397506714,43.5321846008,83.9802932739,0.0373947620,0.0378044844,0.0207040310,-19.9682273865,84.6859512329,52.1927947998,0.0337879658,0.0255985856,0.0220627785,42.9075317383,43.1124992371,54.2781219482,0.0691752434,-0.0098063052,-0.0006326437,
87.523,-3.2869544029,1.3932070732,9.7477598190,0.0580050647,0.0373002626,0.0102425814,-90.4735107422,43.0419082642,84.0732955933,0.0287245512,0.0412236452,0.0275279284,-20.2500076294,84.6946640015,51.8969993591,0.0225715637,0.0191493034,0.0272476673,42.9180641174,43.1010131836,54.2869987488,0.0690289140,-0.0163455904,-0.0025944114,
87.533,-3.2859201431,1.3935621977,9.7477445602,0.0565464161,0.0460713021,0.0092650652,-90.5079345703,42.5596275330,84.1732254028,0.0269430876,0.0542606115,0.0387601256,-20.4931583405,84.7050933838,51.6415405273,0.0274711847,0.0209301412,0.0221803188,42.9347381592,43.0862617493,54.2995872498,0.0742120147,-0.0058788061,-0.0069731474,
87.543,-3.2847878933,1.3922066689,9.7477025986,0.0643352568,0.0465398952,-0.0000143647,-90.5701828003,42.0822257996,84.2746887207,0.0329893827,0.0666965246,0.0161789060,-20.7162761688,84.7140502930,51.4070625305,0.0284621716,0.0280579627,0.0287979543,42.9456138611,43.0763359070,54.3073272705,0.0672494769,-0.0172914267,-0.0069653988,
87.553,-3.2846066952,1.3932094574,9.7463788986,0.0584933832,0.0431187376,0.0146346092,-90.6508636475,41.6081848145,84.3857345581,0.0370799303,0.0639015436,0.0304707885,-20.9529571533,84.7234039307,51.1578598022,0.0245709419,0.0244602263,0.0281073749,42.9529380798,43.0636367798,54.3125381470,0.0729469657,-0.0159979165,-0.0016410351,
87.563,-3.2847661972,1.3934327364,9.7481603622,0.0594738424,0.0460512042,0.0077988505,-90.7465286255,41.1397552490,84.4987792969,0.0299682617,0.0565923452,0.0264192820,-21.2145709991,84.7339553833,50.8837738037,0.0240995884,0.0208915174,0.0254984796,42.9634056091,43.0540046692,54.3209152222,0.0674530864,-0.0108028650,-0.0065174699,
87.573,-3.2854993343,1.3933364153,9.7487077713,0.0604487248,0.0441108532,0.0107292533,-90.8515014648,40.6827507019,84.6089553833,0.0337060690,0.0598413348,0.0185993910,-21.4139232635,84.7433853149,50.6712532043,0.0221615434,0.0279744864,0.0277193189,42.9710350037,43.0427131653,54.3267478943,0.0668207407,-0.0143835545,-0.0031308532,
87.583,-3.2845032215,1.3935220242,9.7479848862,0.0614285246,0.0416520946,0.0126816630,-90.9438629150,40.2421875000,84.7268981934,0.0298090577,0.0574854612,0.0301582813,-21.6929702759,84.7528228760,50.3802375793,0.0221766233,0.0215058625,0.0290109515,42.9801559448,43.0312080383,54.3349647522,0.0671622753,-0.0106559694,-0.0021758676,
87.593,-3.2855446339,1.3942447901,9.7484912872,0.0594880134,0.0431350619,0.0038939118,-91.0223541260,39.8157882690,84.8463821411,0.0338760614,0.0563919544,0.0278720856,-21.9445800781,84.7607040405,50.1188278198,0.0251188874,0.0311158597,0.0258704126,42.9900131226,43.0185508728,54.3441238403,0.0640711188,-0.0108505785,0.0051246285,
87.603,-3.2868609428,1.3961131573,9.7483510971,0.0556143634,0.0377868488,0.0121967793,-91.0880661011,39.4028968811,84.9743957520,0.0385782719,0.0585262775,0.0254225135,-22.2192802429,84.7722702026,49.8346366882,0.0202544928,0.0270640552,0.0228014588,43.0010261536,43.0085868835,54.3547973633,0.0546665192,-0.0027337670,-0.0031681657,
87.613,-3.2851781845,1.3959414959,9.7495126724,0.0585410520,0.0397106633,0.0063352585,-91.1393432617,39.0076217651,85.1042938232,0.0322558284,0.0531058311,0.0198528767,-22.4971218109,84.7803039551,49.5465736389,0.0222203732,0.0220605731,0.0284700394,43.0149154663,42.9971160889,54.3676414490,0.0696568489,-0.0127220750,-0.0070525408,
87.623,-3.2852072716,1.3941410780,9.7507247925,0.0624158904,0.0421526209,0.0151242018,-91.1767196655,38.6202354431,85.2363586426,0.0343118906,0.0490299463,0.0341191888,-22.7735080719,84.7930450439,49.2619323730,0.0178460479,0.0272762775,0.0210283399,43.0295028687,42.9859695435,54.3819847107,0.0729325414,-0.0066011548,-0.0143472552,
87.633,-3.2861602306,1.3956197500,9.7525215149,0.0531643480,0.0431457497,0.0161018372,-91.2094650269,38.2350616455,85.3620376587,0.0407642126,0.0405011177,0.0165874958,-23.0180854797,84.8042755127,49.0080528259,0.0300708413,0.0265923440,0.0174502134,43.0381278992,42.9763488770,54.3921203613,0.0659737587,-0.0111541748,-0.0070306659,
87.643,-3.2878243923,1.3961223364,9.7548017502,0.0629387423,0.0407333076,0.0087798238,-91.2379989624,37.8546180725,85.4849014282,0.0413944125,0.0475121737,0.0263442993,-23.2309551239,84.8112869263,48.7850227356,0.0232459903,0.0244215131,0.0259967446,43.0469436646,42.9660491943,54.4033432007,0.0702368021,-0.0122967362,-0.0046026707,
87.653,-3.2871167660,1.3962361813,9.7553062439,0.0619641654,0.0426741093,0.0136618614,-91.2705459595,37.4832534790,85.6064834595,0.0333342552,0.0499956608,0.0205336213,-23.4335613251,84.8186950684,48.5766983032,0.0252107978,0.0251618922,0.0286821723,43.0564689636,42.9555702209,54.4130287170,0.0701029301,-0.0066112876,-0.0060750246,
87.663,-3.2858378887,1.3943452835,9.7577190399,0.0648608580,0.0446050055,0.0078005195,-91.3031616211,37.1195793152,85.7273101807,0.0360977054,0.0523651838,0.0098418593,-23.6431770325,84.8262252808,48.3589744568,0.0291289091,0.0249342024,0.0245381892,43.0622329712,42.9453735352,54.4205665588,0.0748555064,-0.0111423731,-0.0119726062,
87.673,-3.2862238884,1.3970698118,9.7593746185,0.0570959002,0.0431468189,0.0063367486,-91.3374404907,36.7688865662,85.8498535156,0.0404832363,0.0589603186,0.0235885382,-23.8645629883,84.8345642090,48.1317481995,0.0198646784,0.0256929100,0.0277412832,43.0725822449,42.9351272583,54.4308280945,0.0664237738,-0.0030214190,-0.0051353574,
87.683,-3.2881035805,1.3988363743,9.7597913742,0.0581032857,0.0358552970,0.0078048110,-91.3750305176,36.4350929260,85.9733123779,0.0284820795,0.0482592583,0.0178496242,-24.1124343872,84.8417739868,47.8792800903,0.0203642845,0.0255205035,0.0236201584,43.0832138062,42.9232482910,54.4420623779,0.0701782107,-0.0071233511,-0.0110049844,
87.693,-3.2872686386,1.4005459547,9.7608394623,0.0605745167,0.0431649275,0.0078042150,-91.4255905151,36.1159362793,86.0951538086,0.0337570310,0.0652074814,0.0137588978,-24.3590660095,84.8512878418,47.6291503906,0.0184260607,0.0297228992,0.0210004747,43.0917358398,42.9119796753,54.4538421631,0.0695459247,-0.0131536722,-0.0051689148,
87.703,-3.2886130810,1.3994905949,9.7614278793,0.0595795438,0.0397704132,0.0126881599,-91.4875411987,35.8058013916,86.2128524780,0.0347468257,0.0527368188,0.0142267346,-24.5995483398,84.8574523926,47.3857879639,0.0199005604,0.0334509015,0.0280882418,43.1013946533,42.9001960754,54.4682540894,0.0703718662,-0.0050387383,-0.0042103529,
87.713,-3.2870526314,1.4019519091,9.7637081146,0.0581576377,0.0456025451,0.0068283081,-91.5514831543,35.4985885620,86.3232040405,0.0338078737,0.0480234623,0.0157049298,-24.8333053589,84.8628616333,47.1500892639,0.0233269930,0.0332648754,0.0278417766,43.1089897156,42.8887214661,54.4788589478,0.0726665854,-0.0120387077,-0.0071731806,
87.723,-3.2847123146,1.3985815048,9.7668075562,0.0678644553,0.0504446700,0.0038948059,-91.6105499268,35.1947937012,86.4256896973,0.0377838612,0.0427649021,0.0112590790,-25.0740165710,84.8677444458,46.9090080261,0.0233346224,0.0247914493,0.0246611238,43.1136703491,42.8776245117,54.4889297485,0.0739894509,-0.0155904889,-0.0023456812,
87.733,-3.2857439518,1.3973262310,9.7691888809,0.0605183393,0.0343493931,0.0087777376,-91.6535644531,34.8944473267,86.5192260742,0.0339804888,0.0335481167,0.0119597912,-25.2994937897,84.8720321655,46.6825447083,0.0223647356,0.0241117477,0.0263443589,43.1153755188,42.8667030334,54.4987030029,0.0733614564,-0.0103239417,0.0014808178,
87.743,-3.2865953445,1.3949592113,9.7704381943,0.0638950095,0.0480361544,0.0014539361,-91.6820297241,34.5972137451,86.6068572998,0.0429013968,0.0335610509,0.0168483853,-25.5162944794,84.8786010742,46.4687576294,0.0238398314,0.0268202722,0.0231729746,43.1251640320,42.8577728271,54.5129470825,0.0737354755,-0.0090229511,-0.0141358972,
87.753,-3.2888188362,1.3950469494,9.7715587616,0.0599902943,0.0387975387,0.0126862526,-91.6991577148,34.3070755005,86.6912536621,0.0338429213,0.0300685763,0.0245037079,-25.7491836548,84.8860321045,46.2359580994,0.0223865509,0.0256356597,0.0190564990,43.1303749084,42.8467864990,54.5231285095,0.0745714903,-0.0101373196,-0.0034433603,
87.763,-3.2883927822,1.3946186304,9.7733421326,0.0594945364,0.0417198166,0.0043852329,-91.7160339355,34.0267181396,86.7674789429,0.0371185541,0.0362253785,0.0160398483,-25.9578819275,84.8910903931,46.0320434570,0.0199530125,0.0278531015,0.0251346231,43.1405143738,42.8361358643,54.5387153625,0.0675992966,-0.0069003701,-0.0122354031,
87.773,-3.2856736183,1.3945724964,9.7751302719,0.0604702942,0.0475318283,0.0092651844,-91.7286834717,33.7502136230,86.8415374756,0.0433663130,0.0364671350,0.0216751695,-26.1805877686,84.8980407715,45.8139228821,0.0209403634,0.0251907408,0.0185616314,43.1483840942,42.8242835999,54.5522422791,0.0737951994,-0.0129295588,-0.0049456358,
87.783,-3.2861700058,1.3978868723,9.7761039734,0.0595515594,0.0426575802,0.0170794725,-91.7491149902,33.4743309021,86.9132080078,0.0364266634,0.0376566648,0.0215646029,-26.4177188873,84.9042205811,45.5776939392,0.0214382410,0.0274370909,0.0227278471,43.1565017700,42.8139266968,54.5656013489,0.0682914853,-0.0111361742,-0.0054517388,
87.793,-3.2861559391,1.3972570896,9.7759952545,0.0639351010,0.0426573567,-0.0000104308,-91.7850341797,33.1978378296,86.9807662964,0.0392308831,0.0354076624,0.0163107514,-26.6111373901,84.9075317383,45.3852081299,0.0194902420,0.0252466500,0.0268211365,43.1615295410,42.8057136536,54.5751533508,0.0686746240,-0.0166209340,-0.0040146112,
87.803,-3.2878496647,1.3972315788,9.7771654129,0.0580752827,0.0407337360,0.0078037977,-91.8261642456,32.9240303040,87.0470504761,0.0342492461,0.0370169878,0.0213889480,-26.8143672943,84.9118728638,45.1810379028,0.0263329148,0.0259907544,0.0231263936,43.1659317017,42.7996940613,54.5840950012,0.0651795864,-0.0108513832,-0.0045154691,
87.813,-3.2842397690,1.3966815472,9.7778110504,0.0600188076,0.0528778881,0.0141470432,-91.8712997437,32.6523704529,87.1137542725,0.0287984014,0.0302840471,0.0201806426,-27.0032768250,84.9160766602,44.9905166626,0.0214565992,0.0296445489,0.0301615596,43.1712532043,42.7916297913,54.5940589905,0.0640997887,-0.0095018148,-0.0045394897,
87.823,-3.2837064266,1.3962769508,9.7789516449,0.0614765920,0.0421264246,0.0058462620,-91.9180068970,32.3865852356,87.1797866821,0.0351408720,0.0391007662,0.0141143203,-27.1983890533,84.9220962524,44.7951393127,0.0239073038,0.0269451737,0.0259975195,43.1793022156,42.7857589722,54.6055374146,0.0615831614,-0.0140190125,-0.0084251761,
87.833,-3.2826335430,1.3969527483,9.7788944244,0.0575821362,0.0440608412,0.0097512007,-91.9599227905,32.1269454956,87.2457351685,0.0337500572,0.0371016264,0.0148148537,-27.3903694153,84.9229431152,44.6026573181,0.0219554901,0.0306277573,0.0290793180,43.1892662048,42.7751121521,54.6183776855,0.0717006922,-0.0083391070,-0.0089181662,
87.843,-3.2859823704,1.3986194134,9.7799673080,0.0561463721,0.0372832008,-0.0014749169,-92.0035552979,31.8739204407,87.3121185303,0.0314698219,0.0364879370,0.0106584430,-27.6075897217,84.9277267456,44.3856391907,0.0175683498,0.0299200118,0.0205205381,43.1978721619,42.7677383423,54.6285896301,0.0623288751,-0.0099442005,-0.0093946457,
87.853,-3.2848830223,1.4008971453,9.7804813385,0.0542329848,0.0440999307,0.0097550750,-92.0457153320,31.6188869476,87.3737945557,0.0389150977,0.0251337290,0.0123435259,-27.8487491608,84.9298171997,44.1426544189,0.0234309435,0.0253592134,0.0300076604,43.2050323486,42.7560195923,54.6411056519,0.0729208589,-0.0125474930,-0.0084565878,
87.863,-3.2825286388,1.4000271559,9.7817029953,0.0610537454,0.0484534763,0.0082881451,-92.1006011963,31.3673343658,87.4296646118,0.0351713300,0.0347199440,0.0044541359,-28.0706996918,84.9310531616,43.9229698181,0.0209914446,0.0198020339,0.0238409936,43.2106704712,42.7485237122,54.6515007019,0.0625708699,-0.0121726990,-0.0035890341,
87.873,-3.2833831310,1.4012087584,9.7834701538,0.0561915487,0.0435855165,0.0102421045,-92.1521530151,31.1091880798,87.4818267822,0.0405964255,0.0257952213,0.0136106014,-28.2519512177,84.9337615967,43.7407379150,0.0068354607,0.0263807178,0.0235303044,43.2145652771,42.7395401001,54.6608657837,0.0697799921,-0.0093522072,-0.0016793013,
87.883,-3.2865540981,1.3994128704,9.7834997177,0.0595781840,0.0421759523,0.0029204488,-92.2012786865,30.8489303589,87.5343704224,0.0367020369,0.0212674141,0.0183399916,-28.4840068817,84.9373626709,43.5079536438,0.0507863164,0.0149572492,0.0237571001,43.2159919739,42.7321815491,54.6679878235,0.0726153255,-0.0108901858,-0.0012425184,
87.893,-3.2864825726,1.3987411261,9.7847166061,0.0581016205,0.0426630005,0.0048733354,-92.2424926758,30.5831871033,87.5860137939,0.0366209149,0.0133560896,0.0156321526,-28.5184764862,84.9463043213,43.4753417969,-0.0634577274,0.0505779386,0.0239152908,43.2184410095,42.7296829224,54.6739501953,0.0642825365,-0.0119097233,-0.0061246157,
87.903,-3.2866578102,1.3991100788,9.7865371704,0.0546900891,0.0416894853,0.0082916021,-92.2738647461,30.3126926422,87.6431503296,0.0305978060,0.0108447075,0.0249871016,-28.6845283508,84.9522781372,43.3092041016,0.0132116079,0.0278113186,0.0221753418,43.2208366394,42.7224769592,54.6805686951,0.0744440556,-0.0080844760,0.0011574626,
87.913,-3.2854769230,1.3979842663,9.7877101898,0.0639477894,0.0465517528,0.0043836832,-92.3015289307,30.0402908325,87.7061767578,0.0250229836,0.0161448717,0.0215936303,-28.8557415009,84.9588775635,43.1372718811,0.0141983032,0.0275064111,0.0233794451,43.2241935730,42.7177963257,54.6879348755,0.0695012212,-0.0169426799,-0.0032470822,
87.923,-3.2851550579,1.3991744518,9.7870378494,0.0556677729,0.0436164290,0.0102432966,-92.3297653198,29.7608776093,87.7757949829,0.0261664689,0.0190443993,0.0338374972,-29.0342044830,84.9658050537,42.9575309753,0.0225096941,0.0262313485,0.0182465017,43.2276649475,42.7112960815,54.6948738098,0.0723475218,-0.0111684799,-0.0037610531,
87.933,-3.2851424217,1.3978774548,9.7876262665,0.0624810830,0.0445928052,0.0097540617,-92.3587570190,29.4752731323,87.8497619629,0.0242744684,0.0185571909,0.0377963185,-29.2486209869,84.9713287354,42.7425804138,0.0234947205,0.0274570882,0.0292354524,43.2319412231,42.7062644958,54.7045822144,0.0644705296,-0.0146672130,-0.0003489256,
87.943,-3.2839567661,1.3968153000,9.7888708115,0.0595328622,0.0465252995,0.0068229437,-92.4016342163,29.1866912842,87.9235000610,0.0252545476,0.0209948421,0.0190191269,-29.4768962860,84.9755401611,42.5159263611,0.0195949078,0.0282248855,0.0216580331,43.2412490845,42.6989784241,54.7172622681,0.0643770695,-0.0113953352,-0.0086308122,
87.953,-3.2832481861,1.3974305391,9.7887086868,0.0639381260,0.0450481065,0.0019398928,-92.4491043091,28.8972167969,88.0010681152,0.0320679843,0.0307381153,0.0213119984,-29.7206954956,84.9838943481,42.2715835571,0.0230256319,0.0270222425,0.0180666149,43.2474822998,42.6888504028,54.7276535034,0.0686416626,-0.0110473633,-0.0023152828,
87.963,-3.2839522362,1.3996859789,9.7892112732,0.0542118549,0.0421306193,0.0063360333,-92.4981689453,28.6081695557,88.0801849365,0.0344811082,0.0336179733,0.0138660073,-29.9495830536,84.9890136719,42.0432090759,0.0152209401,0.0253399312,0.0275929272,43.2527618408,42.6787338257,54.7370071411,0.0597227812,-0.0097140074,0.0049673915,
87.973,-3.2859354019,1.3976352215,9.7915563583,0.0673596710,0.0397238061,0.0029191971,-92.5379638672,28.3246803284,88.1616134644,0.0242721736,0.0271573067,0.0204395056,-30.2562885284,84.9928054810,41.7331314087,0.0225509405,0.0257226527,0.0249626637,43.2596855164,42.6673545837,54.7481040955,0.0678775907,-0.0103590488,0.0010247827,
87.983,-3.2853951454,1.3979136944,9.7933893204,0.0571106225,0.0485034585,0.0068244934,-92.5744323730,28.0414180756,88.2430343628,0.0272386372,0.0299528837,0.0206155181,-30.4954338074,84.9961013794,41.4931411743,0.0220676661,0.0221135318,0.0276377201,43.2687721252,42.6563453674,54.7617225647,0.0667597055,-0.0071153045,-0.0024086833,
87.993,-3.2852225304,1.3970861435,9.7945079803,0.0629555583,0.0387348384,0.0058478117,-92.5999832153,27.7637100220,88.3282928467,0.0234434605,0.0483136177,0.0289244652,-30.8236865997,84.9959335327,41.1635742188,0.0323213339,0.0025363564,0.0293654203,43.2728576660,42.6465568542,54.7713508606,0.0710285902,-0.0101624727,-0.0068507791,
88.003,-3.2819197178,1.3986299038,9.7956504822,0.0585879609,0.0518608652,-0.0048971176,-92.6168975830,27.4829692841,88.4132308960,0.0230083764,0.0076017380,0.0185469985,-31.1116466522,84.9987182617,40.8749351501,0.0181654096,0.0170617700,0.0193785131,43.2776451111,42.6385650635,54.7817497253,0.0679963231,-0.0088071823,-0.0063899755,
88.013,-3.2746605873,1.3968716860,9.7957534790,0.0658815056,0.0678477362,0.0029075742,-92.6267013550,27.1971549988,88.5021057129,0.0215069056,-0.0028125048,0.0212450027,-31.3201103210,85.0038528442,40.6671562195,0.0211029053,0.0290128887,0.0171838701,43.2860412598,42.6295661926,54.7938728333,0.0786229372,-0.0123765469,-0.0102990866,
88.023,-3.2735493183,1.3978739977,9.7981319427,0.0571099296,0.0439025797,0.0156021714,-92.6500549316,26.9123573303,88.5915832520,0.0239160955,0.0331201553,0.0085278749,-31.5487556458,85.0080108643,40.4377212524,0.0264803171,0.0214695930,0.0208468139,43.2866744995,42.6216926575,54.8009300232,0.0711976290,-0.0173290968,0.0047748685,
88.033,-3.2735097408,1.3968355656,9.7974367142,0.0653925911,0.0448784791,0.0038829446,-92.6888809204,26.6241836548,88.6789779663,0.0262614489,0.0270534754,0.0126558542,-31.7404441833,85.0120925903,40.2439079285,0.0294162035,0.0226653814,0.0303392410,43.2908592224,42.6131248474,54.8107261658,0.0676696301,-0.0110899210,0.0003440380,
88.043,-3.2787313461,1.3959246874,9.7984609604,0.0629352927,0.0244616345,-0.0024599433,-92.7436599731,26.3358650208,88.7667007446,0.0349408984,0.0297417641,0.0248481035,-31.8914585114,85.0169754028,40.0907478333,0.0186814070,0.0345413089,0.0251620412,43.2918472290,42.6052818298,54.8163719177,0.0626860261,-0.0145806670,0.0032149553,
88.053,-3.2864356041,1.3988529444,9.8000354767,0.0522441976,0.0216660947,0.0117092133,-92.8146667480,26.0600261688,88.8516921997,0.0296445787,0.0445055962,0.0143434405,-32.1272087097,85.0240859985,39.8495445251,0.0069734454,0.0284407735,0.0220429003,43.3003730774,42.5985794067,54.8266410828,0.0606468320,-0.0108083487,-0.0016502142,
88.063,-3.2880825996,1.3980947733,9.8005771637,0.0624848753,0.0431791656,0.0029214025,-92.8862609863,25.8003997803,88.9373550415,0.0260577202,0.0386159420,0.0189828277,-32.4006195068,85.0276718140,39.5728034973,0.0143030882,0.0273065567,0.0223161578,43.3095855713,42.5906257629,54.8375015259,0.0659157038,-0.0153535008,-0.0123792887,
88.073,-3.2856986523,1.3949496746,9.8030223846,0.0673128068,0.0441142842,0.0126834512,-92.9590301514,25.5584774017,89.0219879150,0.0310414732,0.0438027382,0.0133832097,-32.6648330688,85.0259017944,39.3044700623,0.0191832185,0.0213206112,0.0366751850,43.3243560791,42.5809059143,54.8511619568,0.0653025508,-0.0106876493,-0.0152630210,
88.083,-3.2856633663,1.3957003355,9.8028888702,0.0595134124,0.0382542759,0.0112184286,-93.0083465576,25.3305625916,89.1133422852,0.0254963040,0.0332614183,0.0220615864,-32.9018936157,85.0229492188,39.0631370544,0.0260146856,0.0236132443,0.0339000821,43.3332939148,42.5695190430,54.8642616272,0.0729687214,-0.0123281479,-0.0055155754,
88.093,-3.2861371040,1.3977369070,9.8039836884,0.0551544130,0.0407038853,0.0082908273,-93.0393524170,25.1108779907,89.2014694214,0.0259338915,0.0275425911,0.0167772174,-33.1236877441,85.0283050537,38.8402633667,0.0201634169,0.0272701383,0.0151242614,43.3411064148,42.5592880249,54.8756408691,0.0679543614,-0.0076014996,-0.0006527305,
88.103,-3.2878372669,1.3969221115,9.8045110703,0.0629526973,0.0407335274,0.0102447867,-93.0459594727,24.8881568909,89.2868347168,0.0341295898,0.0169699192,0.0213635564,-33.3073730469,85.0305480957,38.6557846069,0.0260261893,0.0289552808,0.0221452713,43.3424491882,42.5474052429,54.8815383911,0.0721960664,-0.0106398463,0.0060937405,
88.113,-3.2861609459,1.3963409662,9.8056449890,0.0644073933,0.0460754298,0.0102431178,-93.0382308960,24.6638336182,89.3692932129,0.0281333923,0.0117784142,0.0096094012,-33.4501991272,85.0327224731,38.5119857788,0.0235880613,0.0252135992,0.0306006074,43.3406295776,42.5413322449,54.8866500854,0.0765125155,-0.0179961920,-0.0047165155,
88.123,-3.2842473984,1.3962244987,9.8073320389,0.0648936480,0.0426241271,0.0063345432,-93.0088500977,24.4355678558,89.4516067505,0.0293923616,0.0022250414,0.0136252046,-33.5823554993,85.0377731323,38.3785972595,0.0231074095,0.0224087834,0.0268779993,43.3396949768,42.5336875916,54.8911399841,0.0715314150,-0.0131665468,0.0039986372,
88.133,-3.2825131416,1.3941800594,9.8085203171,0.0672993809,0.0484533422,0.0077970028,-92.9657974243,24.2095184326,89.5353012085,0.0262855291,0.0141366124,0.0115609765,-33.7489662170,85.0414047241,38.2093582153,0.0255542994,0.0235670507,0.0285370350,43.3426094055,42.5328407288,54.8980865479,0.0578486919,-0.0132006407,-0.0062367916,
88.143,-3.2825450897,1.3965073824,9.8101997375,0.0585509241,0.0465007164,0.0082862973,-92.9085769653,23.9911155701,89.6209869385,0.0252473354,0.0245262384,0.0170776844,-33.9221878052,85.0428619385,38.0321998596,0.0206736922,0.0218235552,0.0272427201,43.3448486328,42.5305404663,54.9048271179,0.0651432872,-0.0205644965,-0.0067251325,
88.153,-3.2822022438,1.3974331617,9.8107070923,0.0590553619,0.0435650386,0.0121926665,-92.8470153809,23.7802009583,89.7119140625,0.0321353376,0.0353411436,0.0176354647,-34.1120414734,85.0457153320,37.8364562988,0.0148186088,0.0279011428,0.0230517089,43.3496856689,42.5258369446,54.9121284485,0.0572702885,-0.0138118267,-0.0018395782,
88.163,-3.2806270123,1.3994126320,9.8117961884,0.0576250553,0.0435375459,0.0121917725,-92.7944717407,23.5790958405,89.7994384766,0.0245263875,0.0455786586,0.0134481788,-34.3647727966,85.0501785278,37.5789909363,0.0148253441,0.0281834304,0.0204040110,43.3603591919,42.5179100037,54.9235649109,0.0605862737,-0.0066516995,-0.0062079430,
88.173,-3.2819588184,1.3973813057,9.8123712540,0.0629607067,0.0377014168,0.0112158060,-92.7656478882,23.3909301758,89.8793640137,0.0278620124,0.0522788763,0.0042614341,-34.6142005920,85.0516510010,37.3256492615,0.0201986432,0.0284877121,0.0304100215,43.3712997437,42.5064506531,54.9358329773,0.0682513714,-0.0044054985,-0.0018157959,
88.183,-3.2826979160,1.3980299234,9.8141040802,0.0600423366,0.0440619402,0.0053573847,-92.7465591431,23.2177486420,89.9533996582,0.0231328905,0.0613000989,0.0118256211,-34.8633995056,85.0497512817,37.0732154846,0.0206840634,0.0244296789,0.0335324705,43.3822517395,42.4946060181,54.9484405518,0.0666340590,-0.0070451498,-0.0032845140,
88.193,-3.2809896469,1.3963632584,9.8152971268,0.0639195070,0.0440322235,0.0102377534,-92.7426223755,23.0578422546,90.0222702026,0.0225195885,0.0604449511,0.0093738437,-35.1066169739,85.0512924194,36.8287048340,0.0201981068,0.0310716331,0.0230275989,43.3873100281,42.4842300415,54.9592247009,0.0679653883,-0.0149890184,-0.0052818656,
88.203,-3.2794263363,1.3970341682,9.8164167404,0.0600249618,0.0435166955,0.0107248425,-92.7376022339,22.9061126709,90.0908355713,0.0293589532,0.0531805754,0.0117840767,-35.2952995300,85.0499496460,36.6406059265,0.0245906115,0.0293710232,0.0275717974,43.3917846680,42.4757728577,54.9693527222,0.0654151440,-0.0121695995,-0.0053147078,
88.213,-3.2767729759,1.3971275091,9.8168878555,0.0663742498,0.0473767184,0.0141397715,-92.7324676514,22.7597942352,90.1579132080,0.0265170336,0.0409904718,0.0078424215,-35.4626121521,85.0535049438,36.4756507874,0.0216662884,0.0256418288,0.0184931159,43.3945579529,42.4683036804,54.9771308899,0.0692252517,-0.0127443075,-0.0092602968,
88.223,-3.2778289318,1.3963847160,9.8180723190,0.0605019107,0.0430006012,0.0053522587,-92.7167892456,22.6141624451,90.2234802246,0.0295430720,0.0283093452,0.0237501264,-35.5587806702,85.0523223877,36.3811378479,0.0231293440,0.0257749259,0.0288171172,43.3940315247,42.4626960754,54.9815597534,0.0701296329,-0.0132730007,0.0009409189,
88.233,-3.2741148472,1.3964956999,9.8191814423,0.0639218166,0.0468421392,0.0048598051,-92.7051239014,22.4684391022,90.2817459106,0.0262174606,0.0278272629,0.0133541226,-35.6400070190,85.0547790527,36.3043060303,0.0167853832,0.0263424218,0.0250163972,43.3946113586,42.4596824646,54.9875030518,0.0705791116,-0.0093965530,-0.0034742951,
88.243,-3.2740843296,1.3974559307,9.8190622330,0.0585674793,0.0404939353,0.0048602819,-92.7029953003,22.3246707916,90.3290176392,0.0273154378,0.0307364464,0.0011582375,-35.7408599854,85.0573959351,36.2090682983,0.0177658796,0.0244902968,0.0187959671,43.3994827271,42.4574813843,54.9987068176,0.0642030835,-0.0084834695,-0.0112625360,
88.253,-3.2727301121,1.3976587057,9.8208360672,0.0615006983,0.0492594093,0.0024172068,-92.7100830078,22.1811141968,90.3728942871,0.0367152989,0.0302138925,0.0018054247,-35.8663711548,85.0626220703,36.0859985352,0.0128909349,0.0309443176,0.0199571252,43.4022789001,42.4556922913,55.0076751709,0.0636917949,-0.0153599977,-0.0068587065,
88.263,-3.2736055851,1.3969320059,9.8220090866,0.0605114624,0.0414621681,0.0073013306,-92.7146682739,22.0475559235,90.4138717651,0.0345557630,0.0276686549,0.0038744211,-36.0099830627,85.0651626587,35.9432754517,0.0177775621,0.0276802480,0.0250064433,43.4056396484,42.4467086792,55.0157012939,0.0762713552,-0.0061867833,-0.0010461807,
88.273,-3.2715909481,1.3967550993,9.8243808746,0.0609966554,0.0428919233,0.0077871084,-92.7047576904,21.9257125854,90.4549942017,0.0247712731,0.0314007401,0.0144941807,-36.1591644287,85.0653610229,35.7946090698,0.0182661414,0.0254249275,0.0266071856,43.4074821472,42.4397048950,55.0233764648,0.0693452358,-0.0145615339,-0.0015786290,
88.283,-3.2723081112,1.3963508606,9.8255586624,0.0614778847,0.0463223979,0.0058346391,-92.6905975342,21.8144683838,90.4963226318,0.0298053920,0.0404348373,0.0103921890,-36.3470611572,85.0654067993,35.6061401367,0.0226607323,0.0246807039,0.0184816122,43.4078292847,42.4333724976,55.0296020508,0.0663339496,-0.0151042938,0.0052065253,
88.293,-3.2732682228,1.3953471184,9.8273382187,0.0639017746,0.0453625843,0.0112062097,-92.6787109375,21.7135295868,90.5352096558,0.0252395868,0.0401194096,0.0165781975,-36.4797668457,85.0669174194,35.4746589661,0.0236395597,0.0302041769,0.0298503041,43.4118423462,42.4274139404,55.0381355286,0.0652806759,-0.0156782866,-0.0011564493,
88.303,-3.2720658779,1.3958255053,9.8296489716,0.0629335642,0.0443650670,0.0063224435,-92.6816177368,21.6162796021,90.5721969604,0.0275683999,0.0470907688,0.0083536506,-36.6209907532,85.0658798218,35.3328208923,0.0182669163,0.0235523880,0.0299692452,43.4176559448,42.4230003357,55.0476341248,0.0627824068,-0.0103973150,-0.0070019960,
88.313,-3.2745788097,1.3942867517,9.8308181763,0.0633949935,0.0400143452,0.0082774162,-92.6907882690,21.5194053650,90.6040725708,0.0274608135,0.0354975462,0.0099961758,-36.7186050415,85.0666351318,35.2353591919,0.0221742988,0.0246442258,0.0232306719,43.4188957214,42.4199104309,55.0518722534,0.0681136847,-0.0118987560,-0.0060408711,
88.323,-3.2730295658,1.3955059052,9.8331899643,0.0560920462,0.0434052981,0.0072999001,-92.6980209351,21.4202709198,90.6294631958,0.0243858695,0.0204992294,0.0096552968,-36.8081893921,85.0662765503,35.1455764771,0.0192440748,0.0228047073,0.0291698873,43.4221076965,42.4161148071,55.0593070984,0.0734358430,-0.0080533624,-0.0006738901,
88.333,-3.2726168633,1.3928256035,9.8331670761,0.0672757477,0.0438864566,0.0112045407,-92.7010192871,21.3217315674,90.6547012329,0.0286436677,0.0318649411,0.0146166086,-36.9063873291,85.0706939697,35.0494918823,0.0260866284,0.0243467093,0.0171128213,43.4232673645,42.4148788452,55.0649108887,0.0680488348,-0.0114921331,-0.0070217848,
88.343,-3.2736525536,1.3927549124,9.8349618912,0.0584854558,0.0429279357,0.0116937160,-92.6986846924,21.2268753052,90.6773300171,0.0168470442,0.0192831159,0.0150948763,-36.9737854004,85.0740661621,34.9853515625,0.0221854448,0.0278142989,0.0177083015,43.4257164001,42.4130401611,55.0717277527,0.0646072030,-0.0095767975,-0.0079922676,
88.353,-3.2717418671,1.3906210661,9.8355541229,0.0652841628,0.0448478349,0.0063198805,-92.6898117065,21.1382999420,90.7027206421,0.0222415030,0.0281484723,0.0198597312,-37.0452499390,85.0760192871,34.9158134460,0.0158407092,0.0278824270,0.0251253247,43.4274940491,42.4098739624,55.0796890259,0.0582187176,-0.0057128072,0.0056681633,
88.363,-3.2717313766,1.3911628723,9.8366680145,0.0604108013,0.0424062200,0.0087615252,-92.6865310669,21.0575199127,90.7294921875,0.0223909616,0.0437943935,0.0183655024,-37.1578025818,85.0770111084,34.8062477112,0.0197484493,0.0289875269,0.0179191232,43.4279861450,42.4054641724,55.0866165161,0.0571852922,-0.0096593499,0.0012402534,
88.373,-3.2729187012,1.3911012411,9.8372268677,0.0579683222,0.0404737853,0.0043681264,-92.6859588623,20.9834117889,90.7546768188,0.0255781710,0.0349808335,0.0193543434,-37.2789573669,85.0754165649,34.6897239685,0.0192577839,0.0242702067,0.0277760029,43.4313812256,42.4002189636,55.0961647034,0.0639536381,-0.0111984015,0.0041552782,
88.383,-3.2707588673,1.3917365074,9.8371801376,0.0574911237,0.0458072461,0.0024132729,-92.6942672729,20.9197616577,90.7810821533,0.0196578801,0.0422071218,0.0170668364,-37.3882255554,85.0737533569,34.5863151550,0.0231615305,0.0253978670,0.0298092067,43.4351615906,42.3926582336,55.1069030762,0.0721570253,-0.0098300576,-0.0036879778,
88.393,-3.2716872692,1.3922275305,9.8407135010,0.0589645356,0.0345929377,0.0097382665,-92.7118377686,20.8587207794,90.8053665161,0.0284281373,0.0450143814,0.0066289902,-37.5066642761,85.0735549927,34.4751586914,0.0246260762,0.0284753442,0.0181981623,43.4355125427,42.3884925842,55.1151809692,0.0633142591,-0.0118201375,-0.0022556186,
88.403,-3.2724161148,1.3938750029,9.8436632156,0.0570401549,0.0438829362,0.0131580234,-92.7273330688,20.8068752289,90.8315963745,0.0241644681,0.0384877920,0.0156860352,-37.5841140747,85.0706481934,34.4042587280,0.0265748501,0.0266468525,0.0260448456,43.4376869202,42.3825607300,55.1234397888,0.0730034113,-0.0104237795,-0.0008229017,
88.413,-3.2711961269,1.3925352097,9.8448820114,0.0604347438,0.0423968770,0.0048552752,-92.7300491333,20.7635593414,90.8589248657,0.0288287401,0.0324057341,0.0181849003,-37.6397933960,85.0655288696,34.3575820923,0.0246140361,0.0238376558,0.0343303382,43.4368515015,42.3794212341,55.1302299500,0.0685684085,-0.0143474936,-0.0037860870,
88.423,-3.2694923878,1.3926761150,9.8448400497,0.0594606400,0.0462734438,0.0097364783,-92.7177047729,20.7280731201,90.8885116577,0.0228784680,0.0316579342,0.0233647823,-37.6866722107,85.0633392334,34.3169708252,0.0197279453,0.0224532485,0.0221377015,43.4332656860,42.3768615723,55.1348457336,0.0690236688,-0.0162877440,0.0025072098,
88.433,-3.2700805664,1.3921574354,9.8459548950,0.0643344074,0.0423774458,0.0141313672,-92.7009811401,20.6990585327,90.9150390625,0.0248461962,0.0357559919,0.0167526603,-37.6953239441,85.0637359619,34.3146057129,0.0192402601,0.0307600498,0.0284994245,43.4329872131,42.3759956360,55.1415710449,0.0680359006,-0.0158038139,-0.0053145885,
88.443,-3.2704968452,1.3948036432,9.8488655090,0.0555915087,0.0428729132,0.0102266669,-92.6846160889,20.6716594696,90.9387741089,0.0234222710,0.0310541987,0.0101460814,-37.7433509827,85.0663223267,34.2712936401,0.0207089782,0.0190731287,0.0129549503,43.4301795959,42.3754615784,55.1474037170,0.0650993586,-0.0138286352,0.0014918447,
88.453,-3.2695941925,1.3957610130,9.8505964279,0.0590261891,0.0433454551,0.0072965026,-92.6752090454,20.6400527954,90.9539108276,0.0321834385,0.0297908783,0.0026774406,-37.7772369385,85.0691375732,34.2451095581,0.0187600851,0.0234802961,0.0242545307,43.4273033142,42.3754196167,55.1507568359,0.0675402284,-0.0118490458,0.0009775162,
88.463,-3.2667191029,1.3980305195,9.8541364670,0.0571126603,0.0457367189,0.0126657486,-92.6695861816,20.6109924316,90.9662780762,0.0287790596,0.0285086632,0.0079651475,-37.8064117432,85.0708084106,34.2219772339,0.0251102448,0.0239880979,0.0169783533,43.4256629944,42.3756752014,55.1567115784,0.0665670037,-0.0113432407,-0.0029408932,
88.473,-3.2667868137,1.3990061283,9.8558397293,0.0610359348,0.0442730300,0.0053419471,-92.6704406738,20.5873718262,90.9778060913,0.0235103667,0.0315828323,0.0079852343,-37.8178024292,85.0718383789,34.2132263184,0.0153461695,0.0283851027,0.0238400400,43.4232025146,42.3753204346,55.1600685120,0.0592381954,-0.0103465319,-0.0000361204,
88.483,-3.2657539845,1.3998178244,9.8556652069,0.0634915009,0.0418136120,0.0082709193,-92.6777114868,20.5639934540,90.9867172241,0.0245931745,0.0322084427,0.0144590735,-37.8501167297,85.0734329224,34.1854171753,0.0168133974,0.0269431770,0.0209623575,43.4207572937,42.3767776489,55.1637191772,0.0616983175,-0.0147064924,-0.0034635067,
88.493,-3.2646059990,1.4002010822,9.8574743271,0.0566622466,0.0442350134,0.0043637753,-92.6854400635,20.5464744568,90.9944763184,0.0223537683,0.0357281566,0.0233785510,-37.9073791504,85.0737533569,34.1333389282,0.0212084055,0.0206626356,0.0195552111,43.4221572876,42.3743591309,55.1718292236,0.0685031414,-0.0132741928,-0.0034715533,
88.503,-3.2635955811,1.4022758007,9.8567190170,0.0586515740,0.0461704880,-0.0005190969,-92.6923904419,20.5353012085,91.0024642944,0.0182648301,0.0265134573,0.0166600347,-37.9526138306,85.0768508911,34.0920104980,0.0173068047,0.0289858580,0.0206165910,43.4254608154,42.3716773987,55.1804695129,0.0704216957,-0.0094205141,-0.0054180026,
88.513,-3.2644608021,1.4027543068,9.8578186035,0.0606130473,0.0393496081,0.0082706809,-92.6890563965,20.5278186798,91.0091476440,0.0205839872,0.0275387764,0.0180718899,-37.9788093567,85.0763702393,34.0722312927,0.0197474957,0.0265824795,0.0279574096,43.4232482910,42.3685302734,55.1842422485,0.0694044828,-0.0138199329,0.0003942251,
88.523,-3.2660174370,1.4027228355,9.8595552444,0.0606124997,0.0388884433,0.0151085258,-92.6746292114,20.5212917328,91.0145721436,0.0175476372,0.0231945515,0.0129562020,-38.0121803284,85.0755844116,34.0442924500,0.0236525536,0.0246769190,0.0304218829,43.4228935242,42.3666648865,55.1893539429,0.0698687434,-0.0152963996,-0.0113431215,
88.533,-3.2654831409,1.4009468555,9.8607902527,0.0620463565,0.0442502722,0.0072946548,-92.6520309448,20.5104179382,91.0204925537,0.0222527385,0.0232784152,0.0155191422,-38.0484199524,85.0774154663,34.0134201050,0.0280498266,0.0227494836,0.0168078840,43.4210662842,42.3672904968,55.1955337524,0.0635291934,-0.0157624483,-0.0054944754,
88.543,-3.2659742832,1.4010205269,9.8631277084,0.0620476380,0.0427939780,0.0019241571,-92.6304702759,20.5014877319,91.0289382935,0.0152707994,0.0282316804,0.0151699781,-38.0659904480,85.0776138306,34.0028953552,0.0246321559,0.0203264356,0.0226880014,43.4212989807,42.3653450012,55.2012252808,0.0757111311,-0.0118742585,-0.0050214529,
88.553,-3.2650988102,1.4026854038,9.8648252487,0.0586587228,0.0432669744,0.0063183904,-92.6151351929,20.4889011383,91.0349121094,0.0219009519,0.0356444120,0.0095513463,-38.0971336365,85.0774154663,33.9771385193,0.0177959204,0.0213446617,0.0222239494,43.4186782837,42.3655014038,55.2061843872,0.0693655014,-0.0128247738,-0.0026011467,
88.563,-3.2643821239,1.4052517414,9.8658418655,0.0596800670,0.0427661464,0.0068069696,-92.6071243286,20.4785690308,91.0411376953,0.0231968760,0.0313183665,0.0133304000,-38.1528587341,85.0799560547,33.9252281189,0.0197528601,0.0277321935,0.0154768825,43.4191055298,42.3642272949,55.2106666565,0.0669076443,-0.0103979111,-0.0060269833,
88.573,-3.2651619911,1.4043042660,9.8670196533,0.0630815029,0.0461977199,-0.0019814968,-92.6066894531,20.4706020355,91.0477142334,0.0196486115,0.0323443413,0.0167426467,-38.1793212891,85.0805130005,33.9034461975,0.0163357258,0.0238537788,0.0252726972,43.4199409485,42.3598899841,55.2160453796,0.0751525164,-0.0070226789,-0.0011733770,
88.583,-3.2650055885,1.4055545330,9.8687505722,0.0582204983,0.0427770019,0.0141322017,-92.6093597412,20.4617977142,91.0538406372,0.0238991976,0.0363018513,0.0192307830,-38.1828880310,85.0803146362,33.9047088623,0.0212182403,0.0287409425,0.0301595032,43.4227905273,42.3550300598,55.2230415344,0.0702069402,-0.0061120987,-0.0021661520,
88.593,-3.2656006813,1.4067387581,9.8692770004,0.0577528849,0.0447404608,-0.0000272393,-92.6156387329,20.4574737549,91.0566177368,0.0179691315,0.0289997458,0.0193337798,-38.1815414429,85.0800323486,33.9118957520,0.0226826668,0.0292319953,0.0301521420,43.4229393005,42.3540344238,55.2286911011,0.0648230314,-0.0095395446,-0.0021733046,
88.603,-3.2661790848,1.4087783098,9.8709545135,0.0573001876,0.0403559469,0.0048572421,-92.6211776733,20.4505386353,91.0540237427,0.0193205178,0.0275725722,0.0174739361,-38.1719741821,85.0781326294,33.9271011353,0.0221915245,0.0302169323,0.0271880031,43.4233932495,42.3504066467,55.2335929871,0.0696590543,-0.0032255054,-0.0007354617,
88.613,-3.2658891678,1.4070279598,9.8733320236,0.0665469915,0.0432806313,0.0087623596,-92.6226043701,20.4429817200,91.0516586304,0.0216383636,0.0276179314,0.0189634562,-38.1606941223,85.0790863037,33.9466857910,0.0187749863,0.0287279487,0.0227960348,43.4218978882,42.3495178223,55.2400856018,0.0755069852,-0.0164021850,-0.0110102892,
88.623,-3.2658309937,1.4035104513,9.8739976883,0.0659973323,0.0447445512,0.0102257133,-92.6242828369,20.4370422363,91.0465850830,0.0166583955,0.0310704708,0.0126455426,-38.1729927063,85.0793228149,33.9402618408,0.0177987814,0.0209280550,0.0242756307,43.4196586609,42.3509140015,55.2438583374,0.0682007670,-0.0163699389,-0.0061353445,
88.633,-3.2660274506,1.4022446871,9.8764133453,0.0625572801,0.0437714383,0.0048543811,-92.6230239868,20.4264373779,91.0424346924,0.0199029446,0.0238119364,0.0131157637,-38.1362037659,85.0782852173,33.9839515686,0.0241448879,0.0287050903,0.0296003520,43.4205970764,42.3523254395,55.2517662048,0.0628478527,-0.0070899725,-0.0026969314,
88.643,-3.2683129311,1.4012326002,9.8769502640,0.0615630597,0.0364870578,0.0121803880,-92.6229019165,20.4138698578,91.0368347168,0.0148145854,0.0214469433,0.0106761456,-38.1085815430,85.0786056519,34.0183563232,0.0251219273,0.0262296796,0.0295737684,43.4209976196,42.3528900146,55.2579574585,0.0716442466,-0.0129485130,-0.0090361834,
88.653,-3.2693188190,1.4009059668,9.8781566620,0.0591159537,0.0452936478,0.0072984695,-92.6297454834,20.3973693848,91.0297775269,0.0140563250,0.0234951973,0.0073746443,-38.0906829834,85.0774536133,34.0424346924,0.0217022300,0.0218231678,0.0305215120,43.4192161560,42.3503341675,55.2634315491,0.0711229444,-0.0095345378,0.0016684532,
88.663,-3.2710764408,1.4007194042,9.8792800903,0.0605775416,0.0384883322,0.0019289851,-92.6390151978,20.3813133240,91.0242462158,0.0128171444,0.0299334526,0.0212024450,-38.0982322693,85.0782852173,34.0440292358,0.0207269192,0.0237785280,0.0222363770,43.4162101746,42.3501091003,55.2679977417,0.0608661771,-0.0148792863,0.0040812492,
88.673,-3.2727379799,1.3987941742,9.8816862106,0.0649384856,0.0429118574,0.0068125129,-92.6527099609,20.3613739014,91.0167388916,0.0173737109,0.0232082605,0.0141078234,-38.0927886963,85.0767745972,34.0574684143,0.0265840292,0.0247630179,0.0334434509,43.4213256836,42.3511390686,55.2806701660,0.0623443127,-0.0080829263,-0.0100246668,
88.683,-3.2722387314,1.3988777399,9.8828182220,0.0595688522,0.0399734750,-0.0000238419,-92.6651306152,20.3413238525,91.0124435425,0.0146041811,0.0252735615,0.0191991925,-38.1091423035,85.0776519775,34.0488739014,0.0197494030,0.0277052224,0.0266319513,43.4244384766,42.3524246216,55.2889518738,0.0628491044,-0.0120080709,-0.0124281049,
88.693,-3.2734873295,1.4004358053,9.8807687759,0.0625257194,0.0404834598,0.0048610568,-92.6747055054,20.3232135773,91.0112686157,0.0152843595,0.0268406868,0.0188729167,-38.1310157776,85.0774154663,34.0348930359,0.0275615454,0.0291979611,0.0290928483,43.4249916077,42.3492660522,55.2973823547,0.0725740790,-0.0100855231,-0.0051252842,
88.703,-3.2737922668,1.3995867968,9.8812751770,0.0629991889,0.0370708331,0.0082784891,-92.6753845215,20.3018341064,91.0109558105,0.0120047927,0.0215984583,0.0188899040,-38.1553611755,85.0751037598,34.0192527771,0.0270698071,0.0243686140,0.0261558592,43.4247932434,42.3460464478,55.3045005798,0.0656965971,-0.0076682568,0.0046111345,
88.713,-3.2744712830,1.3989688158,9.8836717606,0.0605469979,0.0419654883,0.0121858120,-92.6754608154,20.2751579285,91.0105819702,0.0140094459,0.0232244730,0.0101094842,-38.2016487122,85.0769348145,33.9794769287,0.0217014551,0.0204999149,0.0198760033,43.4225883484,42.3451194763,55.3100852966,0.0725205541,-0.0130262375,-0.0027412176,
88.723,-3.2748222351,1.3975242376,9.8855228424,0.0610100776,0.0453896038,0.0073023438,-92.6844177246,20.2421875000,91.0091476440,0.0163993239,0.0287878513,0.0039177537,-38.1966896057,85.0753021240,33.9907112122,0.0256052613,0.0219740570,0.0291295648,43.4190254211,42.3453369141,55.3136825562,0.0710585117,-0.0149441361,-0.0008171201,
88.733,-3.2727773190,1.3953275681,9.8879575729,0.0658545569,0.0473071598,0.0058346987,-92.6963195801,20.2088623047,91.0082397461,0.0104824305,0.0270262957,0.0080282688,-38.2182807922,85.0751419067,33.9736785889,0.0216987729,0.0278629959,0.0296337008,43.4193153381,42.3457336426,55.3204383850,0.0676456690,-0.0105491877,-0.0032531023,
88.743,-3.2737550735,1.3961254358,9.8890972137,0.0575677007,0.0409765169,0.0151132941,-92.7093658447,20.1744995117,91.0070724487,0.0152905881,0.0301526785,0.0175288916,-38.2282943726,85.0751037598,33.9691162109,0.0221869946,0.0317801833,0.0286686122,43.4217109680,42.3435173035,55.3285675049,0.0627342463,-0.0061949492,-0.0022738576,
88.753,-3.2745840549,1.3953033686,9.8903055191,0.0609713271,0.0458737835,0.0107192397,-92.7268981934,20.1449871063,91.0077133179,0.0113891363,0.0420351624,0.0236836672,-38.2743072510,85.0768966675,33.9313926697,0.0221896768,0.0269362330,0.0248273611,43.4270629883,42.3424263000,55.3377799988,0.0656498671,-0.0096719265,-0.0085834265,
88.763,-3.2745528221,1.3941984177,9.8914909363,0.0619286075,0.0424553044,0.0097420216,-92.7500000000,20.1197185516,91.0114059448,0.0139047503,0.0411922932,0.0240690708,-38.3315277100,85.0797195435,33.8823165894,0.0236587524,0.0269750953,0.0171082914,43.4305114746,42.3400192261,55.3452529907,0.0665953755,-0.0043525696,-0.0061320066,
88.773,-3.2754430771,1.3939001560,9.8926448822,0.0614351258,0.0434473790,0.0151140690,-92.7720336914,20.0967750549,91.0195159912,0.0018099844,0.0349645019,0.0288316607,-38.3870735168,85.0837020874,33.8357810974,0.0197584629,0.0313967466,0.0113523304,43.4347801208,42.3377723694,55.3542480469,0.0699843168,-0.0097819567,-0.0105085373,
88.783,-3.2747981548,1.3938273191,9.8944015503,0.0604572892,0.0424595810,0.0063245296,-92.7958297729,20.0723171234,91.0301971436,0.0121512413,0.0292331576,0.0106726289,-38.4030227661,85.0858917236,33.8285675049,0.0236679912,0.0294385552,0.0201877356,43.4317703247,42.3355407715,55.3586921692,0.0699555874,-0.0127013326,-0.0022529960,
88.793,-3.2754888535,1.3949227333,9.8967666626,0.0565701537,0.0419833101,0.0087665915,-92.8083648682,20.0504531860,91.0422744751,0.0039803088,0.0259355307,0.0182093978,-38.4068603516,85.0859375000,33.8317031860,0.0212266445,0.0230944455,0.0260525048,43.4281082153,42.3343505859,55.3633956909,0.0709167719,-0.0131649971,-0.0013189912,
88.803,-3.2758936882,1.3932670355,9.8985090256,0.0658186078,0.0410138406,0.0019310117,-92.8101348877,20.0260562897,91.0532608032,0.0060217083,0.0251033306,0.0187337399,-38.4087181091,85.0888900757,33.8403701782,0.0207427740,0.0255093575,0.0265779197,43.4286079407,42.3357505798,55.3725624084,0.0670285821,-0.0102285743,-0.0096030831,
88.813,-3.2766783237,1.3930391073,9.8991308212,0.0565372854,0.0439571999,0.0082789063,-92.8042373657,20.0009384155,91.0622787476,0.0148870647,0.0189102292,0.0132732391,-38.4055137634,85.0905227661,33.8557662964,0.0178155303,0.0337865651,0.0261121690,43.4273300171,42.3346900940,55.3802528381,0.0635969043,-0.0058306456,0.0001420379,
88.823,-3.2765696049,1.3960673809,9.8995485306,0.0580549687,0.0449317917,0.0102331638,-92.7880859375,19.9754314423,91.0666732788,0.0134921968,0.0195631981,0.0183873773,-38.3786849976,85.0924758911,33.8940544128,0.0246543884,0.0327589810,0.0300158262,43.4251747131,42.3308181763,55.3860092163,0.0733126402,-0.0092596412,-0.0023514628,
88.833,-3.2758865356,1.3971672058,9.8994626999,0.0561210327,0.0405253395,0.0107213855,-92.7692718506,19.9485321045,91.0671310425,0.0174454451,0.0246210098,0.0175982714,-38.3995475769,85.0919189453,33.8818626404,0.0251418352,0.0205817819,0.0305184722,43.4184341431,42.3284492493,55.3893089294,0.0630281568,-0.0155632496,0.0102638006,
88.843,-3.2775256634,1.3988412619,9.8993492126,0.0561502427,0.0410421304,0.0073057413,-92.7556838989,19.9235954285,91.0670700073,0.0111769140,0.0330806971,0.0129881501,-38.4638786316,85.0933532715,33.8264999390,0.0202611685,0.0182030499,0.0159503520,43.4188766479,42.3290176392,55.3969001770,0.0684065819,-0.0126332045,-0.0068173409,
88.853,-3.2797632217,1.4015289545,9.9016494751,0.0552205741,0.0430341698,0.0068208575,-92.7483444214,19.8950119019,91.0689315796,0.0204735100,0.0342327356,0.0123875141,-38.5030708313,85.0958328247,33.7933235168,0.0202648640,0.0211552680,0.0218779147,43.4198455811,42.3299903870,55.4026107788,0.0625597239,-0.0175172687,-0.0077770948,
88.863,-3.2797608376,1.4033312798,9.9033546448,0.0581817105,0.0444989279,0.0063332319,-92.7451629639,19.8633766174,91.0729522705,0.0160479844,0.0270984173,0.0186921954,-38.5102157593,85.0976715088,33.7919235229,0.0207558870,0.0279788077,0.0223997533,43.4192771912,42.3301124573,55.4087028503,0.0684207082,-0.0150694847,-0.0014334917,
88.873,-3.2822823524,1.4045729637,9.9050388336,0.0601564981,0.0421014130,0.0068246126,-92.7524261475,19.8337669373,91.0727691650,0.0077494085,0.0321507454,0.0217493176,-38.5130653381,85.0995483398,33.7955818176,0.0222235322,0.0308927894,0.0194967687,43.4167213440,42.3282432556,55.4142112732,0.0693731308,-0.0165254474,0.0034106970,
88.883,-3.2837505341,1.4033248425,9.9067573547,0.0645292550,0.0372442044,0.0053607821,-92.7616119385,19.8021793365,91.0729217529,0.0091838539,0.0225644708,0.0184912682,-38.5317802429,85.1017074585,33.7815246582,0.0207619071,0.0294280052,0.0175897181,43.4199256897,42.3288650513,55.4218101501,0.0649866462,-0.0102027655,-0.0102270842,
88.893,-3.2860958576,1.4024966955,9.9085512161,0.0610968359,0.0426561758,0.0102455616,-92.7700500488,19.7690525055,91.0708465576,0.0125460923,0.0237298608,0.0152209401,-38.5840415955,85.1032638550,33.7362365723,0.0227173567,0.0250803828,0.0215658247,43.4183349609,42.3264732361,55.4275588989,0.0625143647,-0.0087424517,-0.0014730692,
88.903,-3.2882144451,1.4047770500,9.9113779068,0.0611366257,0.0412281789,0.0092721581,-92.7723922729,19.7391319275,91.0719757080,0.0081483126,0.0297636986,0.0157563090,-38.6105995178,85.1011047363,33.7182884216,0.0207610130,0.0261110365,0.0279111862,43.4173164368,42.3248977661,55.4353485107,0.0668885708,-0.0126518011,-0.0044249296,
88.913,-3.2889244556,1.4058318138,9.9149398804,0.0567604974,0.0397756770,0.0024374127,-92.7711563110,19.7034416199,91.0752029419,0.0104916692,0.0206972361,0.0147694945,-38.6021308899,85.1004714966,33.7362747192,0.0285725594,0.0290389955,0.0283803344,43.4213638306,42.3221817017,55.4443473816,0.0717363358,-0.0034343004,-0.0102714896,
88.923,-3.2867832184,1.4074391127,9.9160385132,0.0587416627,0.0455977134,0.0063421726,-92.7752227783,19.6647624969,91.0792236328,0.0113208890,0.0297100544,0.0148473978,-38.6567306519,85.1021423340,33.6896286011,0.0212508440,0.0256661475,0.0182050765,43.4184989929,42.3216819763,55.4480743408,0.0644056797,-0.0161068439,-0.0020005107,
88.933,-3.2859113216,1.4091628790,9.9171886444,0.0563303307,0.0475356132,0.0107362270,-92.7832412720,19.6257953644,91.0868225098,0.0009147227,0.0328615904,0.0228028893,-38.7014427185,85.1000671387,33.6520004272,0.0178297758,0.0208615363,0.0314001143,43.4231147766,42.3226776123,55.4589271545,0.0697896481,-0.0127241015,-0.0117167234,
88.943,-3.2860283852,1.4072703123,9.9183845520,0.0645980984,0.0441197269,0.0073176622,-92.8001327515,19.5854644775,91.0959320068,0.0109938383,0.0345489979,0.0069781542,-38.7442359924,85.1036300659,33.6142005920,0.0183233619,0.0272209048,0.0217255354,43.4276046753,42.3218994141,55.4676246643,0.0668498874,-0.0069131255,-0.0063123703,
88.953,-3.2868421078,1.4082384109,9.9194221497,0.0631501451,0.0416924693,0.0073192120,-92.8187179565,19.5480613708,91.1068878174,0.0094022155,0.0279161930,0.0136423707,-38.7784538269,85.1041870117,33.5851097107,0.0202773213,0.0306758583,0.0256692171,43.4276123047,42.3196220398,55.4739723206,0.0634024739,-0.0142557621,0.0048985481,
88.963,-3.2861394882,1.4067370892,9.9206438065,0.0611708239,0.0426568314,0.0097587705,-92.8331909180,19.5105075836,91.1186904907,0.0112258792,0.0310534239,0.0275623202,-38.8022499084,85.1029510498,33.5686035156,0.0183223486,0.0263217986,0.0300720334,43.4311408997,42.3172149658,55.4824600220,0.0721604824,-0.0123551488,-0.0107152462,
88.973,-3.2858161926,1.4070425034,9.9218101501,0.0592230260,0.0455808826,0.0126889348,-92.8510818481,19.4748306274,91.1277313232,0.0057559907,0.0297812223,0.0141953230,-38.8287277222,85.1046295166,33.5460319519,0.0236959457,0.0287769735,0.0252369344,43.4333839417,42.3175621033,55.4890136719,0.0648407936,-0.0118852258,-0.0062987804,
88.983,-3.2852637768,1.4091477394,9.9223098755,0.0568183511,0.0465477705,0.0043879151,-92.8617935181,19.4404010773,91.1390762329,0.0066542923,0.0314372778,0.0241466761,-38.8536033630,85.1009521484,33.5274124146,0.0256435871,0.0224997401,0.0359520316,43.4355125427,42.3169288635,55.4955749512,0.0702037215,-0.0128867626,-0.0106790066,
88.993,-3.2866618633,1.4079194069,9.9233665466,0.0685156733,0.0397362150,0.0029242635,-92.8675842285,19.4060077667,91.1518249512,0.0031584799,0.0335849524,0.0247403383,-38.9066314697,85.1046295166,33.4801139832,0.0163717270,0.0210572183,0.0155469775,43.4337120056,42.3155364990,55.5007286072,0.0648146272,-0.0094631314,0.0005236268,
89.003,-3.2886326313,1.4070115089,9.9238376617,0.0650818646,0.0378174409,0.0014609694,-92.8746337891,19.3775024414,91.1652450562,-0.0007288158,0.0322791338,0.0150991082,-38.9356422424,85.1049880981,33.4564895630,0.0188136697,0.0210896432,0.0272958875,43.4359245300,42.3148231506,55.5073585510,0.0672467947,-0.0099780560,-0.0077643394,
89.013,-3.2869191170,1.4057226181,9.9237813950,0.0645710900,0.0441352762,0.0122005343,-92.8819198608,19.3500633240,91.1776885986,0.0061436296,0.0319435596,0.0132735968,-38.9198493958,85.1074295044,33.4761543274,0.0168641806,0.0298328400,0.0253613889,43.4352760315,42.3137931824,55.5124282837,0.0706515312,-0.0094918609,0.0005223751,
89.023,-3.2877421379,1.4069712162,9.9248838425,0.0577569380,0.0417081788,0.0034133792,-92.8858947754,19.3251037598,91.1885452271,0.0081740022,0.0325726271,0.0182290077,-38.9156684875,85.1072692871,33.4861145020,0.0236998796,0.0283647180,0.0277966261,43.4391136169,42.3116722107,55.5214271545,0.0676944256,-0.0051503778,-0.0028792620,
89.033,-3.2860963345,1.4075847864,9.9254503250,0.0577676445,0.0460740253,0.0048762560,-92.8865966797,19.3031558990,91.1946105957,0.0063476563,0.0229329467,0.0045750737,-38.9375076294,85.1078643799,33.4714279175,0.0197945237,0.0278978348,0.0219636559,43.4422187805,42.3113746643,55.5290260315,0.0672023296,-0.0178773403,-0.0057844520,
89.043,-3.2879185677,1.4080622196,9.9271545410,0.0607056618,0.0402463861,0.0073200464,-92.8744506836,19.2778797150,91.1984939575,0.0103258193,0.0265063047,0.0073121786,-38.9554710388,85.1083145142,33.4584808350,0.0232131481,0.0244955719,0.0258946419,43.4434432983,42.3089218140,55.5356178284,0.0740066171,-0.0125373602,-0.0043289065,
89.053,-3.2888638973,1.4050550461,9.9277877808,0.0660242885,0.0456340127,0.0019482374,-92.8506927490,19.2548313141,91.2019119263,0.0104343295,0.0247052908,0.0098573565,-38.9630508423,85.1109542847,33.4555778503,0.0237053633,0.0249645114,0.0264253020,43.4435119629,42.3119430542,55.5412635803,0.0613502860,-0.0115371943,-0.0077212453,
89.063,-3.2894463539,1.4054275751,9.9295558929,0.0587065667,0.0446675904,0.0004844666,-92.8191604614,19.2329998016,91.2077560425,0.0100745857,0.0287624598,0.0152040124,-38.9698715210,85.1126327515,33.4542694092,0.0266375542,0.0230034292,0.0210802555,43.4403686523,42.3125495911,55.5446815491,0.0652643442,-0.0183386803,0.0000688434,
89.073,-3.2890148163,1.4043263197,9.9295444489,0.0616170391,0.0461249463,0.0082961321,-92.7859497070,19.2141857147,91.2123413086,0.0073231161,0.0396391153,0.0229634047,-38.9950904846,85.1128005981,33.4326248169,0.0232198238,0.0264469087,0.0245289207,43.4370651245,42.3116531372,55.5469970703,0.0740418434,-0.0139204264,0.0010084510,
89.083,-3.2887241840,1.4032485485,9.9306697845,0.0635513589,0.0392839685,-0.0014701486,-92.7653808594,19.2007980347,91.2166290283,0.0027079582,0.0441267490,0.0221399665,-39.0001945496,85.1119155884,33.4317970276,0.0237067938,0.0215827227,0.0284237266,43.4360885620,42.3137664795,55.5501899719,0.0599089861,-0.0138942599,-0.0063064098,
89.093,-3.2889492512,1.4040305614,9.9323978424,0.0596587546,0.0436824039,0.0078073740,-92.7533798218,19.1877098083,91.2200393677,0.0078632832,0.0437229872,0.0209692717,-39.0232238770,85.1114349365,33.4130096436,0.0193115473,0.0235656202,0.0250259340,43.4417495728,42.3114814758,55.5603103638,0.0720865130,-0.0051766634,-0.0057874322,
89.103,-3.2886304855,1.4038301706,9.9323139191,0.0630732328,0.0456299782,0.0170845389,-92.7454681396,19.1812877655,91.2232742310,0.0009214580,0.0418128967,0.0218173862,-39.0363197327,85.1127166748,33.4036064148,0.0193134546,0.0260122120,0.0216325819,43.4476432800,42.3099517822,55.5699539185,0.0745081902,-0.0081739426,-0.0125840306,
89.113,-3.2879161835,1.4036953449,9.9333896637,0.0650240034,0.0426878594,0.0112244487,-92.7470092773,19.1740989685,91.2260208130,0.0012912750,0.0355051756,0.0169618130,-39.0367126465,85.1108703613,33.4080734253,0.0217521191,0.0221229196,0.0284494460,43.4497909546,42.3082466125,55.5753784180,0.0730212927,-0.0082080364,-0.0028145313,
89.123,-3.2881960869,1.4047024250,9.9345579147,0.0567407906,0.0456223935,0.0122019053,-92.7508239746,19.1628894806,91.2284240723,0.0006182194,0.0365428925,0.0180043578,-39.0376243591,85.1134414673,33.4128150940,0.0237090588,0.0279591084,0.0226199031,43.4524650574,42.3116722107,55.5808105469,0.0642764568,-0.0160177350,-0.0144793391,
89.133,-3.2897031307,1.4040504694,9.9351110458,0.0601473823,0.0393010043,0.0078080893,-92.7537536621,19.1522178650,91.2325897217,0.0053250492,0.0297656655,0.0297743082,-38.9932937622,85.1138458252,33.4638977051,0.0261510611,0.0293639302,0.0289346278,43.4572830200,42.3138885498,55.5883445740,0.0647933483,-0.0096974373,-0.0124652386,
89.143,-3.2888216972,1.4052925110,9.9369001389,0.0557745248,0.0475864038,0.0034135580,-92.7580871582,19.1425991058,91.2359313965,0.0002836883,0.0327472091,0.0215471387,-38.9787178040,85.1152038574,33.4852104187,0.0227351189,0.0254274309,0.0264945924,43.4592208862,42.3136634827,55.5948295593,0.0691850185,-0.0043462515,-0.0046371222,
89.153,-3.2888548374,1.4062688351,9.9374370575,0.0567681231,0.0422158577,0.0136679411,-92.7552566528,19.1394329071,91.2408676147,-0.0036747754,0.0303257704,0.0210136771,-38.9674873352,85.1166534424,33.5047416687,0.0124833584,0.0253979266,0.0221095383,43.4583702087,42.3121948242,55.6010437012,0.0652598143,-0.0067915916,-0.0022158027,
89.163,-3.2884755135,1.4057970047,9.9386272430,0.0596895739,0.0436741151,0.0092726946,-92.7505340576,19.1356277466,91.2444305420,0.0021218359,0.0283983350,0.0141005516,-38.9972076416,85.1161651611,33.4839363098,0.0207834244,0.0264163315,0.0255476236,43.4593658447,42.3115386963,55.6096687317,0.0652513504,-0.0092475414,-0.0022125244,
89.173,-3.2887291908,1.4018956423,9.9387006760,0.0669457242,0.0480731539,0.0034120083,-92.7424392700,19.1357192993,91.2471618652,-0.0003180504,0.0303571224,0.0139675736,-39.0290985107,85.1165313721,33.4618072510,0.0212722421,0.0244950950,0.0221686959,43.4561920166,42.3083381653,55.6149711609,0.0700928569,-0.0131499767,0.0021265149,
89.183,-3.2870254517,1.4026999474,9.9409856796,0.0640300736,0.0460903272,0.0087816715,-92.7331619263,19.1299953461,91.2479095459,0.0093532503,0.0245376825,0.0182105899,-39.0505409241,85.1169738770,33.4508171082,0.0251791477,0.0220773816,0.0270734727,43.4532432556,42.3075141907,55.6205024719,0.0681290627,-0.0131291151,-0.0023018122,
89.193,-3.2874004841,1.4031409025,9.9421377182,0.0586666688,0.0431671664,0.0102469921,-92.7279663086,19.1198120117,91.2463912964,0.0072321594,0.0241116285,0.0127567649,-39.0933227539,85.1166534424,33.4172554016,0.0178544521,0.0201768875,0.0222304761,43.4483757019,42.3047523499,55.6229476929,0.0724878907,-0.0150588155,0.0025149584,
89.203,-3.2865622044,1.4029260874,9.9432592392,0.0611043274,0.0387580320,0.0141522884,-92.7260360718,19.1081600189,91.2429504395,0.0041102767,0.0261328816,-0.0009438992,-39.1010780334,85.1185379028,33.4186592102,0.0227400661,0.0240734220,0.0212842822,43.4471435547,42.3036155701,55.6293106079,0.0719850063,-0.0131033659,-0.0097133517,
89.213,-3.2868523598,1.4035069942,9.9456453323,0.0581847727,0.0455990136,0.0029225349,-92.7183685303,19.0921401978,91.2442092896,0.0106820464,0.0296481848,0.0184655190,-39.0876617432,85.1147994995,33.4412879944,0.0212696791,0.0240959525,0.0309899747,43.4481468201,42.3043708801,55.6371879578,0.0690650344,-0.0131065845,-0.0057913661,
89.223,-3.2869629860,1.4048823118,9.9461946487,0.0552790835,0.0441360660,0.0107356906,-92.7134094238,19.0790538788,91.2444992065,0.0075365007,0.0321679115,0.0100865960,-39.0870399475,85.1145172119,33.4495162964,0.0158981681,0.0275161266,0.0285443664,43.4499397278,42.3036193848,55.6446495056,0.0758913159,-0.0116646290,-0.0111528635,
89.233,-3.2857229710,1.4041628838,9.9485883713,0.0630790293,0.0465558842,0.0126873851,-92.7138671875,19.0680255890,91.2430801392,0.0024718046,0.0332071781,0.0125381351,-39.0773429871,85.1129531860,33.4667701721,0.0198020935,0.0270329118,0.0290027559,43.4500007629,42.3019332886,55.6511917114,0.0690336227,-0.0111905336,0.0005520582,
89.243,-3.2835719585,1.4041423798,9.9510126114,0.0581958629,0.0455418602,0.0043843389,-92.7160873413,19.0588741302,91.2443389893,-0.0025620162,0.0366752744,0.0140425563,-39.0909385681,85.1137619019,33.4615631104,0.0202915668,0.0245993435,0.0207253397,43.4490432739,42.2992439270,55.6557044983,0.0636277199,-0.0087619424,0.0049151182,
89.253,-3.2818837166,1.4060944319,9.9515247345,0.0553002357,0.0440475531,0.0073133111,-92.7202606201,19.0487003326,91.2463455200,0.0041060746,0.0386830568,0.0150904655,-39.1503295898,85.1178512573,33.4099044800,0.0227390528,0.0290213823,0.0096052289,43.4476013184,42.2988548279,55.6612014771,0.0665524006,-0.0136343241,-0.0087727308,
89.263,-3.2827229500,1.4062613249,9.9527139664,0.0596976765,0.0479684211,0.0121970177,-92.7293014526,19.0384273529,91.2462081909,0.0000303388,0.0333634019,0.0001054406,-39.1540489197,85.1178512573,33.4150238037,0.0281101465,0.0256079435,0.0281633139,43.4474525452,42.2965736389,55.6670417786,0.0714057684,-0.0068153739,-0.0004926920,
89.273,-3.2812206745,1.4075182676,9.9537811279,0.0621610135,0.0455008149,0.0078011155,-92.7352447510,19.0219993591,91.2488632202,0.0056186914,0.0354052186,0.0187625885,-39.1368598938,85.1180496216,33.4405860901,0.0207862258,0.0285148323,0.0237550735,43.4449043274,42.2981491089,55.6741714478,0.0655667782,-0.0150794983,-0.0039197206,
89.283,-3.2807729244,1.4069372416,9.9561405182,0.0626391619,0.0415867865,0.0141487122,-92.7399749756,19.0079040527,91.2545623779,0.0000149906,0.0354814529,0.0173798203,-39.1317176819,85.1222229004,33.4560623169,0.0207924247,0.0260228813,0.0179454386,43.4431304932,42.2981834412,55.6807823181,0.0670320988,-0.0092033148,-0.0010061860,
89.293,-3.2814877033,1.4048850536,9.9579496384,0.0655330420,0.0440406948,0.0136594176,-92.7447052002,18.9926204681,91.2595367432,0.0002510548,0.0306819677,0.0159965158,-39.1345825195,85.1223449707,33.4622077942,0.0232340097,0.0235848427,0.0267369449,43.4405822754,42.3008842468,55.6882362366,0.0597426891,-0.0164817572,-0.0039352179,
89.303,-3.2791912556,1.4066913128,9.9583921432,0.0601934567,0.0440006368,0.0102407336,-92.7472229004,18.9796333313,91.2668838501,-0.0043577850,0.0336830616,0.0145771503,-39.1643600464,85.1253204346,33.4394721985,0.0207970142,0.0274933875,0.0155761838,43.4397315979,42.3012924194,55.6938095093,0.0709784627,-0.0164705515,-0.0034508109,
89.313,-3.2806427479,1.4059872627,9.9589948654,0.0601811782,0.0459790714,0.0034053922,-92.7425155640,18.9655227661,91.2724456787,-0.0011727512,0.0259541869,0.0159683228,-39.1987571716,85.1286163330,33.4116897583,0.0208019018,0.0245695114,0.0141873956,43.4403457642,42.3015594482,55.7010154724,0.0665873289,-0.0111030340,-0.0000252724,
89.323,-3.2813496590,1.4056105614,9.9595632553,0.0591980442,0.0420851447,0.0082890987,-92.7336273193,18.9489192963,91.2796630859,0.0009946227,0.0309380293,0.0182673335,-39.2369918823,85.1313934326,33.3801422119,0.0237357020,0.0206789672,0.0103543997,43.4448204041,42.3010520935,55.7098579407,0.0709753633,-0.0048013330,-0.0112199187,
89.333,-3.2819297314,1.4045976400,9.9619398117,0.0616217777,0.0381890163,0.0034060478,-92.7288665771,18.9335231781,91.2835617065,-0.0026775301,0.0280992389,0.0050095320,-39.3230857849,85.1352157593,33.3000335693,0.0169054270,0.0197634399,0.0095108151,43.4481430054,42.3003883362,55.7178611755,0.0724315643,-0.0106973648,-0.0097319484,
89.343,-3.2794778347,1.4052181244,9.9630651474,0.0601677559,0.0444939509,0.0097517371,-92.7227935791,18.9174194336,91.2871093750,0.0029159784,0.0369840860,0.0083315372,-39.3326225281,85.1357040405,33.2989273071,0.0237420797,0.0246541500,0.0266135335,43.4517517090,42.3019218445,55.7266807556,0.0656154156,-0.0136485100,-0.0111513138,
89.353,-3.2796022892,1.4041633606,9.9642124176,0.0635673255,0.0420547426,0.0009624362,-92.7173309326,18.9037914276,91.2908401489,-0.0002387464,0.0404832363,0.0233818293,-39.3487243652,85.1380767822,33.2908630371,0.0217924714,0.0300160646,0.0173869729,43.4540863037,42.3018875122,55.7352027893,0.0636618733,-0.0136707425,-0.0121079683,
89.363,-3.2804923058,1.4051729441,9.9652624130,0.0630966574,0.0435350612,0.0097528100,-92.7230148315,18.8895721436,91.2933959961,0.0005030334,0.0493481159,0.0181083679,-39.3662452698,85.1400527954,33.2800941467,0.0164242983,0.0270891786,0.0262137949,43.4546318054,42.3006095886,55.7436485291,0.0626688004,-0.0117329359,-0.0067422390,
89.373,-3.2807738781,1.4055740833,9.9664201736,0.0587091260,0.0435399562,0.0073119402,-92.7308883667,18.8782825470,91.2978515625,-0.0045661628,0.0391517878,0.0187295675,-39.3948211670,85.1407318115,33.2588310242,0.0217964053,0.0276012123,0.0213714838,43.4500503540,42.3007507324,55.7462120056,0.0646238327,-0.0185248256,0.0015184879,
89.383,-3.2800924778,1.4058030844,9.9676008224,0.0592014007,0.0469460562,0.0038930178,-92.7387390137,18.8629112244,91.3014450073,0.0010393262,0.0328846574,0.0217928290,-39.4420852661,85.1436843872,33.2189178467,0.0208241940,0.0227448940,0.0175458491,43.4531326294,42.2985115051,55.7525711060,0.0728957057,-0.0068529248,-0.0033551455,
89.393,-3.2808387280,1.4075596333,9.9692344666,0.0606968924,0.0396347828,0.0126838684,-92.7501754761,18.8451595306,91.3051681519,0.0012343526,0.0402997136,0.0156388879,-39.4073410034,85.1450119019,33.2617874146,0.0227792859,0.0309889317,0.0341334045,43.4477233887,42.2979011536,55.7560310364,0.0665401220,-0.0180376768,0.0034269094,
89.403,-3.2815964222,1.4103182554,9.9689922333,0.0587919019,0.0376947932,0.0078032017,-92.7587966919,18.8249626160,91.3088836670,0.0043187439,0.0306409597,0.0275054574,-39.4166641235,85.1484451294,33.2580451965,0.0198546648,0.0280351043,0.0146535039,43.4462699890,42.2983932495,55.7608795166,0.0738707185,-0.0180200934,-0.0043942332,
89.413,-3.2821373940,1.4104595184,9.9683046341,0.0592826456,0.0406338982,0.0082916617,-92.7699432373,18.8145503998,91.3114700317,-0.0051305890,0.0350852013,0.0135320425,-39.4311637878,85.1464233398,33.2502784729,0.0237579346,0.0227017105,0.0331973732,43.4452972412,42.2976646423,55.7661018372,0.0616542697,-0.0121574402,0.0004741549,
89.423,-3.2804834843,1.4083967209,9.9688577652,0.0651060343,0.0396285765,0.0082896948,-92.7754898071,18.8060531616,91.3157272339,-0.0018530190,0.0380582213,0.0185086727,-39.4259109497,85.1461029053,33.2618904114,0.0154566765,0.0261165798,0.0292823017,43.4479713440,42.2958297729,55.7761840820,0.0718844533,-0.0097559690,-0.0073304772,
89.433,-3.2798390388,1.4076346159,9.9712448120,0.0631396025,0.0445001870,0.0102409124,-92.7767257690,18.8023529053,91.3172836304,-0.0024024546,0.0366132259,0.0195065737,-39.4696006775,85.1456985474,33.2265243530,0.0218037367,0.0193369091,0.0180882215,43.4534645081,42.2919883728,55.7873649597,0.0742763281,-0.0049556494,-0.0078028440,
89.443,-3.2803454399,1.4075602293,9.9730234146,0.0582554974,0.0406027585,0.0043827295,-92.7738952637,18.8017539978,91.3194656372,-0.0097365379,0.0346657038,0.0136005282,-39.4675140381,85.1451339722,33.2367439270,0.0213146210,0.0256868303,0.0288228989,43.4514846802,42.2884254456,55.7931404114,0.0722771287,-0.0093604922,0.0004500747,
89.453,-3.2788472176,1.4068202972,9.9736890793,0.0562894642,0.0454594940,0.0117049813,-92.7673416138,18.7990436554,91.3199310303,-0.0029454529,0.0332213044,0.0090987086,-39.4917373657,85.1456985474,33.2210388184,0.0183857679,0.0213164091,0.0220153034,43.4499015808,42.2905464172,55.7992248535,0.0654686093,-0.0137228370,-0.0093111992,
89.463,-3.2773482800,1.4083415270,9.9741678238,0.0587574095,0.0434802175,0.0014503002,-92.7607040405,18.7926044464,91.3203201294,0.0008544922,0.0313095450,0.0006902218,-39.5076560974,85.1500549316,33.2136497498,0.0159507990,0.0251945853,0.0157397389,43.4456100464,42.2915878296,55.8031082153,0.0640172362,-0.0175806284,-0.0015286207,
89.473,-3.2799980640,1.4062950611,9.9747934341,0.0606748275,0.0396201722,0.0058465600,-92.7518463135,18.7880115509,91.3175277710,0.0007785559,0.0386666059,0.0147053003,-39.4843254089,85.1506271362,33.2452316284,0.0188813210,0.0266245008,0.0259805918,43.4466323853,42.2937850952,55.8121261597,0.0655104518,-0.0122013092,-0.0078482032,
89.483,-3.2792584896,1.4050949812,9.9766044617,0.0621187389,0.0449784212,0.0024272799,-92.7481231689,18.7910137177,91.3103179932,-0.0016132295,0.0484182835,0.0063422918,-39.4699859619,85.1490859985,33.2697448730,0.0149728060,0.0261372626,0.0332687497,43.4448928833,42.2934684753,55.8185958862,0.0694125891,-0.0195117593,-0.0049363375,
89.493,-3.2799279690,1.4076570272,9.9776668549,0.0553274974,0.0401071981,0.0038939118,-92.7507095337,18.7986164093,91.2999114990,0.0009537637,0.0478852987,0.0093125701,-39.4988098145,85.1514739990,33.2509460449,0.0183942914,0.0271211267,0.0181925595,43.4434585571,42.2920341492,55.8239364624,0.0630464554,-0.0136504173,-0.0015432835,
89.503,-3.2791514397,1.4077218771,9.9776048660,0.0597231612,0.0430233553,0.0097525716,-92.7561950684,18.8043365479,91.2875289917,0.0015365481,0.0439427495,0.0206318498,-39.5122947693,85.1513519287,33.2469635010,0.0203472376,0.0271385014,0.0191802382,43.4449234009,42.2895050049,55.8317298889,0.0693613887,-0.0053840280,-0.0088768005,
89.513,-3.2784495354,1.4086252451,9.9793586731,0.0592506416,0.0469173566,0.0082873702,-92.7669296265,18.8131923676,91.2750015259,0.0021711886,0.0404663086,0.0085998774,-39.5034599304,85.1498184204,33.2631721497,0.0232746601,0.0203099549,0.0245208144,43.4416999817,42.2903327942,55.8345108032,0.0659541488,-0.0121828914,0.0003796816,
89.523,-3.2781689167,1.4080160856,9.9817848206,0.0602165721,0.0454476401,0.0034039021,-92.7768249512,18.8195934296,91.2628479004,0.0032534599,0.0370045900,0.0175504684,-39.4902572632,85.1524810791,33.2846565247,0.0218137503,0.0227050185,0.0181985199,43.4400062561,42.2913208008,55.8400154114,0.0679200292,-0.0131356716,-0.0025572181,
89.533,-3.2774777412,1.4091657400,9.9828643799,0.0607249141,0.0425058864,0.0175640583,-92.7816162109,18.8319931030,91.2535018921,-0.0058190227,0.0335130095,0.0215323567,-39.4350967407,85.1560440063,33.3449630737,0.0203541517,0.0323701799,0.0245355070,43.4412078857,42.2934303284,55.8461799622,0.0718535185,-0.0092235208,-0.0025277138,
89.543,-3.2789063454,1.4108214378,9.9832630157,0.0631952137,0.0415541716,0.0190309882,-92.7819671631,18.8477325439,91.2444534302,-0.0060473382,0.0353772640,0.0195808411,-39.4129524231,85.1557998657,33.3716621399,0.0208420753,0.0220898986,0.0181677341,43.4405670166,42.2928962708,55.8496665955,0.0694051981,-0.0053157210,-0.0020503998,
89.553,-3.2792313099,1.4110304117,9.9862308502,0.0597808883,0.0410715453,0.0082892776,-92.7756347656,18.8699970245,91.2350997925,-0.0086092949,0.0323270559,0.0131227374,-39.3812942505,85.1579437256,33.4106330872,0.0164507031,0.0308207870,0.0264630318,43.4429206848,42.2926673889,55.8559570313,0.0669608712,-0.0092458129,-0.0054491758,
89.563,-3.2756793499,1.4119009972,9.9873237610,0.0617492013,0.0439393409,0.0185399055,-92.7643661499,18.8961296082,91.2236633301,-0.0032948852,0.0375598073,0.0202536583,-39.3611450195,85.1604919434,33.4384880066,0.0203607082,0.0297925770,0.0264778435,43.4429779053,42.2931671143,55.8607749939,0.0684321523,-0.0107071400,-0.0025146008,
89.573,-3.2747311592,1.4121989012,9.9884796143,0.0612661168,0.0478290655,0.0087736249,-92.7492904663,18.9236011505,91.2095184326,-0.0052827299,0.0403461456,0.0195093751,-39.3707466125,85.1615066528,33.4366416931,0.0149911046,0.0214922726,0.0255236924,43.4426231384,42.2932815552,55.8668060303,0.0645273328,-0.0121678114,-0.0039818287,
89.583,-3.2761371136,1.4117826223,9.9890699387,0.0593057349,0.0439473130,0.0073096156,-92.7347869873,18.9546432495,91.1898117065,-0.0037937164,0.0396938324,0.0109607577,-39.3554458618,85.1631622314,33.4609336853,0.0203646421,0.0248744786,0.0240659118,43.4417304993,42.2906455994,55.8718528748,0.0747472048,-0.0136455894,-0.0064535737,
89.593,-3.2733767033,1.4123679399,9.9926424026,0.0607807897,0.0453640632,0.0097488165,-92.7175216675,18.9857501984,91.1717376709,-0.0023037493,0.0375778675,0.0209216475,-39.3293724060,85.1631622314,33.4954109192,0.0237826109,0.0238671899,0.0299002826,43.4413909912,42.2901191711,55.8793334961,0.0762052536,-0.0155997276,-0.0093907714,
89.603,-3.2724456787,1.4118314981,9.9944095612,0.0622362718,0.0433947332,0.0107242465,-92.7071762085,19.0167884827,91.1546173096,-0.0027680695,0.0471753478,0.0173249841,-39.2982711792,85.1618270874,33.5343246460,0.0228040814,0.0199387670,0.0259465873,43.4343948364,42.2908363342,55.8787803650,0.0723083019,-0.0135751367,0.0008075237,
89.613,-3.2703907490,1.4121819735,9.9968175888,0.0593127012,0.0472651683,0.0126751065,-92.7065734863,19.0470638275,91.1394424438,-0.0022685230,0.0401678085,0.0173067451,-39.2593917847,85.1634140015,33.5811538696,0.0247595310,0.0257359445,0.0239762664,43.4285087585,42.2951240540,55.8795204163,0.0616214871,-0.0169034004,-0.0001853704,
89.623,-3.2685873508,1.4134955406,9.9985542297,0.0578707755,0.0443040393,0.0102331042,-92.7116775513,19.0815830231,91.1229095459,-0.0056053996,0.0428972244,0.0183578134,-39.2200164795,85.1656799316,33.6260223389,0.0203683376,0.0246883333,0.0220157206,43.4266815186,42.2973632813,55.8831481934,0.0606737733,-0.0105205178,0.0007944703,
89.633,-3.2667825222,1.4165886641,9.9989929199,0.0574364588,0.0467139333,-0.0019749999,-92.7147445679,19.1181392670,91.1080169678,-0.0050024688,0.0338969231,0.0232819915,-39.1716423035,85.1667327881,33.6811332703,0.0179284811,0.0260866880,0.0278401971,43.4267272949,42.3012390137,55.8872985840,0.0577941537,-0.0095130801,-0.0040550232,
89.643,-3.2669167519,1.4147025347,10.0008516312,0.0622863658,0.0462280363,-0.0000223517,-92.7143630981,19.1597862244,91.0917892456,-0.0091986060,0.0365893245,0.0178925991,-39.1229591370,85.1682357788,33.7376136780,0.0154892802,0.0279648900,0.0200031400,43.4253616333,42.3034934998,55.8922805786,0.0612412691,-0.0104585886,-0.0001416206,
89.653,-3.2663221359,1.4145039320,10.0013961792,0.0608180575,0.0423114337,0.0112076998,-92.7078704834,19.2059879303,91.0738677979,-0.0035541952,0.0373060703,0.0109376907,-39.0839233398,85.1702117920,33.7851333618,0.0218398571,0.0308278501,0.0253624618,43.4234123230,42.3038139343,55.8966865540,0.0661281347,-0.0123909712,-0.0050390363,
89.663,-3.2682693005,1.4138277769,10.0043048859,0.0671539158,0.0418570824,0.0077912807,-92.6901092529,19.2521877289,91.0559539795,-0.0052342415,0.0385192633,0.0228399634,-39.0149688721,85.1661605835,33.8667488098,0.0232987404,0.0239550173,0.0369603038,43.4202919006,42.3041877747,55.9013252258,0.0661330223,-0.0118703246,0.0003075004,
89.673,-3.2699027061,1.4135901928,10.0067167282,0.0593372695,0.0428621061,0.0160934925,-92.6687622070,19.2932186127,91.0379714966,-0.0011402965,0.0290226936,0.0136877894,-38.9877738953,85.1649475098,33.9071578979,0.0232969522,0.0210043192,0.0232492387,43.4157257080,42.3054847717,55.9044380188,0.0676146150,-0.0142583847,-0.0036278367,
89.683,-3.2695987225,1.4130039215,10.0072879791,0.0598153248,0.0413919836,0.0048625469,-92.6427383423,19.3294677734,91.0234069824,-0.0020080805,0.0263918638,0.0195978880,-38.9268150330,85.1641387939,33.9767684937,0.0193895102,0.0214308500,0.0309905112,43.4083213806,42.3090171814,55.9051971436,0.0627773404,-0.0180668235,0.0046365261,
89.693,-3.2690298557,1.4123069048,10.0079126358,0.0602914467,0.0487063155,0.0073030591,-92.6211242676,19.3646926880,91.0108108521,-0.0058225095,0.0291343927,0.0060492158,-38.9024963379,85.1647872925,34.0064163208,0.0198787451,0.0140685141,0.0207259059,43.4088668823,42.3150444031,55.9105720520,0.0613902807,-0.0136286616,-0.0182555914,
89.703,-3.2728679180,1.4116131067,10.0083875656,0.0646738708,0.0375427157,0.0102362633,-92.5991592407,19.4011859894,91.0019073486,-0.0105927587,0.0387052894,0.0164203048,-38.8292274475,85.1646270752,34.0873680115,0.0179253817,0.0252163410,0.0274862945,43.4058685303,42.3199539185,55.9133796692,0.0634067655,-0.0179555416,-0.0031042099,
89.713,-3.2736518383,1.4099727869,10.0107364655,0.0680632144,0.0439040661,0.0029116869,-92.5843734741,19.4332523346,90.9938812256,-0.0046938658,0.0351125598,0.0049379468,-38.7912750244,85.1647033691,34.1321868896,0.0193903446,0.0246803761,0.0294075906,43.4075088501,42.3221435547,55.9206733704,0.0653882027,-0.0042812824,-0.0030706525,
89.723,-3.2727022171,1.4090732336,10.0131101608,0.0636529922,0.0433992669,0.0112116933,-92.5710067749,19.4631252289,90.9862060547,-0.0061553717,0.0393435955,0.0257065892,-38.7297592163,85.1655120850,34.2009468079,0.0203680992,0.0309483707,0.0327752531,43.4077911377,42.3242073059,55.9252204895,0.0619968772,-0.0115914345,-0.0020736456,
89.733,-3.2727682590,1.4091267586,10.0130605698,0.0597476736,0.0443769731,0.0092582107,-92.5643463135,19.4932193756,90.9738540649,-0.0066367388,0.0362436175,0.0182653666,-38.7025604248,85.1643829346,34.2352676392,0.0193898678,0.0255570412,0.0268751383,43.4107284546,42.3240242004,55.9326286316,0.0639476180,-0.0038080812,-0.0025379658,
89.743,-3.2730772495,1.4083011150,10.0135927200,0.0626629591,0.0414526947,0.0014463067,-92.5580978394,19.5208568573,90.9587402344,-0.0037406385,0.0331579447,0.0157135725,-38.6718330383,85.1622772217,34.2753372192,0.0218281746,0.0294477344,0.0277967453,43.4077720642,42.3260192871,55.9400062561,0.0639733672,-0.0174360275,0.0013594627,
89.753,-3.2737786770,1.4071321487,10.0160350800,0.0602011532,0.0419532210,0.0082815886,-92.5476226807,19.5500316620,90.9450454712,-0.0032607317,0.0369014740,0.0116280317,-38.6421356201,85.1635284424,34.3151893616,0.0262245536,0.0298874974,0.0272969902,43.4063835144,42.3253669739,55.9462394714,0.0673828721,-0.0081509352,-0.0040295720,
89.763,-3.2734668255,1.4053231478,10.0154533386,0.0596813112,0.0414595529,0.0082811117,-92.5342178345,19.5817852020,90.9306259155,-0.0105510354,0.0420973301,0.0167698860,-38.6359176636,85.1654357910,34.3316650391,0.0189031363,0.0254661143,0.0263387561,43.4037132263,42.3230857849,55.9524002075,0.0624706745,-0.0110740066,-0.0030962229,
89.773,-3.2733261585,1.4050824642,10.0166416168,0.0587005466,0.0429219492,0.0038863420,-92.5172348022,19.6169929504,90.9192733765,-0.0089956224,0.0428799391,0.0169705749,-38.6627197266,85.1656799316,34.3155517578,0.0179269314,0.0230533779,0.0244150162,43.4050254822,42.3250427246,55.9594306946,0.0654256344,-0.0135118961,-0.0079503059,
89.783,-3.2740437984,1.4056037664,10.0184335709,0.0562682375,0.0419578739,0.0073052049,-92.5010147095,19.6590480804,90.9064559937,-0.0112339854,0.0441100001,0.0118104815,-38.6511497498,85.1652679443,34.3371887207,0.0228091478,0.0284150243,0.0243987441,43.4041404724,42.3230514526,55.9656372070,0.0663764477,-0.0086369514,0.0081373453,
89.793,-3.2739496231,1.4060412645,10.0189580917,0.0606703982,0.0448859110,0.0092583895,-92.4849166870,19.7024440765,90.8938751221,-0.0027083158,0.0443549752,0.0154412389,-38.6338577271,85.1640548706,34.3653297424,0.0179245472,0.0259661376,0.0219245851,43.4038963318,42.3202476501,55.9727783203,0.0663402081,-0.0032861829,0.0056702495,
89.803,-3.2731966972,1.4071441889,10.0213098526,0.0587365180,0.0448727719,0.0102345943,-92.4702301025,19.7516689301,90.8759155273,-0.0018995702,0.0455405712,0.0039570928,-38.6139411926,85.1633300781,34.3979492188,0.0272008181,0.0220442712,0.0248253942,43.4043502808,42.3194007874,55.9818534851,0.0663293004,-0.0081800818,-0.0036102533,
89.813,-3.2757828236,1.4075421095,10.0235757828,0.0631379932,0.0375935920,0.0043779016,-92.4558486938,19.8083267212,90.8541183472,-0.0048753321,0.0510758162,0.0012652278,-38.5883750916,85.1600875854,34.4342346191,0.0213366747,0.0259542465,0.0262232423,43.4039573669,42.3177833557,55.9889030457,0.0697264671,-0.0106307268,-0.0016740561,
89.823,-3.2758018970,1.4066261053,10.0246896744,0.0650751367,0.0424767584,-0.0024582744,-92.4355239868,19.8703212738,90.8305435181,-0.0038575530,0.0468169451,0.0048223734,-38.5498352051,85.1600112915,34.4842224121,0.0223131180,0.0273738801,0.0266743600,43.3988342285,42.3208656311,55.9930953979,0.0648834705,-0.0183703303,-0.0075527430,
89.833,-3.2754347324,1.4076969624,10.0276050568,0.0611875728,0.0434468985,0.0121902823,-92.4086074829,19.9358005524,90.8050308228,0.0050295293,0.0459585786,0.0131535530,-38.5452194214,85.1615447998,34.4978942871,0.0252450705,0.0224685073,0.0174143314,43.3968009949,42.3227615356,55.9981155396,0.0668610334,-0.0105234981,-0.0036489964,
89.843,-3.2775552273,1.4070800543,10.0299501419,0.0626416504,0.0390893258,0.0107272267,-92.3768539429,20.0070800781,90.7781982422,-0.0001488924,0.0465325117,0.0082204938,-38.5000610352,85.1631240845,34.5512390137,0.0232942700,0.0248414278,0.0212960839,43.3932304382,42.3249893188,56.0009689331,0.0678663254,-0.0182844400,-0.0036609173,
89.853,-3.2819008827,1.4056921005,10.0305156708,0.0606643073,0.0357470885,0.0102426410,-92.3376922607,20.0865917206,90.7533340454,0.0060375631,0.0470602512,0.0060941577,-38.4744377136,85.1644592285,34.5826721191,0.0228079557,0.0223527551,0.0188524425,43.3858375549,42.3255157471,55.9993057251,0.0761739016,-0.0157694817,0.0040905476,
89.863,-3.2812905312,1.4062043428,10.0310001373,0.0626263693,0.0445255078,0.0112189054,-92.2908782959,20.1753139496,90.7306518555,-0.0056920946,0.0494885445,0.0155594349,-38.3960800171,85.1649475098,34.6680984497,0.0228086710,0.0256750882,0.0261051357,43.3857154846,42.3286933899,56.0039367676,0.0669375658,-0.0098832846,-0.0012545586,
89.873,-3.2816557884,1.4057674408,10.0327501297,0.0616421849,0.0411139131,0.0038948655,-92.2421951294,20.2757129669,90.7045211792,-0.0113720894,0.0528205633,0.0113212466,-38.3574371338,85.1646270752,34.7151069641,0.0184136629,0.0241664350,0.0226483941,43.3867721558,42.3327026367,56.0086669922,0.0621065497,-0.0118141174,-0.0065826178,
89.883,-3.2811129093,1.4051737785,10.0338468552,0.0640732348,0.0401279069,0.0004760027,-92.1938400269,20.3913784027,90.6748962402,-0.0133853853,0.0638691187,0.0192921162,-38.3153991699,85.1625137329,34.7669296265,0.0179222822,0.0231632590,0.0289263725,43.3907432556,42.3339157104,56.0177993774,0.0630986691,-0.0064704418,-0.0084897876,
89.893,-3.2802340984,1.4062269926,10.0343370438,0.0606736429,0.0454836637,0.0097529888,-92.1475143433,20.5174388885,90.6387710571,-0.0098590851,0.0631296039,0.0053218603,-38.2914772034,85.1578674316,34.8016014099,0.0242630839,0.0236681402,0.0347070694,43.3887252808,42.3337020874,56.0227851868,0.0635842085,-0.0098711848,0.0007677674,
89.903,-3.2792506218,1.4079618454,10.0360994339,0.0563093796,0.0479078963,0.0073113441,-92.1025924683,20.6602420807,90.5949630737,-0.0085025132,0.0696053505,0.0060205460,-38.2383155823,85.1580657959,34.8690185547,0.0257282257,0.0314179957,0.0253777802,43.3888969421,42.3331756592,56.0318794250,0.0709016323,-0.0128067732,-0.0026532412,
89.913,-3.2774977684,1.4096106291,10.0377864838,0.0587795526,0.0420179479,0.0082869530,-92.0471115112,20.8155975342,90.5484085083,-0.0035252571,0.0633074641,0.0143579841,-38.1719017029,85.1576156616,34.9498023987,0.0218213201,0.0259698331,0.0243367851,43.3880233765,42.3324203491,56.0397262573,0.0684504509,-0.0103632212,-0.0026670694,
89.923,-3.2770352364,1.4110877514,10.0406408310,0.0617350116,0.0395684429,0.0073105097,-91.9852905273,20.9836444855,90.4961547852,-0.0105508864,0.0613206625,0.0011065602,-38.0928573608,85.1553955078,35.0419692993,0.0218180418,0.0259015262,0.0261814892,43.3851356506,42.3318977356,56.0443153381,0.0655140281,-0.0083873272,-0.0017212033,
89.933,-3.2780570984,1.4100199938,10.0418682098,0.0597632602,0.0430042408,0.0131700039,-91.9127273560,21.1607532501,90.4452819824,-0.0057133436,0.0651331544,0.0033048987,-37.9986495972,85.1522064209,35.1476402283,0.0223016143,0.0180065036,0.0275200307,43.3803672791,42.3333969116,56.0477409363,0.0743224621,-0.0102835298,-0.0046799779,
89.943,-3.2770540714,1.4103133678,10.0436849594,0.0568386912,0.0459164456,-0.0000141263,-91.8284301758,21.3488979340,90.3936462402,-0.0085123479,0.0630112886,0.0092199445,-37.8714447021,85.1511077881,35.2887458801,0.0223000050,0.0212847590,0.0254309177,43.3704338074,42.3372650146,56.0445060730,0.0636301637,-0.0121122003,0.0099136829,
89.953,-3.2763755322,1.4121249914,10.0453758240,0.0583351441,0.0424866192,0.0121931434,-91.7371444702,21.5477371216,90.3360443115,-0.0047940016,0.0588594675,0.0096510053,-37.7235832214,85.1489715576,35.4469146729,0.0242499709,0.0201496482,0.0340580046,43.3678512573,42.3413009644,56.0478057861,0.0724712610,-0.0086374283,-0.0056998730,
89.963,-3.2780184746,1.4143745899,10.0445861816,0.0583743900,0.0410503335,0.0097543597,-91.6335983276,21.7652225494,90.2777633667,-0.0081020594,0.0623915792,0.0113479495,-37.5929145813,85.1498565674,35.5867805481,0.0222981572,0.0248685777,0.0222253799,43.3636512756,42.3459701538,56.0504455566,0.0691135526,-0.0129549503,-0.0066738725,
89.973,-3.2791361809,1.4147552252,10.0463352203,0.0588693172,0.0405815206,0.0063371658,-91.5259475708,22.0034027100,90.2118911743,-0.0061977208,0.0657736063,-0.0002036095,-37.4791946411,85.1495742798,35.7101860046,0.0159500837,0.0281490386,0.0191914141,43.3612365723,42.3503417969,56.0545120239,0.0652637482,-0.0080141425,-0.0027514696,
89.983,-3.2789461613,1.4153988361,10.0474882126,0.0579039864,0.0430195890,0.0087791681,-91.4053802490,22.2574100494,90.1408004761,-0.0040441453,0.0641540289,0.0056166053,-37.3324775696,85.1478805542,35.8696594238,0.0218069553,0.0265268087,0.0283060074,43.3579940796,42.3511466980,56.0577507019,0.0672271848,-0.0055358410,0.0016213059,
89.993,-3.2797508240,1.4156192541,10.0492086411,0.0618140772,0.0415687598,0.0131746531,-91.2812652588,22.5268001556,90.0626754761,-0.0001852512,0.0677815080,0.0069896579,-37.2165451050,85.1487655640,35.9965400696,0.0164371729,0.0229567587,0.0208911598,43.3560218811,42.3550148010,56.0626220703,0.0633708835,-0.0025565624,-0.0042232275,
90.003,-3.2813465595,1.4143780470,10.0503883362,0.0622806996,0.0411083065,0.0063391924,-91.1552429199,22.8167743683,89.9797744751,-0.0057691932,0.0810109377,0.0000359416,-37.0399627686,85.1478805542,36.1859893799,0.0237600803,0.0271483362,0.0290138423,43.3474578857,42.3594512939,56.0645980835,0.0658694506,-0.0141590834,0.0015989542,
90.013,-3.2808029652,1.4131104946,10.0527496338,0.0646999925,0.0420754366,0.0048739314,-91.0255584717,23.1246566772,89.8943176270,-0.0149819255,0.0838368535,0.0091421008,-36.8565368652,85.1452941895,36.3823165894,0.0198500156,0.0245070755,0.0273508728,43.3424224854,42.3634262085,56.0664253235,0.0717801452,-0.0087086558,-0.0042709112,
90.023,-3.2799463272,1.4137260914,10.0551214218,0.0603162050,0.0474315882,0.0063377023,-90.8986663818,23.4482707977,89.8107528687,-0.0112587810,0.0831032991,0.0065819621,-36.6504592896,85.1440887451,36.6001358032,0.0247310400,0.0252465606,0.0261665285,43.3313484192,42.3681259155,56.0630722046,0.0679344535,-0.0095433593,0.0034837723,
90.033,-3.2787375450,1.4147063494,10.0557126999,0.0544739291,0.0444808193,0.0092667341,-90.7695465088,23.7901363373,89.7262420654,-0.0101864338,0.0822080374,0.0171775222,-36.4362449646,85.1427154541,36.8280563354,0.0198462009,0.0264597535,0.0230289698,43.3187141418,42.3746910095,56.0601119995,0.0665542483,-0.0137665272,0.0029390454,
90.043,-3.2780511379,1.4127668142,10.0563449860,0.0602994710,0.0405626670,0.0058473945,-90.6427993774,24.1504383087,89.6409301758,-0.0088348687,0.0874910951,0.0180538297,-36.2287712097,85.1398849487,37.0527877808,0.0203303099,0.0218410194,0.0276820660,43.3091850281,42.3812255859,56.0588150024,0.0700564981,-0.0121594071,-0.0044127107,
90.053,-3.2777483463,1.4137328863,10.0556297302,0.0583631955,0.0415339246,0.0029175282,-90.5184478760,24.5353374481,89.5483627319,-0.0100385547,0.0881608129,0.0111644864,-36.0156745911,85.1379547119,37.2792816162,0.0164211988,0.0206201375,0.0206300318,43.3034706116,42.3875503540,56.0602684021,0.0642786622,-0.0086368918,-0.0053863525,
90.063,-3.2780590057,1.4156069756,10.0566797256,0.0598607399,0.0434924178,0.0038958788,-90.3858337402,24.9394092560,89.4509429932,-0.0114458501,0.0759492517,0.0017143488,-35.7746658325,85.1330413818,37.5389747620,0.0237381458,0.0252534747,0.0359724760,43.2944679260,42.3927993774,56.0604019165,0.0638580322,-0.0080215931,-0.0010257363,
90.073,-3.2771055698,1.4146729708,10.0566797256,0.0588678792,0.0415227078,0.0078002810,-90.2374572754,25.3612346649,89.3455429077,-0.0047816038,0.0777162313,0.0022823215,-35.5352401733,85.1326446533,37.7944450378,0.0300852060,0.0210527182,0.0176898241,43.2836570740,42.3981361389,56.0589675903,0.0727158785,-0.0103186369,0.0013651252,
90.083,-3.2772009373,1.4140938520,10.0559873581,0.0617874674,0.0400595367,0.0078002214,-90.0713958740,25.7938766479,89.2326660156,0.0000763237,0.0783697367,0.0050296783,-35.2165069580,85.1303863525,38.1301002502,0.0286170244,0.0240970254,0.0266522765,43.2713127136,42.4063262939,56.0552825928,0.0708683133,-0.0125780702,-0.0050212145,
90.093,-3.2774336338,1.4136528969,10.0559844971,0.0573852398,0.0415284522,0.0156127214,-89.8975296021,26.2344322205,89.1133041382,-0.0110800266,0.0666962862,-0.0001389384,-34.8912010193,85.1275711060,38.4713249207,0.0222651958,0.0212734640,0.0282855034,43.2583999634,42.4175376892,56.0508270264,0.0710127950,-0.0128546357,-0.0050387383,
90.103,-3.2763986588,1.4141471386,10.0552854538,0.0603235513,0.0439518131,0.0121940374,-89.7139282227,26.6819686890,88.9875106812,-0.0075051188,0.0632066727,-0.0049498677,-34.4856719971,85.1287384033,38.8946228027,0.0237317681,0.0319833457,0.0294133723,43.2473983765,42.4306755066,56.0477790833,0.0653226972,-0.0141103864,-0.0045356750,
90.113,-3.2744932175,1.4148217440,10.0564699173,0.0578939132,0.0468482934,0.0117040277,-89.5283966064,27.1393013000,88.8540878296,-0.0052703619,0.0756886601,0.0043926239,-34.1376190186,85.1278533936,39.2595825195,0.0183593631,0.0266698301,0.0271478295,43.2339782715,42.4394226074,56.0430603027,0.0737361312,-0.0070778131,-0.0006721616,
90.123,-3.2747087479,1.4160875082,10.0582237244,0.0559628755,0.0414809249,0.0126814246,-89.3392257690,27.6092491150,88.7176971436,-0.0165413618,0.0587053299,0.0039385557,-33.7611961365,85.1254806519,39.6528282166,0.0159144402,0.0315850079,0.0248419046,43.2225341797,42.4526939392,56.0414772034,0.0636531115,-0.0122345686,-0.0011481643,
90.133,-3.2722518444,1.4183131456,10.0586290359,0.0608845204,0.0424146354,0.0107267499,-89.1439895630,28.0897560120,88.5779190063,-0.0149856806,0.0625610352,0.0131840110,-33.4266471863,85.1229095459,40.0052490234,0.0120043755,0.0277637243,0.0225716829,43.2116050720,42.4633445740,56.0409240723,0.0676965714,-0.0159522295,-0.0040822625,
90.143,-3.2721173763,1.4178458452,10.0591449738,0.0638060570,0.0429005809,0.0082849860,-88.9549407959,28.5704689026,88.4288330078,-0.0007646382,0.0868526697,0.0074154139,-33.1242370605,85.1205368042,40.3250694275,0.0237196088,0.0244694948,0.0217955410,43.2015419006,42.4730339050,56.0385284424,0.0653798580,-0.0065022707,0.0003068447,
90.153,-3.2715921402,1.4207364321,10.0614404678,0.0565322712,0.0463093258,0.0029147267,-88.7709121704,29.0523757935,88.2800674438,-0.0099965334,0.0754206181,0.0198177695,-32.7597465515,85.1177749634,40.7101440430,0.0242037773,0.0240259767,0.0243838727,43.1928329468,42.4821548462,56.0377464294,0.0737980604,-0.0039056540,-0.0026218295,
90.163,-3.2718102932,1.4183551073,10.0619964600,0.0682094693,0.0438717827,0.0043783188,-88.6076126099,29.5350131989,88.1295013428,-0.0124157071,0.0761266947,0.0159614682,-32.4439926147,85.1146469116,41.0446815491,0.0227342844,0.0192525685,0.0191959441,43.1847152710,42.4953498840,56.0370903015,0.0695734024,-0.0051876903,-0.0113682151,
90.173,-3.2731075287,1.4198350906,10.0618791580,0.0570048243,0.0399880931,0.0131699443,-88.4611206055,30.0113468170,87.9815902710,-0.0066643953,0.0812208652,0.0114067197,-32.0794601440,85.1091918945,41.4290161133,0.0256558657,0.0183388591,0.0281010270,43.1760711670,42.5071601868,56.0361671448,0.0721667409,-0.0152654052,-0.0079257488,
90.183,-3.2743515968,1.4193015099,10.0642395020,0.0623666123,0.0400097780,0.0112170577,-88.3137893677,30.4835929871,87.8366775513,-0.0083333850,0.0735911131,0.0132081509,-31.7368488312,85.1075897217,41.7925262451,0.0188175440,0.0213266611,0.0194963813,43.1658630371,42.5215988159,56.0340843201,0.0664930940,-0.0106585026,-0.0098438859,
90.193,-3.2741541862,1.4192039967,10.0659646988,0.0648063123,0.0473305583,0.0058462620,-88.1638565063,30.9562797546,87.6917572021,-0.0232138038,0.0800521970,-0.0060008764,-31.3331832886,85.1046295166,42.2155990601,0.0378561020,0.0379123688,0.0308531821,43.1611480713,42.5344352722,56.0356750488,0.0715410113,-0.0085575581,-0.0112398863,
90.203,-3.2753746510,1.4204897881,10.0694665909,0.0604342148,0.0400275663,0.0087777376,-88.0207824707,31.4270343781,87.5456390381,-0.0191150308,0.0610807538,0.0076298714,-30.9765071869,85.1012725830,42.5934982300,0.0207612514,0.0252668560,0.0251487195,43.1518173218,42.5483055115,56.0328712463,0.0604889393,-0.0059167743,-0.0097383857,
90.213,-3.2746369839,1.4183863401,10.0706396103,0.0677217394,0.0448975824,0.0131705403,-87.8832778931,31.8967247009,87.3999862671,-0.0175085664,0.0620791912,0.0150191784,-30.6286697388,85.0979080200,42.9630966187,0.0236859322,0.0238602459,0.0248263478,43.1426277161,42.5624961853,56.0315132141,0.0655542016,-0.0130401850,-0.0038372278,
90.223,-3.2739951611,1.4203593731,10.0722627640,0.0618967861,0.0424449481,0.0073112845,-87.7481536865,32.3628654480,87.2506942749,-0.0130603909,0.0659810305,0.0122112632,-30.2736091614,85.0941925049,43.3379287720,0.0187975764,0.0273265541,0.0220565796,43.1337013245,42.5743255615,56.0304107666,0.0627765656,-0.0143257380,-0.0057668686,
90.233,-3.2722330093,1.4204136133,10.0722465515,0.0575032011,0.0443673767,0.0063331723,-87.6134796143,32.8222732544,87.0983276367,-0.0082580447,0.0591450930,0.0021055341,-29.9255771637,85.0887222290,43.7064933777,0.0231839418,0.0230038166,0.0236603022,43.1221733093,42.5880355835,56.0283432007,0.0663707256,-0.0199664235,-0.0072150230,
90.243,-3.2715320587,1.4196237326,10.0734176636,0.0628605112,0.0448434688,0.0068203211,-87.4819488525,33.2739448547,86.9434814453,-0.0148338675,0.0694168210,0.0008547902,-29.5918674469,85.0799179077,44.0596656799,0.0265887380,0.0148164928,0.0354876816,43.1127090454,42.5995445251,56.0272064209,0.0684716702,-0.0056245923,-0.0091519952,
90.253,-3.2711775303,1.4219031334,10.0751056671,0.0565526299,0.0414192677,0.0077975392,-87.3618850708,33.7215881348,86.7859115601,-0.0161311626,0.0796802640,0.0012553334,-29.2191352844,85.0775680542,44.4525985718,0.0187727213,0.0309385955,0.0224713385,43.1021919250,42.6107101440,56.0259361267,0.0627557635,-0.0093420148,-0.0028003454,
90.263,-3.2719135284,1.4228024483,10.0774755478,0.0570565984,0.0419203453,0.0024275184,-87.2487869263,34.1675186157,86.6266555786,-0.0057684183,0.0913764238,0.0095890164,-28.9058036804,85.0711288452,44.7883949280,0.0192513466,0.0232424438,0.0260518789,43.0957641602,42.6190299988,56.0293655396,0.0648157597,-0.0038434267,-0.0027849674,
90.273,-3.2699658871,1.4240586758,10.0798292160,0.0580550805,0.0448160768,0.0058441758,-87.1341781616,34.6149559021,86.4618225098,-0.0188554525,0.0658950806,0.0071789026,-28.6481895447,85.0662765503,45.0680999756,0.0172909498,0.0253747106,0.0160220563,43.0879974365,42.6290893555,56.0328559875,0.0576207638,-0.0100370049,-0.0003248453,
90.283,-3.2706990242,1.4253474474,10.0809135437,0.0600306913,0.0418991260,0.0117049217,-87.0131530762,35.0605468750,86.2859649658,-0.0095425844,0.0765073299,0.0100684166,-28.3817844391,85.0590209961,45.3559989929,0.0177683234,0.0328824520,0.0318332911,43.0805740356,42.6353378296,56.0371818542,0.0645368695,-0.0123584270,0.0025935769,
90.293,-3.2725877762,1.4235682487,10.0826969147,0.0643941760,0.0399789512,0.0092645288,-86.8973007202,35.5057067871,86.1021728516,-0.0027120709,0.1007479429,0.0032869577,-28.1386966705,85.0516052246,45.6221961975,0.0255696774,0.0228444934,0.0222671032,43.0722198486,42.6402893066,56.0385398865,0.0714364052,-0.0122399926,-0.0003666282,
90.303,-3.2725324631,1.4230903387,10.0857124329,0.0599913113,0.0424194075,0.0068228841,-86.7805786133,35.9434394836,85.9159469604,-0.0072519183,0.0761840343,0.0013929605,-27.8658905029,85.0411605835,45.9157218933,0.0221359730,0.0196234286,0.0287491083,43.0657234192,42.6453208923,56.0407409668,0.0671064854,-0.0067673326,0.0010849237,
