Time(sec),Gyr1_X(deg/sec),Gyr1_Y(deg/sec),Gyr1_Z(deg/sec),Acc1_X(m/s^2),Acc1_Y(m/s^2),Acc1_Z(m/s^2),Gyr2_X(deg/sec),Gyr2_Y(deg/sec),Gyr2_Z(deg/sec),Acc2_X(m/s^2),Acc2_Y(m/s^2),Acc2_Z(m/s^2),Gyr_X(deg/sec),Gyr_Y(deg/sec),Gyr_Z(deg/sec),Acc_X(m/s^2),Acc_Y(m/s^2),Acc_Z(m/s^2),Gyr_X(deg/sec),Gyr_Y(deg/sec),Gyr_Z(deg/sec),Acc_X(m/s^2),Acc_Y(m/s^2),Acc_Z(m/s^2),
282.563,-3.3167550564,1.3897174597,32.2026824951,0.0638035461,0.0436788313,0.0024586320,-111.4761810303,73.5715026855,68.7538681030,0.0299742222,0.0531277657,-0.0113416910,-14.1922435760,84.0437850952,-145.1045379639,0.0238983631,0.0298580229,0.0238482356,42.7499542236,43.2774505615,-178.0302581787,0.0663912296,-0.0035782456,-0.0054337382,
282.573,-3.3182544708,1.3902728558,32.2037506104,0.0628366768,0.0412635244,0.0175964832,-111.4916992188,73.5695190430,68.7403869629,0.0328941345,0.0501994193,-0.0068634748,-14.1752185822,84.0423049927,-145.0824279785,0.0229191184,0.0259282589,0.0282065272,42.7510604858,43.2785110474,-178.0245056152,0.0722641349,-0.0084628463,-0.0063920021,
282.583,-3.3181722164,1.3914564848,32.2042388916,0.0579745173,0.0427269079,0.0068549514,-111.5059814453,73.5677413940,68.7281188965,0.0260493755,0.0506896377,-0.0043452978,-14.1596574783,84.0433578491,-145.0609893799,0.0214561820,0.0258953869,0.0208957195,42.7507743835,43.2789726257,-178.0206756592,0.0649458170,-0.0089446306,-0.0024837255,
282.593,-3.3182446957,1.3921334743,32.2047576904,0.0574980490,0.0422398709,0.0034374595,-111.5292663574,73.5639495850,68.7065124512,0.0357962847,0.0560781360,-0.0100741386,-14.1427831650,84.0425949097,-145.0383758545,0.0219430923,0.0268448293,0.0252702236,42.7500038147,43.2791709900,-178.0164642334,0.0669013858,-0.0084475875,-0.0010236502,
282.603,-3.3178272247,1.3919271231,32.2053108215,0.0604241341,0.0461388528,-0.0009574890,-111.5463943481,73.5570678711,68.6924896240,0.0372271538,0.0546880960,-0.0109295249,-14.1189126968,84.0412826538,-145.0068511963,0.0243821144,0.0253425837,0.0232850313,42.7489280701,43.2774848938,-178.0109558105,0.0727393627,-0.0123574734,-0.0054423213,
282.613,-3.3188397884,1.3931900263,32.2057342529,0.0619110130,0.0432267748,0.0049035549,-111.5791549683,73.5496368408,68.6636123657,0.0313310623,0.0566973388,-0.0112211108,-14.0993986130,84.0381546021,-144.9804077148,0.0233998895,0.0262971222,0.0373848081,42.7453994751,43.2771606445,-178.0067138672,0.0663876534,-0.0152568221,-0.0020576715,
282.623,-3.3179163933,1.3948447704,32.2056045532,0.0585219152,0.0456520580,0.0122274160,-111.5963134766,73.5427856445,68.6501083374,0.0352034569,0.0518894792,-0.0023108125,-14.1093158722,84.0353622437,-144.9844512939,0.0273010731,0.0199789107,0.0309953094,42.7419891357,43.2746467590,-178.0045776367,0.0678204894,-0.0084095001,0.0071682930,
282.633,-3.3169608116,1.3959786892,32.2061080933,0.0580534227,0.0436822586,0.0039261580,-111.6075592041,73.5322723389,68.6407165527,0.0297803283,0.0500791967,-0.0017060041,-14.0949316025,84.0363464355,-144.9618988037,0.0263262987,0.0282497406,0.0231927037,42.7442474365,43.2746810913,-177.9973297119,0.0697740912,-0.0113598704,-0.0103900433,
282.643,-3.3175439835,1.3958857059,32.2065505981,0.0648877397,0.0402744487,0.0146687627,-111.6298446655,73.5236587524,68.6198425293,0.0365736485,0.0555433929,-0.0069212914,-14.1011943817,84.0321121216,-144.9598388672,0.0258303285,0.0209544003,0.0343557596,42.7452049255,43.2754478455,-177.9893035889,0.0624595881,-0.0089212656,0.0003671646,
282.653,-3.3180267811,1.3952187300,32.2083206177,0.0624346957,0.0471188091,0.0034386516,-111.6553726196,73.5136642456,68.5972671509,0.0316413641,0.0507685840,-0.0150425434,-14.1196928024,84.0324096680,-144.9705047607,0.0258308649,0.0180567801,0.0226499438,42.7437515259,43.2765884399,-177.9844207764,0.0649154782,-0.0113399625,-0.0045188069,
282.663,-3.3186516762,1.3973610401,32.2106094360,0.0595423877,0.0485944897,0.0146706104,-111.6721420288,73.5061340332,68.5837936401,0.0276978016,0.0523191094,-0.0061295629,-14.1248579025,84.0330047607,-144.9680175781,0.0233905315,0.0229464173,0.0231501460,42.7404670715,43.2748222351,-177.9805297852,0.0658695698,-0.0108351707,0.0076453686,
282.673,-3.3196210861,1.3959697485,32.2117881775,0.0629360825,0.0432403162,0.0097881556,-111.6899185181,73.4967803955,68.5699539185,0.0330225229,0.0582914054,-0.0103843808,-14.1260337830,84.0324401855,-144.9622497559,0.0229012370,0.0273453593,0.0250946283,42.7364692688,43.2745628357,-177.9775085449,0.0668428540,-0.0127532780,0.0066308975,
282.683,-3.3203296661,1.3930330276,32.2130355835,0.0638613999,0.0442292877,0.0044167042,-111.7045364380,73.4902877808,68.5597457886,0.0271309614,0.0564121008,-0.0083236694,-14.1213798523,84.0325698853,-144.9499359131,0.0263194442,0.0239186585,0.0231409073,42.7360382080,43.2762603760,-177.9706573486,0.0663761497,-0.0122469664,-0.0036107302,
282.693,-3.3217518330,1.3917000294,32.2136001587,0.0623732992,0.0418126918,0.0034409165,-111.7211761475,73.4861068726,68.5475540161,0.0280867815,0.0583994389,-0.0091974139,-14.1117496490,84.0337524414,-144.9333343506,0.0268098712,0.0263377428,0.0260863304,42.7366943359,43.2808380127,-177.9633483887,0.0620397925,-0.0112396479,-0.0113784075,
282.703,-3.3240628242,1.3913035393,32.2141609192,0.0594366938,0.0428295098,0.0132086277,-111.7251739502,73.4818725586,68.5489349365,0.0275775194,0.0574805140,0.0011011362,-14.1208724976,84.0368728638,-144.9341278076,0.0263272524,0.0238994062,0.0139365196,42.7334938049,43.2792053223,-177.9600372314,0.0727612376,-0.0121994019,0.0027407408,
282.713,-3.3223166466,1.3883665800,32.2154197693,0.0662213862,0.0506116711,0.0097876787,-111.7422332764,73.4798507690,68.5365524292,0.0309854150,0.0574808419,-0.0041785240,-14.1346187592,84.0362167358,-144.9401702881,0.0194901228,0.0209971070,0.0290685296,42.7306289673,43.2781181335,-177.9558868408,0.0668880343,-0.0131581128,0.0036823153,
282.723,-3.3238985538,1.3894289732,32.2159461975,0.0540328920,0.0369673260,0.0039302707,-111.7620086670,73.4745025635,68.5211639404,0.0294940472,0.0541092455,-0.0113782287,-14.1557893753,84.0358276367,-144.9542694092,0.0199776888,0.0225017965,0.0212581158,42.7301101685,43.2774658203,-177.9502105713,0.0693211555,-0.0126702189,-0.0007218719,
282.733,-3.3234815598,1.3880234957,32.2177658081,0.0608443059,0.0437960364,0.0063706636,-111.7685775757,73.4750213623,68.5183639526,0.0309614539,0.0599487722,0.0057388544,-14.1754817963,84.0374679565,-144.9644622803,0.0214455128,0.0235068798,0.0188524723,42.7334671021,43.2796020508,-177.9414367676,0.0615357757,-0.0078014433,-0.0026277304,
282.743,-3.3231072426,1.3854190111,32.2196006775,0.0651933998,0.0457427055,0.0102755427,-111.7755355835,73.4742736816,68.5164413452,0.0309577584,0.0535997748,0.0028459430,-14.1424989700,84.0355987549,-144.9240570068,0.0214421153,0.0322445035,0.0305258036,42.7330284119,43.2806472778,-177.9337463379,0.0649670362,-0.0097419620,-0.0050633550,
282.753,-3.3258566856,1.3850861788,32.2194671631,0.0651875883,0.0457906052,0.0039305687,-111.7965545654,73.4726562500,68.5002059937,0.0314379930,0.0540743470,-0.0092537403,-14.1410789490,84.0351638794,-144.9149932861,0.0292538404,0.0244312584,0.0241702199,42.7319793701,43.2807846069,-177.9283294678,0.0693633556,-0.0102193356,-0.0119069815,
282.763,-3.3275008202,1.3860324621,32.2217826843,0.0593447238,0.0428895354,0.0117450356,-111.8040237427,73.4731826782,68.4992141724,0.0333937407,0.0599118471,0.0034728646,-14.1495075226,84.0346755981,-144.9133605957,0.0243701339,0.0259134173,0.0202590227,42.7331008911,43.2815284729,-177.9216613770,0.0635133982,-0.0102237761,-0.0001721978,
282.773,-3.3263063431,1.3889811039,32.2228889465,0.0520719513,0.0443335027,0.0122333169,-111.8283004761,73.4763488770,68.4823074341,0.0299915075,0.0607944727,-0.0081532598,-14.1480140686,84.0345077515,-144.9017791748,0.0224167109,0.0234699249,0.0285568237,42.7335929871,43.2803115845,-177.9163513184,0.0674042106,-0.0102382302,-0.0021318793,
282.783,-3.3259217739,1.3901214600,32.2240715027,0.0559980981,0.0501861461,0.0029560924,-111.8360366821,73.4774398804,68.4817199707,0.0260906219,0.0578336716,0.0016414523,-14.1551694870,84.0364837646,-144.9013824463,0.0229085684,0.0254277587,0.0290805697,42.7363128662,43.2791366577,-177.9076995850,0.0693423748,-0.0092966259,-0.0089547634,
282.793,-3.3240461349,1.3927012682,32.2239341736,0.0550665483,0.0447823144,0.0053966045,-111.8559036255,73.4758605957,68.4695281982,0.0290125012,0.0563566089,-0.0036280751,-14.1604433060,84.0374679565,-144.8983917236,0.0229103565,0.0234798491,0.0281233191,42.7355079651,43.2775459290,-177.9024047852,0.0688338876,-0.0132082999,-0.0050693154,
282.803,-3.3229546547,1.3915057182,32.2245559692,0.0599285029,0.0462281778,0.0083247423,-111.8625640869,73.4743118286,68.4707717896,0.0294930935,0.0558799803,0.0003185272,-14.1752834320,84.0370101929,-144.9037170410,0.0224212408,0.0235083997,0.0217747092,42.7374687195,43.2771606445,-177.8948364258,0.0663875937,-0.0093234479,-0.0006612539,
282.813,-3.3221211433,1.3933918476,32.2257118225,0.0536137559,0.0452370532,0.0107662082,-111.8823318481,73.4726715088,68.4602355957,0.0289966464,0.0597750545,-0.0064156651,-14.1637783051,84.0363235474,-144.8820800781,0.0224199891,0.0244671106,0.0227351785,42.7346878052,43.2766113281,-177.8907318115,0.0663806200,-0.0088136792,-0.0006901026,
282.823,-3.3193438053,1.3936543465,32.2262496948,0.0609425530,0.0500714779,-0.0004669428,-111.8970565796,73.4705657959,68.4552078247,0.0348455906,0.0534326434,-0.0034048557,-14.1625881195,84.0370101929,-144.8700866699,0.0292571783,0.0200679898,0.0232322216,42.7340927124,43.2752037048,-177.8862609863,0.0668509603,-0.0112610459,0.0041751266,
282.833,-3.3192772865,1.3924183846,32.2273597717,0.0662920773,0.0427461304,0.0000202656,-111.9085922241,73.4677810669,68.4501953125,0.0328786373,0.0529658198,-0.0023577213,-14.1582183838,84.0381240845,-144.8587036133,0.0243763924,0.0244499147,0.0261788964,42.7335166931,43.2781715393,-177.8798370361,0.0624942183,-0.0146493316,-0.0070338249,
282.843,-3.3193564415,1.3947434425,32.2296104431,0.0565670282,0.0398177654,0.0092993975,-111.9236297607,73.4645996094,68.4412689209,0.0270034671,0.0495693684,-0.0008034706,-14.1856470108,84.0375366211,-144.8769836426,0.0248636007,0.0147355199,0.0266718268,42.7317619324,43.2799224854,-177.8746337891,0.0644695163,-0.0151071548,-0.0011744499,
282.853,-3.3201298714,1.3949532509,32.2319679260,0.0595003739,0.0417843610,0.0034400821,-111.9343566895,73.4614944458,68.4357223511,0.0338239670,0.0481325984,-0.0031757951,-14.1619453430,84.0361251831,-144.8450927734,0.0199782252,0.0273946822,0.0246825218,42.7326393127,43.2818756104,-177.8680267334,0.0610764027,-0.0126580298,-0.0055441260,
282.863,-3.3214395046,1.3935717344,32.2330322266,0.0692418963,0.0442486107,0.0073478818,-111.9473419189,73.4595413208,68.4253540039,0.0260017514,0.0559512377,-0.0006621480,-14.1743917465,84.0376663208,-144.8508758545,0.0258404016,0.0166682303,0.0188548565,42.7335548401,43.2811698914,-177.8631439209,0.0693682432,-0.0116957426,-0.0045658946,
282.873,-3.3214530945,1.3936185837,32.2334976196,0.0643598959,0.0422957279,0.0136950612,-111.9621276855,73.4569091797,68.4145660400,0.0303832293,0.0549877882,-0.0035071373,-14.1601896286,84.0386810303,-144.8290557861,0.0248656869,0.0259158909,0.0232597589,42.7301597595,43.2813682556,-177.8595275879,0.0630230904,-0.0160570145,-0.0026403666,
282.883,-3.3215122223,1.3925564289,32.2340507507,0.0614116788,0.0422967821,0.0029525757,-111.9680938721,73.4504394531,68.4135971069,0.0298627615,0.0453112721,0.0004670620,-14.1311912537,84.0391769409,-144.7919006348,0.0229134560,0.0287916362,0.0266723633,42.7322006226,43.2832031250,-177.8528900146,0.0669526458,-0.0106900334,-0.0070009828,
282.893,-3.3211207390,1.3904113770,32.2346534729,0.0633273795,0.0437548608,0.0102757812,-111.9797058105,73.4472579956,68.4040832520,0.0308235288,0.0570576191,-0.0009241700,-14.1281614304,84.0372390747,-144.7812805176,0.0209568143,0.0258644223,0.0281044841,42.7321891785,43.2830581665,-177.8459320068,0.0669507980,-0.0092263818,-0.0065146089,
282.903,-3.3207013607,1.3912167549,32.2345008850,0.0613882989,0.0417944044,0.0088104010,-111.9873580933,73.4427032471,68.3988800049,0.0225000978,0.0556482673,0.0025578141,-14.1341629028,84.0372695923,-144.7802276611,0.0224217176,0.0219689012,0.0271306634,42.7370948792,43.2837867737,-177.8377380371,0.0650069714,-0.0014535487,-0.0050001144,
282.913,-3.3205616474,1.3920376301,32.2344017029,0.0570080951,0.0408153906,0.0078343153,-112.0018844604,73.4378585815,68.3885421753,0.0298001766,0.0517904758,-0.0061339140,-14.1209039688,84.0359573364,-144.7605438232,0.0229076147,0.0253684223,0.0266152620,42.7349166870,43.2828254700,-177.8333435059,0.0698775053,-0.0092537403,0.0003425479,
282.923,-3.3212985992,1.3916290998,32.2367477417,0.0618837774,0.0418047979,0.0097880960,-112.0091094971,73.4341735840,68.3849716187,0.0288053155,0.0528105199,0.0036882162,-14.1239652634,84.0351028442,-144.7565460205,0.0258357525,0.0244007707,0.0212320685,42.7359046936,43.2822570801,-177.8260345459,0.0693820715,-0.0117087960,-0.0020944476,
282.933,-3.3218514919,1.3935791254,32.2384452820,0.0599646792,0.0510917194,0.0107660294,-112.0153274536,73.4300384521,68.3818130493,0.0307378769,0.0538390279,0.0037429333,-14.1431493759,84.0342483521,-144.7680358887,0.0233927965,0.0210207999,0.0265976787,42.7388801575,43.2829818726,-177.8191680908,0.0689029694,-0.0078246295,-0.0049926043,
282.943,-3.3216810226,1.3967602253,32.2376708984,0.0551373698,0.0452293009,0.0107672215,-112.0255508423,73.4244384766,68.3736724854,0.0316865444,0.0553716421,-0.0005692840,-14.1441488266,84.0373077393,-144.7613983154,0.0292577147,0.0263810456,0.0168826580,42.7426452637,43.2853164673,-177.8103942871,0.0655146837,-0.0117469430,-0.0098221898,
282.953,-3.3234047890,1.3996090889,32.2393875122,0.0522573888,0.0428178571,0.0014923811,-112.0399780273,73.4211196899,68.3623352051,0.0228809714,0.0597905517,-0.0058526993,-14.1493225098,84.0376663208,-144.7601623535,0.0238872766,0.0244355500,0.0256806016,42.7416610718,43.2848129272,-177.8044891357,0.0630668402,-0.0107653439,-0.0025109053,
282.963,-3.3245019913,1.4025278091,32.2405204773,0.0498669073,0.0428368896,0.0058895946,-112.0489044189,73.4190368652,68.3574752808,0.0292182565,0.0627355576,0.0025022626,-14.1596431732,84.0371093750,-144.7615661621,0.0204682946,0.0205505788,0.0251856446,42.7403488159,43.2848701477,-177.7997283936,0.0723449588,-0.0136822760,-0.0005685687,
282.973,-3.3248538971,1.4028321505,32.2410125732,0.0611026883,0.0433312990,0.0083316565,-112.0678787231,73.4113845825,68.3454818726,0.0350394845,0.0574471354,-0.0105453134,-14.1525793076,84.0371780396,-144.7468719482,0.0248629451,0.0268848538,0.0232325196,42.7391662598,43.2872505188,-177.7941894531,0.0650509596,-0.0107222199,0.0013952851,
282.983,-3.3245685101,1.4038826227,32.2439651489,0.0591678917,0.0452794284,0.0137024522,-112.0807723999,73.4077606201,68.3381576538,0.0272089243,0.0604086518,-0.0041151047,-14.1658840179,84.0379943848,-144.7507019043,0.0238878727,0.0229991078,0.0217869282,42.7371520996,43.2867355347,-177.7881774902,0.0704154968,-0.0131489635,-0.0059507489,
282.993,-3.3257083893,1.4039639235,32.2457618713,0.0577044673,0.0448109917,0.0039384365,-112.0974578857,73.4028091431,68.3295669556,0.0320670605,0.0575257838,-0.0044953227,-14.1729240417,84.0409545898,-144.7475585938,0.0175455809,0.0229993761,0.0203741789,42.7413177490,43.2881774902,-177.7780914307,0.0675041676,-0.0097581744,-0.0083436966,
283.003,-3.3268721104,1.4027264118,32.2463378906,0.0620774068,0.0448312946,0.0044273138,-112.1224517822,73.3990020752,68.3118896484,0.0305832624,0.0541182756,-0.0048435926,-14.1811017990,84.0402297974,-144.7462310791,0.0234036446,0.0235055685,0.0232946277,42.7430496216,43.2889518738,-177.7695465088,0.0665373802,-0.0107447207,-0.0044156909,
283.013,-3.3257496357,1.4028820992,32.2475013733,0.0596387163,0.0462765805,0.0093090534,-112.1300201416,73.3968048096,68.3113327026,0.0325254202,0.0531608462,0.0088772178,-14.1799554825,84.0365829468,-144.7361297607,0.0233970284,0.0201005936,0.0290938616,42.7440643311,43.2869529724,-177.7616424561,0.0679768324,-0.0073523819,-0.0029597878,
283.023,-3.3274011612,1.4043233395,32.2484855652,0.0616169870,0.0365396924,0.0107762218,-112.1434936523,73.3927841187,68.3054580688,0.0315287709,0.0531983972,-0.0071485043,-14.2012252808,84.0399703979,-144.7483978271,0.0229148865,0.0220778286,0.0086510777,42.7458267212,43.2851333618,-177.7536773682,0.0689302683,-0.0054305196,-0.0014955997,
283.033,-3.3277885914,1.4030205011,32.2508201599,0.0645239428,0.0389878787,-0.0028961897,-112.1676559448,73.3882522583,68.2882308960,0.0315061808,0.0517575741,-0.0074960589,-14.1991405487,84.0365219116,-144.7392730713,0.0229086280,0.0240417123,0.0286123753,42.7491149902,43.2854957581,-177.7452087402,0.0655169487,-0.0088762045,-0.0048821568,
283.043,-3.3277978897,1.4060355425,32.2524642944,0.0562757701,0.0443590619,0.0127303600,-112.1831359863,73.3886032104,68.2761993408,0.0256485343,0.0575824976,-0.0035201907,-14.1768798828,84.0336532593,-144.7088470459,0.0214385986,0.0279197395,0.0285559893,42.7494506836,43.2852249146,-177.7377929688,0.0660017729,-0.0098581314,-0.0034166574,
283.053,-3.3267149925,1.4043389559,32.2530517578,0.0635703877,0.0462933630,0.0014981031,-112.1975555420,73.3878936768,68.2661895752,0.0368754864,0.0561010242,0.0004572868,-14.1857652664,84.0324401855,-144.7095031738,0.0219246745,0.0245229006,0.0290277600,42.7510948181,43.2841758728,-177.7298583984,0.0733126402,-0.0054874420,-0.0048766732,
283.063,-3.3291082382,1.4023073912,32.2535972595,0.0649997890,0.0404757336,0.0083357096,-112.2079010010,73.3890914917,68.2612380981,0.0266275406,0.0599693060,0.0000094175,-14.2004671097,84.0313186646,-144.7151794434,0.0243640542,0.0186944306,0.0255986452,42.7527046204,43.2854385376,-177.7239074707,0.0640513897,-0.0113515556,-0.0038750768,
283.073,-3.3263883591,1.4012675285,32.2548637390,0.0596105456,0.0497057177,0.0112618208,-112.2228469849,73.3891372681,68.2516326904,0.0334637165,0.0574989915,-0.0028512478,-14.1947460175,84.0317153931,-144.7018127441,0.0277827382,0.0245418847,0.0241377950,42.7505111694,43.2857322693,-177.7189025879,0.0728442073,-0.0142584145,-0.0024265647,
283.083,-3.3265786171,1.4018683434,32.2552871704,0.0645038411,0.0438496396,0.0122390985,-112.2453765869,73.3866729736,68.2351303101,0.0310100317,0.0535888672,-0.0085906982,-14.1782989502,84.0307693481,-144.6783905029,0.0219216347,0.0269578099,0.0260674953,42.7535400391,43.2887115479,-177.7114868164,0.0660460591,-0.0088914037,-0.0121398568,
283.093,-3.3257901669,1.4021495581,32.2545433044,0.0630439073,0.0453007445,0.0073556304,-112.2593307495,73.3818740845,68.2257537842,0.0339157581,0.0507062376,-0.0045893192,-14.1673955917,84.0332260132,-144.6598358154,0.0312034488,0.0259513855,0.0153611302,42.7525367737,43.2906723022,-177.7076416016,0.0641178489,-0.0103309155,-0.0072484612,
283.103,-3.3253924847,1.4045585394,32.2555465698,0.0582031235,0.0394343846,0.0102858543,-112.2686157227,73.3803787231,68.2201156616,0.0295137763,0.0565709472,0.0047404170,-14.1718959808,84.0341110229,-144.6574401855,0.0224159956,0.0293740034,0.0183061957,42.7522010803,43.2904586792,-177.7020721436,0.0685096979,-0.0108177662,-0.0043234825,
283.113,-3.3256292343,1.4048013687,32.2561378479,0.0572307967,0.0457861535,0.0146808624,-112.2903518677,73.3765029907,68.2044601440,0.0334006548,0.0536600351,-0.0092944503,-14.1667490005,84.0356292725,-144.6448059082,0.0268132687,0.0293585360,0.0227230787,42.7539405823,43.2921371460,-177.6944580078,0.0626716018,-0.0103321970,-0.0082000494,
283.123,-3.3265142441,1.4069890976,32.2589492798,0.0592220947,0.0370124578,0.0063818693,-112.3021469116,73.3730621338,68.1990356445,0.0280123949,0.0541790128,0.0000594258,-14.1597938538,84.0372085571,-144.6313476563,0.0268161297,0.0234798193,0.0222592354,42.7557907104,43.2913093567,-177.6874694824,0.0694969893,-0.0088913441,-0.0062384009,
283.133,-3.3273737431,1.4082423449,32.2593994141,0.0621736497,0.0458164550,0.0112661123,-112.3141021729,73.3683395386,68.1907501221,0.0279887915,0.0532528460,0.0020977855,-14.1688089371,84.0383911133,-144.6307373047,0.0258417130,0.0186081827,0.0227712393,42.7571907043,43.2918624878,-177.6790313721,0.0646212101,-0.0088998675,-0.0047563910,
283.143,-3.3253004551,1.4073607922,32.2605857849,0.0611817017,0.0452920832,0.0107752681,-112.3299255371,73.3648681641,68.1796722412,0.0309011340,0.0610887706,-0.0026896596,-14.1706886292,84.0377655029,-144.6256713867,0.0238874555,0.0249619186,0.0315503478,42.7594490051,43.2927818298,-177.6705780029,0.0690274835,-0.0103783607,-0.0037527084,
283.153,-3.3227601051,1.4079891443,32.2610893250,0.0621692277,0.0491540693,0.0097965002,-112.3373718262,73.3619461060,68.1779251099,0.0299099684,0.0528187156,0.0022462010,-14.1772632599,84.0385513306,-144.6220855713,0.0238888860,0.0235055089,0.0203361511,42.7610588074,43.2921066284,-177.6628265381,0.0690189004,-0.0099106133,-0.0022797585,
283.163,-3.3230607510,1.4084678888,32.2633819580,0.0631541461,0.0432999246,0.0122383833,-112.3515777588,73.3556594849,68.1716232300,0.0318316817,0.0548416376,-0.0039957166,-14.1921319962,84.0412216187,-144.6263122559,0.0243819952,0.0264508128,0.0198983550,42.7582550049,43.2900161743,-177.6598358154,0.0636212230,-0.0074600577,0.0040252805,
283.173,-3.3213369846,1.4080663919,32.2651557922,0.0616822988,0.0461995937,0.0083301663,-112.3679733276,73.3497772217,68.1608047485,0.0313140154,0.0534366965,-0.0077885985,-14.1855545044,84.0416107178,-144.6102905273,0.0238944292,0.0254608393,0.0228313804,42.7596549988,43.2899513245,-177.6518096924,0.0685032010,-0.0108916163,-0.0047522187,
283.183,-3.3245184422,1.4064648151,32.2656631470,0.0655606017,0.0399073921,0.0063797235,-112.3867416382,73.3458404541,68.1493988037,0.0298294425,0.0637156069,-0.0037702322,-14.1715126038,84.0390777588,-144.5874023438,0.0253546834,0.0254463553,0.0286421776,42.7585716248,43.2919845581,-177.6453857422,0.0602282882,-0.0157477558,-0.0047436357,
283.193,-3.3246755600,1.4049012661,32.2667922974,0.0655333251,0.0418632887,0.0058909059,-112.4079055786,73.3415145874,68.1361160278,0.0298078060,0.0549520254,-0.0080389977,-14.1763458252,84.0410537720,-144.5839691162,0.0165691972,0.0244698524,0.0213544369,42.7583618164,43.2912101746,-177.6383666992,0.0651012659,-0.0084278286,0.0001307130,
283.203,-3.3233203888,1.4067388773,32.2666778564,0.0577528849,0.0472107381,0.0083315969,-112.4184341431,73.3401489258,68.1324005127,0.0278478265,0.0578835011,-0.0021219850,-14.1607789993,84.0399322510,-144.5601959229,0.0282859206,0.0268883109,0.0218157172,42.7584419250,43.2910118103,-177.6321716309,0.0660752654,-0.0103833079,-0.0037767291,
283.213,-3.3222038746,1.4057968855,32.2684478760,0.0635958239,0.0462147556,0.0088183284,-112.4255599976,73.3358078003,68.1297225952,0.0327089429,0.0515883565,-0.0064558387,-14.1387500763,84.0399017334,-144.5321807861,0.0204733610,0.0209892094,0.0232718587,42.7586288452,43.2916984558,-177.6256256104,0.0660840869,-0.0094028413,-0.0018158555,
283.223,-3.3214640617,1.4061992168,32.2707328796,0.0631145611,0.0427838862,0.0039349794,-112.4410018921,73.3354187012,68.1167068481,0.0239179134,0.0637719631,-0.0034520030,-14.1300134659,84.0394439697,-144.5151672363,0.0219373703,0.0229290724,0.0242345929,42.7614631653,43.2931022644,-177.6189270020,0.0646370053,-0.0133242011,-0.0066619515,
283.233,-3.3219504356,1.4070841074,32.2718391418,0.0592237562,0.0427923314,0.0093070269,-112.4522247314,73.3343124390,68.1083221436,0.0346545577,0.0579083562,-0.0009514093,-14.1238889694,84.0392074585,-144.5007781982,0.0243783593,0.0243838131,0.0266698003,42.7604370117,43.2929420471,-177.6115264893,0.0700061321,-0.0162456036,-0.0013011694,
283.243,-3.3222577572,1.4075185061,32.2730102539,0.0587430447,0.0476804897,0.0117487907,-112.4722290039,73.3326797485,68.0922317505,0.0273221731,0.0618014038,-0.0096372366,-14.1237335205,84.0392456055,-144.4948120117,0.0204721689,0.0258479416,0.0232537389,42.7601737976,43.2922439575,-177.6061096191,0.0670675039,-0.0113660693,0.0021085143,
283.253,-3.3223264217,1.4077253342,32.2747993469,0.0572818145,0.0442637131,0.0044247508,-112.4788818359,73.3299484253,68.0881500244,0.0346327424,0.0574364662,0.0050593615,-14.0999116898,84.0396041870,-144.4647216797,0.0268204808,0.0282454789,0.0261769295,42.7634010315,43.2922782898,-177.5991363525,0.0714625120,-0.0133489966,-0.0081172585,
283.263,-3.3231003284,1.4070743322,32.2759666443,0.0602001473,0.0418358035,0.0058903694,-112.4910812378,73.3296051025,68.0808258057,0.0292599201,0.0608364344,-0.0017176867,-14.0976114273,84.0401687622,-144.4548187256,0.0219386816,0.0277500451,0.0276534557,42.7609367371,43.2906608582,-177.5963439941,0.0665591359,-0.0118742585,0.0001480579,
283.273,-3.3245468140,1.4079511166,32.2788925171,0.0597271621,0.0413726941,0.0122393370,-112.4927978516,73.3267669678,68.0839538574,0.0258277655,0.0545289516,0.0085623264,-14.0892953873,84.0419082642,-144.4401397705,0.0243832469,0.0238226652,0.0232791901,42.7572021484,43.2902221680,-177.5938568115,0.0665535331,-0.0103781521,0.0089011192,
283.283,-3.3243274689,1.4092885256,32.2799720764,0.0597504973,0.0452750884,0.0083341599,-112.5138854980,73.3213653564,68.0675201416,0.0345897675,0.0579892695,-0.0054654479,-14.1000490189,84.0376968384,-144.4431457520,0.0238873363,0.0214171410,0.0290780067,42.7575416565,43.2888679504,-177.5859680176,0.0763019919,-0.0069743395,-0.0062445402,
283.293,-3.3239815235,1.4095250368,32.2804527283,0.0612194650,0.0394096822,0.0049153566,-112.5383834839,73.3160018921,68.0502548218,0.0316331983,0.0555835366,-0.0087352991,-14.1065626144,84.0371093750,-144.4414825439,0.0263276696,0.0258260965,0.0246750712,42.7591972351,43.2897644043,-177.5782165527,0.0636180639,-0.0079590976,-0.0003630519,
283.303,-3.3268070221,1.4060555696,32.2816963196,0.0636003315,0.0389706977,0.0049169660,-112.5542755127,73.3112792969,68.0405426025,0.0364923477,0.0517192483,-0.0003305674,-14.1239624023,84.0366134644,-144.4493255615,0.0224205256,0.0204884410,0.0280920267,42.7596397400,43.2913513184,-177.5716094971,0.0655913353,-0.0118565559,-0.0018102527,
283.313,-3.3275351524,1.4059154987,32.2827606201,0.0650627390,0.0419130810,0.0117536187,-112.5573806763,73.3094482422,68.0454559326,0.0325769186,0.0522298813,0.0079963207,-14.1203861237,84.0358276367,-144.4381561279,0.0238839388,0.0248799324,0.0305183530,42.7537002563,43.2889823914,-177.5688171387,0.0699557662,-0.0118203461,0.0030005574,
283.323,-3.3285493851,1.4046961069,32.2845726013,0.0601586476,0.0409542136,0.0054060221,-112.5625915527,73.3072280884,68.0466156006,0.0276829600,0.0576251745,0.0055932999,-14.1132822037,84.0344772339,-144.4216156006,0.0243697762,0.0263374746,0.0241458416,42.7534446716,43.2892684937,-177.5629730225,0.0684945583,-0.0147453547,-0.0038350224,
283.333,-3.3288443089,1.4038450718,32.2856521606,0.0650266111,0.0414476581,0.0019886494,-112.5730438232,73.3067932129,68.0404586792,0.0301221609,0.0581006408,0.0056446195,-14.0859889984,84.0342788696,-144.3853759766,0.0253459811,0.0258010328,0.0158295035,42.7521629333,43.2875709534,-177.5584411621,0.0714026690,-0.0137706101,-0.0019078851,
283.343,-3.3297054768,1.4054980278,32.2891693115,0.0591960773,0.0434157364,0.0098018646,-112.5762939453,73.3046569824,68.0435028076,0.0252286792,0.0547081828,0.0051851869,-14.0710344315,84.0355606079,-144.3622436523,0.0204654932,0.0286984742,0.0187740922,42.7515258789,43.2880096436,-177.5521392822,0.0650605559,-0.0113197267,0.0005319715,
283.353,-3.3289773464,1.4047676325,32.2903480530,0.0606481805,0.0448679179,0.0107781887,-112.5936508179,73.3026123047,68.0329284668,0.0286363959,0.0586130619,-0.0049749613,-14.0762214661,84.0331344604,-144.3596038818,0.0268087387,0.0184639394,0.0241073966,42.7553253174,43.2880630493,-177.5432128906,0.0684792399,-0.0059836507,-0.0072472692,
283.363,-3.3276841640,1.4092143774,32.2901458740,0.0529132672,0.0448452793,0.0088252425,-112.6084671021,73.3036575317,68.0237579346,0.0310830474,0.0600332618,0.0028996468,-14.0539121628,84.0356903076,-144.3291015625,0.0199774504,0.0281787515,0.0236523151,42.7553215027,43.2912139893,-177.5368347168,0.0675427318,-0.0162119567,-0.0086845756,
283.373,-3.3257675171,1.4077136517,32.2912673950,0.0655823946,0.0404174030,0.0127289295,-112.6242752075,73.3045349121,68.0123214722,0.0305991769,0.0560829639,0.0005260706,-14.0386638641,84.0347747803,-144.3069305420,0.0214406252,0.0286435485,0.0280244946,42.7588958740,43.2914924622,-177.5287017822,0.0655931234,-0.0035476685,-0.0066980124,
283.383,-3.3249897957,1.4095664024,32.2929306030,0.0578022227,0.0408920944,0.0000338554,-112.6330871582,73.3042755127,68.0057067871,0.0281564593,0.0585114062,0.0010569096,-14.0275135040,84.0352325439,-144.2880859375,0.0277891159,0.0222743750,0.0226539969,42.7596473694,43.2943191528,-177.5237426758,0.0646525025,-0.0074379742,0.0016340613,
283.393,-3.3249340057,1.4090631008,32.2928619385,0.0616996884,0.0447973795,0.0093109608,-112.6402664185,73.3055725098,68.0029830933,0.0257215500,0.0614071786,0.0064529181,-14.0235157013,84.0337219238,-144.2777252197,0.0229035616,0.0261793435,0.0304414034,42.7638816833,43.2968978882,-177.5156860352,0.0622438192,-0.0089214444,-0.0090495348,
283.403,-3.3255112171,1.4081131220,32.2940216064,0.0611948296,0.0404129215,0.0044282675,-112.6532592773,73.3036346436,67.9934539795,0.0276649594,0.0584819317,-0.0017750263,-14.0134630203,84.0355606079,-144.2612609863,0.0263248682,0.0246888995,0.0241194963,42.7653083801,43.2989692688,-177.5090179443,0.0642232895,-0.0094060302,-0.0056000948,
283.413,-3.3250608444,1.4070988894,32.2946128845,0.0592240095,0.0418699533,0.0063805580,-112.6691207886,73.3023910522,67.9821929932,0.0271704197,0.0653066337,0.0017246008,-14.0299119949,84.0363235474,-144.2700653076,0.0273028016,0.0232506096,0.0212089419,42.7647895813,43.2978286743,-177.5051422119,0.0651853085,-0.0094106793,0.0031734705,
283.423,-3.3233520985,1.4074842930,32.2933235168,0.0582541712,0.0442815796,0.0068671703,-112.6769332886,73.2985763550,67.9785919189,0.0354520679,0.0541197658,-0.0021207333,-14.0250539780,84.0341796875,-144.2563781738,0.0297403336,0.0247154534,0.0299609303,42.7610168457,43.2965431213,-177.5026397705,0.0705400705,-0.0167100728,0.0021535754,
283.433,-3.3230319023,1.4125289917,32.2954635620,0.0554125011,0.0413461924,0.0024744272,-112.6876678467,73.2953948975,67.9724121094,0.0281119347,0.0575656891,0.0018556118,-14.0253906250,84.0339813232,-144.2491607666,0.0297399759,0.0281347930,0.0231220722,42.7621574402,43.2955627441,-177.4965362549,0.0671097040,-0.0118458271,-0.0046811700,
283.443,-3.3245999813,1.4143122435,32.2971153259,0.0583733059,0.0389320552,0.0102894306,-112.6934585571,73.2911071777,67.9724044800,0.0315083861,0.0566438437,0.0043514967,-14.0191068649,84.0352325439,-144.2358398438,0.0307188034,0.0251887739,0.0231394768,42.7637519836,43.2954711914,-177.4880828857,0.0719913244,-0.0123497844,-0.0056446791,
283.453,-3.3233468533,1.4134864807,32.2988777161,0.0608003028,0.0403750911,0.0019870996,-112.7041778564,73.2865600586,67.9666442871,0.0319738388,0.0581578016,-0.0033818483,-14.0191984177,84.0331954956,-144.2276000977,0.0224143267,0.0208024681,0.0299434066,42.7633056641,43.2947654724,-177.4804840088,0.0661229491,-0.0079568028,0.0006930232,
283.463,-3.3236551285,1.4135954380,32.3006782532,0.0578725189,0.0433101542,0.0122409463,-112.7108230591,73.2837448120,67.9646835327,0.0285417438,0.0572114587,0.0020382404,-13.9952869415,84.0331954956,-144.1959686279,0.0238791704,0.0222246349,0.0235837102,42.7618637085,43.2949752808,-177.4760131836,0.0651490688,-0.0094064772,-0.0002942085,
283.473,-3.3257436752,1.4123843908,32.3024826050,0.0602927953,0.0413934328,0.0102897286,-112.7244873047,73.2788467407,67.9572143555,0.0324233770,0.0577486753,0.0031099319,-13.9892578125,84.0338516235,-144.1828460693,0.0258334875,0.0246523917,0.0191981196,42.7592697144,43.2949905396,-177.4708251953,0.0675906539,-0.0118236244,-0.0003166199,
283.483,-3.3251936436,1.4136649370,32.3034896851,0.0642213896,0.0443135053,0.0078482032,-112.7373046875,73.2760696411,67.9494476318,0.0231320858,0.0563013554,-0.0060900450,-13.9930515289,84.0331344604,-144.1784210205,0.0238790512,0.0246621370,0.0274887681,42.7561073303,43.2938957214,-177.4671020508,0.0695298910,-0.0103381276,0.0025761724,
283.493,-3.3234589100,1.4150167704,32.3045845032,0.0598504432,0.0462363809,0.0127299428,-112.7581939697,73.2700195313,67.9347076416,0.0279844999,0.0558662415,-0.0079070926,-13.9996957779,84.0351028442,-144.1779327393,0.0263240337,0.0212480426,0.0201998353,42.7594833374,43.2933082581,-177.4573822021,0.0685458779,-0.0108626187,-0.0100949407,
283.503,-3.3243331909,1.4137127399,32.3051452637,0.0647104979,0.0457633510,0.0112649798,-112.7604751587,73.2661819458,67.9368209839,0.0313832164,0.0510373712,0.0048235655,-13.9829149246,84.0311584473,-144.1541595459,0.0243637562,0.0246523917,0.0294030309,42.7592697144,43.2937240601,-177.4508666992,0.0675745606,-0.0128105581,-0.0110703707,
283.513,-3.3240952492,1.4142454863,32.3062248230,0.0627666712,0.0452709273,0.0137068033,-112.7590637207,73.2657165527,67.9424285889,0.0284511447,0.0573950708,0.0121443868,-13.9755296707,84.0326080322,-144.1391754150,0.0209484100,0.0280510187,0.0216118097,42.7607879639,43.2950820923,-177.4426727295,0.0710098147,-0.0142783523,-0.0125098228,
283.523,-3.3239965439,1.4127249718,32.3068504333,0.0593221709,0.0403864309,0.0205417871,-112.7663040161,73.2624664307,67.9391174316,0.0255051255,0.0535247922,0.0019450188,-13.9815912247,84.0313568115,-144.1356201172,0.0263172388,0.0197661519,0.0245240927,42.7595214844,43.2941780090,-177.4366760254,0.0685569048,-0.0103676915,0.0001670122,
283.533,-3.3248081207,1.4130357504,32.3080329895,0.0568861887,0.0438185222,0.0073592067,-112.7733459473,73.2598190308,67.9378738403,0.0274449587,0.0550169349,0.0112720728,-14.0114164352,84.0330047607,-144.1588745117,0.0199725628,0.0188364983,0.0221227407,42.7616767883,43.2951965332,-177.4268341064,0.0675933361,-0.0089147687,-0.0032241344,
283.543,-3.3248236179,1.4128011465,32.3103103638,0.0651828796,0.0423539542,0.0000348687,-112.7909011841,73.2579803467,67.9258041382,0.0318302512,0.0545220971,-0.0076771975,-14.0038137436,84.0322799683,-144.1450195313,0.0287603140,0.0300562382,0.0255256891,42.7625198364,43.2968215942,-177.4186706543,0.0646842718,-0.0103740990,-0.0080845356,
283.553,-3.3247773647,1.4125880003,32.3108177185,0.0627377480,0.0447945595,0.0034528971,-112.8014450073,73.2570114136,67.9202270508,0.0303605199,0.0584231615,0.0055616498,-13.9777803421,84.0315170288,-144.1113891602,0.0228995681,0.0265944302,0.0259904861,42.7629051208,43.2990531921,-177.4136962891,0.0656891465,-0.0152425468,-0.0002497435,
283.563,-3.3252086639,1.4103273153,32.3114128113,0.0636748672,0.0408958830,0.0088232756,-112.8059768677,73.2564849854,67.9203567505,0.0274282098,0.0550041795,0.0026564002,-13.9748697281,84.0313568115,-144.1008605957,0.0233875513,0.0251252651,0.0264737010,42.7642059326,43.2971420288,-177.4075775146,0.0685946345,-0.0069692433,-0.0085558295,
283.573,-3.3249170780,1.4088321924,32.3132286072,0.0612073764,0.0433322452,0.0078459978,-112.8188171387,73.2538681030,67.9127731323,0.0293681622,0.0559958220,-0.0006849766,-13.9769163132,84.0286026001,-144.0946960449,0.0282653570,0.0236753523,0.0357067585,42.7641487122,43.2969169617,-177.4015197754,0.0666385889,-0.0079472065,-0.0007457733,
283.583,-3.3239278793,1.4071812630,32.3157310486,0.0602020100,0.0477095880,0.0215162039,-112.8252944946,73.2500457764,67.9120178223,0.0327669382,0.0545769036,-0.0040480494,-13.9701566696,84.0287017822,-144.0802917480,0.0238710046,0.0246393979,0.0215450525,42.7643089294,43.2997550964,-177.3952026367,0.0647215247,-0.0132966936,-0.0109733939,
283.593,-3.3228449821,1.4061613083,32.3169021606,0.0616490580,0.0418313779,0.0102837682,-112.8373260498,73.2491683960,67.9060440063,0.0259265900,0.0579848886,-0.0015449524,-13.9616804123,84.0285339355,-144.0646209717,0.0268003941,0.0207185149,0.0220271349,42.7624816895,43.2988471985,-177.3902282715,0.0695928335,-0.0108455718,-0.0012313724,
283.603,-3.3211009502,1.4066343307,32.3192138672,0.0631221533,0.0461955182,0.0107705593,-112.8479537964,73.2463073730,67.9011764526,0.0249356031,0.0531253815,0.0009644032,-13.9759550095,84.0304031372,-144.0699157715,0.0238741040,0.0212247372,0.0181583166,42.7642059326,43.3013229370,-177.3818054199,0.0632766485,-0.0084002316,-0.0104722977,
283.613,-3.3189773560,1.4086161852,32.3202819824,0.0597387664,0.0476233214,0.0112577081,-112.8594512939,73.2443237305,67.8958892822,0.0307849646,0.0575273633,-0.0038519502,-13.9778823853,84.0306015015,-144.0625000000,0.0199682117,0.0285516679,0.0274395347,42.7655677795,43.2990036011,-177.3756713867,0.0700830221,-0.0094083548,0.0007495880,
283.623,-3.3206074238,1.4065710306,32.3208999634,0.0631210506,0.0452103578,0.0141882300,-112.8746719360,73.2418594360,67.8886184692,0.0297960043,0.0585123599,-0.0023003817,-13.9791955948,84.0313186646,-144.0563201904,0.0204578042,0.0285510719,0.0254989862,42.7641601563,43.3001937866,-177.3701171875,0.0617974401,-0.0103620887,-0.0007169247,
283.633,-3.3227369785,1.4030067921,32.3208694458,0.0679416731,0.0393881649,0.0044232011,-112.8916015625,73.2389068604,67.8783264160,0.0288046002,0.0580359101,-0.0036673546,-13.9804754257,84.0330657959,-144.0499267578,0.0292500257,0.0231750309,0.0230872035,42.7669868469,43.3013153076,-177.3611450195,0.0647413135,-0.0064730644,-0.0050771236,
283.643,-3.3201887608,1.3998506069,32.3214988708,0.0664217621,0.0471563563,-0.0009517670,-112.8985061646,73.2381820679,67.8777465820,0.0292892456,0.0570573807,0.0061349869,-13.9874229431,84.0317535400,-144.0486602783,0.0224117041,0.0251460671,0.0230684280,42.7680091858,43.3013801575,-177.3537902832,0.0657187104,-0.0108767152,-0.0011620522,
283.653,-3.3206031322,1.3986881971,32.3226203918,0.0644483566,0.0408159494,0.0141847730,-112.9130020142,73.2351760864,67.8701782227,0.0322037935,0.0575629473,0.0013392568,-13.9845438004,84.0343093872,-144.0380401611,0.0224163532,0.0231773257,0.0196911097,42.7666473389,43.3015785217,-177.3486175537,0.0642563701,-0.0098856688,0.0017585158,
283.663,-3.3170628548,1.3968256712,32.3232421875,0.0644158572,0.0505199507,0.0083211064,-112.9274902344,73.2335815430,67.8624496460,0.0317075253,0.0556062162,-0.0034660101,-13.9831228256,84.0341796875,-144.0277557373,0.0297403336,0.0251283050,0.0231068730,42.7637290955,43.3008804321,-177.3451690674,0.0671772361,-0.0074228942,0.0070973039,
283.673,-3.3139946461,1.3940656185,32.3232460022,0.0653442591,0.0446071997,0.0097817183,-112.9435043335,73.2328643799,67.8505325317,0.0307273269,0.0619330406,-0.0019218326,-13.9681692123,84.0347061157,-144.0057830811,0.0248584747,0.0255874395,0.0226212740,42.7621917725,43.3000297546,-177.3394775391,0.0686312318,-0.0113216043,0.0036596060,
283.683,-3.3154907227,1.3948794603,32.3249320984,0.0594990849,0.0392621420,0.0063657761,-112.9592437744,73.2314300537,67.8385467529,0.0312083364,0.0555765629,-0.0072103143,-13.9924478531,84.0334243774,-144.0222015381,0.0268092752,0.0168473125,0.0250521302,42.7638168335,43.3006019592,-177.3329772949,0.0681502819,-0.0108438432,-0.0090173483,
283.693,-3.3134009838,1.3948469162,32.3266181946,0.0648696125,0.0431319922,0.0131991506,-112.9563751221,73.2309036255,67.8443908691,0.0287643671,0.0551021695,0.0123109221,-13.9560785294,84.0339813232,-143.9770812988,0.0292516947,0.0294754505,0.0182070136,42.7617645264,43.3020362854,-177.3279724121,0.0652388334,-0.0152075291,-0.0002330542,
283.703,-3.3125097752,1.3950521946,32.3283424377,0.0595021024,0.0411633365,0.0068513155,-112.9613113403,73.2313995361,67.8417816162,0.0277902484,0.0550849140,0.0079361796,-13.9295730591,84.0312576294,-143.9430084229,0.0228990912,0.0294383466,0.0298722982,42.7596855164,43.3010177612,-177.3251190186,0.0671789646,-0.0171495974,0.0002281666,
283.713,-3.3122582436,1.3943743706,32.3294830322,0.0624199621,0.0411589816,0.0053849816,-112.9674148560,73.2306900024,67.8376235962,0.0331577659,0.0594779849,0.0055279136,-13.9043512344,84.0313873291,-143.9103240967,0.0268055797,0.0289050639,0.0254642963,42.7641754150,43.3007164001,-177.3163604736,0.0725462437,-0.0054751635,-0.0119426847,
283.723,-3.3113918304,1.3953257799,32.3312454224,0.0546240583,0.0411438607,0.0024555326,-112.9764785767,73.2294311523,67.8320693970,0.0311983228,0.0619215369,0.0031367540,-13.9023323059,84.0342788696,-143.9006652832,0.0229045749,0.0274240077,0.0177025199,42.7631607056,43.2997436523,-177.3108520508,0.0681393147,-0.0049853325,0.0022000670,
283.733,-3.3126516342,1.3965997696,32.3329620361,0.0580642596,0.0421423353,0.0117341876,-112.9831466675,73.2286605835,67.8299484253,0.0277764797,0.0594781041,0.0046375394,-13.8955221176,84.0373687744,-143.8869934082,0.0331640840,0.0308176279,0.0172597766,42.7672767639,43.2990341187,-177.3007659912,0.0705717802,-0.0079592466,-0.0060718060,
283.743,-3.3119020462,1.3981044292,32.3328895569,0.0546725467,0.0450589359,0.0097815990,-112.9956817627,73.2285232544,67.8225250244,0.0302171707,0.0555492043,0.0007905960,-13.8913593292,84.0357589722,-143.8747100830,0.0277900696,0.0288632214,0.0260223150,42.7696533203,43.3011283875,-177.2932586670,0.0657155514,-0.0113821626,-0.0060319304,
283.753,-3.3111815453,1.3987740278,32.3346481323,0.0581021942,0.0426049605,0.0136868358,-113.0017242432,73.2263946533,67.8214416504,0.0321595669,0.0555707216,-0.0001440644,-13.9019269943,84.0339813232,-143.8774871826,0.0189977884,0.0191239119,0.0289269090,42.7719650269,43.3034172058,-177.2844543457,0.0711156726,-0.0128501654,-0.0172233582,
283.763,-3.3097341061,1.4000777006,32.3344841003,0.0620311908,0.0474625230,0.0156398416,-113.0077743530,73.2225570679,67.8200988770,0.0345816612,0.0531755686,-0.0000907779,-13.9055814743,84.0365829468,-143.8742218018,0.0229087472,0.0269323289,0.0250654221,42.7717437744,43.3041343689,-177.2792358398,0.0667302608,-0.0074709654,0.0008484721,
283.773,-3.3105957508,1.4016361237,32.3348808289,0.0630349442,0.0416181237,0.0053864121,-113.0186233521,73.2189788818,67.8138504028,0.0306574106,0.0590688586,-0.0048999786,-13.9106702805,84.0369796753,-143.8729858398,0.0224211812,0.0264519453,0.0240957737,42.7692146301,43.3043251038,-177.2736816406,0.0647795796,-0.0152585506,-0.0025907755,
283.783,-3.3127319813,1.4019412994,32.3364944458,0.0654816777,0.0392139256,0.0044130087,-113.0257949829,73.2133636475,67.8122558594,0.0296525359,0.0527928770,-0.0033650994,-13.9245328903,84.0354309082,-143.8797302246,0.0229066610,0.0201350451,0.0289613008,42.7721099854,43.3053932190,-177.2651672363,0.0677227974,-0.0128353834,-0.0064616799,
283.793,-3.3110117912,1.4032764435,32.3382301331,0.0576924756,0.0440667309,0.0068526864,-113.0427474976,73.2089996338,67.8011398315,0.0276774168,0.0557559729,-0.0022811890,-13.9372549057,84.0378646851,-143.8841705322,0.0258407593,0.0240541399,0.0182651281,42.7662696838,43.3065643311,-177.2621459961,0.0706673861,-0.0205839872,-0.0021079779,
283.803,-3.3118088245,1.4014201164,32.3400306702,0.0625428930,0.0416392572,0.0097826123,-113.0555419922,73.2050094604,67.7940673828,0.0276572704,0.0553039610,-0.0065900087,-13.9302482605,84.0407638550,-143.8676605225,0.0204749107,0.0254947245,0.0173325539,42.7635536194,43.3063468933,-177.2570037842,0.0623638630,-0.0132361054,-0.0011566281,
283.813,-3.3119683266,1.4014252424,32.3399963379,0.0576601736,0.0440834425,0.0058766603,-113.0636367798,73.2007827759,67.7931594849,0.0300773382,0.0548643768,0.0012877584,-13.9405975342,84.0427932739,-143.8690185547,0.0209668875,0.0206221044,0.0183473229,42.7607536316,43.3049697876,-177.2530670166,0.0672290921,-0.0161508620,-0.0011925101,
283.823,-3.3111865520,1.4015290737,32.3429527283,0.0620565191,0.0450463779,0.0014809370,-113.0670776367,73.1988906860,67.7955932617,0.0286029577,0.0563514233,0.0052222610,-13.9471092224,84.0397720337,-143.8647308350,0.0224262476,0.0206461847,0.0309956670,42.7630386353,43.3059501648,-177.2438354492,0.0691947341,-0.0117696524,-0.0060471296,
283.833,-3.3115653992,1.3995910883,32.3440437317,0.0688586384,0.0411467813,0.0029455423,-113.0747756958,73.1965103149,67.7943115234,0.0290792584,0.0563726127,0.0033206940,-13.9496707916,84.0395736694,-143.8594970703,0.0209610462,0.0211398602,0.0178099871,42.7638206482,43.3073043823,-177.2380065918,0.0623760223,-0.0137190819,-0.0055400729,
283.843,-3.3141398430,1.3974139690,32.3451805115,0.0654026866,0.0377737097,0.0024589896,-113.0868911743,73.1948165894,67.7860794067,0.0295589566,0.0529566407,-0.0000298023,-13.9550390244,84.0416717529,-143.8576812744,0.0234062672,0.0196762681,0.0183341503,42.7636299133,43.3082618713,-177.2321624756,0.0638530254,-0.0102916062,0.0008139610,
283.853,-3.3113994598,1.3985927105,32.3481483459,0.0585873127,0.0474915691,0.0097809434,-113.0926742554,73.1947860718,67.7848052979,0.0290705562,0.0553869009,0.0043918490,-13.9656829834,84.0403671265,-143.8605499268,0.0229156017,0.0216534436,0.0222256184,42.7663764954,43.3078269958,-177.2233123779,0.0677537322,-0.0069027543,-0.0016072989,
283.863,-3.3112399578,1.3971222639,32.3475494385,0.0580733716,0.0411411673,-0.0043798685,-113.0972213745,73.1944961548,67.7860336304,0.0295573473,0.0578239560,0.0063681006,-13.9472064972,84.0379943848,-143.8332366943,0.0219347477,0.0250483453,0.0270593166,42.7681579590,43.3095359802,-177.2164306641,0.0697285533,-0.0117883980,-0.0093895793,
283.873,-3.3110067844,1.3977111578,32.3486557007,0.0580836497,0.0367425717,0.0083152652,-113.1045150757,73.1930236816,67.7822189331,0.0329679251,0.0549019873,0.0005521774,-13.9440240860,84.0379562378,-143.8210906982,0.0204698443,0.0216248035,0.0221744776,42.7684555054,43.3106460571,-177.2074279785,0.0692543983,-0.0127586722,-0.0030295253,
283.883,-3.3105862141,1.3990044594,32.3515510559,0.0605476201,0.0435711481,0.0161280632,-113.1165161133,73.1933135986,67.7743759155,0.0271099806,0.0626863837,0.0006063581,-13.9126977921,84.0372390747,-143.7809753418,0.0233982205,0.0288956165,0.0284968615,42.7674560547,43.3091430664,-177.2023162842,0.0682587624,-0.0073903799,0.0018314719,
283.893,-3.3114161491,1.3999624252,32.3533134460,0.0571463704,0.0435855798,0.0156410336,-113.1302947998,73.1923446655,67.7648925781,0.0275933743,0.0553495884,-0.0046943426,-13.9015092850,84.0347747803,-143.7639312744,0.0263234377,0.0235145092,0.0255216956,42.7665710449,43.3105316162,-177.1982727051,0.0633935928,-0.0132302344,-0.0020701885,
283.903,-3.3102521896,1.3998593092,32.3544464111,0.0625156611,0.0464949943,0.0044089556,-113.1349639893,73.1926040649,67.7644119263,0.0271064043,0.0597309172,0.0031382442,-13.8734025955,84.0351028442,-143.7264251709,0.0253474712,0.0288335979,0.0245387554,42.7681236267,43.3103790283,-177.1914825439,0.0702275634,-0.0122694373,-0.0088939667,
283.913,-3.3093152046,1.4007341862,32.3555526733,0.0591129586,0.0435489640,0.0048969388,-113.1426620483,73.1877899170,67.7626876831,0.0305000544,0.0534416437,-0.0002122521,-13.8868141174,84.0337219238,-143.7320861816,0.0268098116,0.0205625594,0.0220804214,42.7689170837,43.3086509705,-177.1858825684,0.0677641630,-0.0049667060,-0.0010902882,
283.923,-3.3090770245,1.4010047913,32.3561553955,0.0571645573,0.0474510565,0.0156391859,-113.1492385864,73.1843109131,67.7610626221,0.0363419056,0.0568992794,0.0066770315,-13.8664293289,84.0326766968,-143.7041320801,0.0297375917,0.0263898075,0.0279123783,42.7692718506,43.3089790344,-177.1797790527,0.0682566762,-0.0142446756,-0.0103613138,
283.933,-3.3091499805,1.4017087221,32.3572273254,0.0620596483,0.0420812182,0.0107563734,-113.1672668457,73.1809234619,67.7512435913,0.0260708928,0.0598468781,-0.0044474006,-13.8643856049,84.0328063965,-143.6931915283,0.0282729864,0.0234559476,0.0288902521,42.7642173767,43.3106842041,-177.1763458252,0.0677900314,-0.0190664530,0.0003522038,
283.943,-3.3094308376,1.4006683826,32.3570976257,0.0654594675,0.0415978506,0.0024555326,-113.1768722534,73.1777725220,67.7475891113,0.0270315409,0.0588979125,0.0000127554,-13.8411064148,84.0303726196,-143.6618499756,0.0238740444,0.0307480693,0.0268872380,42.7662048340,43.3113670349,-177.1670837402,0.0673104525,-0.0093138218,-0.0093903542,
283.953,-3.3101656437,1.3989158869,32.3582420349,0.0659171715,0.0420989767,-0.0009622574,-113.1818695068,73.1759719849,67.7482604980,0.0299521089,0.0554981232,-0.0004405379,-13.8250942230,84.0303115845,-143.6390075684,0.0214325190,0.0316962004,0.0273669362,42.7657012939,43.3123359680,-177.1595001221,0.0653696060,-0.0161371827,-0.0079212785,
283.963,-3.3080453873,1.3995184898,32.3613014221,0.0542089343,0.0474331267,0.0112429857,-113.1814575195,73.1731338501,67.7526855469,0.0289612412,0.0570064783,0.0059238672,-13.8033285141,84.0302047729,-143.6108856201,0.0248503089,0.0272628963,0.0273559093,42.7656631470,43.3135757446,-177.1528015137,0.0653853416,-0.0102673471,-0.0005861521,
283.973,-3.3065938950,1.3982462883,32.3630561829,0.0668820441,0.0474078730,0.0083112121,-113.1817092896,73.1705093384,67.7573776245,0.0289479494,0.0531406701,0.0020359755,-13.7841882706,84.0314254761,-143.5845794678,0.0258290768,0.0213641822,0.0249261856,42.7658615112,43.3111648560,-177.1452026367,0.0717023611,-0.0063826442,0.0023233891,
283.983,-3.3112084866,1.3966836929,32.3660125732,0.0639251024,0.0367461070,0.0102682710,-113.1846847534,73.1699676514,67.7586517334,0.0225975513,0.0555840731,0.0010768771,-13.7812080383,84.0304031372,-143.5745849609,0.0238741040,0.0242926478,0.0268610716,42.7633895874,43.3104972839,-177.1406555176,0.0707173347,-0.0136890709,-0.0020975471,
283.993,-3.3110272884,1.3974599838,32.3683204651,0.0619855188,0.0450437069,0.0088034868,-113.2002563477,73.1655426025,67.7464675903,0.0328291059,0.0551325083,-0.0027278662,-13.7747612000,84.0307006836,-143.5593109131,0.0204566717,0.0272095501,0.0234451890,42.7658271790,43.3115539551,-177.1333312988,0.0614533424,-0.0049143732,-0.0040213466,
284.003,-3.3116912842,1.3978601694,32.3688087463,0.0629690588,0.0465201102,0.0097808838,-113.2155075073,73.1641387939,67.7361145020,0.0342868567,0.0600065589,-0.0031356812,-13.7849369049,84.0296783447,-143.5610351563,0.0238727927,0.0160013735,0.0278279185,42.7667350769,43.3096199036,-177.1268768311,0.0687530637,-0.0088446140,0.0057361722,
284.013,-3.3123393059,1.4011863470,32.3698959351,0.0527731925,0.0465313159,0.0078300238,-113.2120666504,73.1621856689,67.7435379028,0.0245113373,0.0595550239,0.0178570747,-13.7928333282,84.0305328369,-143.5619812012,0.0209446549,0.0282190144,0.0200336576,42.7675018311,43.3108673096,-177.1200408936,0.0682806373,-0.0151893198,-0.0064539313,
284.023,-3.3164250851,1.4002156258,32.3704185486,0.0610570349,0.0368368812,0.0019742846,-113.2331924438,73.1615982056,67.7292404175,0.0303677917,0.0653812289,-0.0040132403,-13.7930440903,84.0320205688,-143.5525665283,0.0277832747,0.0218658447,0.0161514282,42.7654304504,43.3082122803,-177.1131896973,0.0628758073,-0.0098204911,0.0062003732,
284.033,-3.3184442520,1.4000614882,32.3714790344,0.0649605989,0.0417548716,0.0078356266,-113.2335968018,73.1610412598,67.7357025146,0.0254821181,0.0624592304,0.0125939250,-13.8017892838,84.0314941406,-143.5494384766,0.0243643522,0.0243253410,0.0268875957,42.7655067444,43.3067665100,-177.1069946289,0.0633457303,-0.0039735734,0.0032587051,
284.043,-3.3191666603,1.4010536671,32.3719940186,0.0586302504,0.0442088433,0.0063714981,-113.2426071167,73.1578598022,67.7337036133,0.0264425874,0.0556540489,0.0033795238,-13.8034667969,84.0291900635,-143.5415191650,0.0194773674,0.0204313695,0.0292920470,42.7630805969,43.3079261780,-177.1007080078,0.0658018589,-0.0112657547,0.0003183484,
284.053,-3.3200025558,1.4016634226,32.3742446899,0.0625471398,0.0393405706,0.0083264709,-113.2482757568,73.1523361206,67.7349700928,0.0288560987,0.0518209338,-0.0029054880,-13.7848834991,84.0306396484,-143.5141448975,0.0258276463,0.0282045603,0.0200306177,42.7620811462,43.3082122803,-177.0916290283,0.0692234635,-0.0097892880,-0.0031058192,
284.063,-3.3207824230,1.4012682438,32.3735427856,0.0610754006,0.0398424454,0.0058850646,-113.2493896484,73.1529083252,67.7402420044,0.0303238034,0.0591343343,0.0093030334,-13.7796812057,84.0291595459,-143.5007934570,0.0238718390,0.0272246301,0.0307461023,42.7641716003,43.3104171753,-177.0847167969,0.0604624152,-0.0122322142,-0.0035567880,
284.073,-3.3224062920,1.4004138708,32.3746452332,0.0630136207,0.0388941914,0.0049104691,-113.2524108887,73.1524429321,67.7442398071,0.0312980413,0.0566936433,0.0068787932,-13.7681674957,84.0286026001,-143.4804382324,0.0292419195,0.0262295902,0.0234076977,42.7651557922,43.3115844727,-177.0789794922,0.0624303222,-0.0073491335,-0.0045144558,
284.083,-3.3214669228,1.4020272493,32.3751258850,0.0586472377,0.0457137302,0.0078395009,-113.2558517456,73.1502456665,67.7451629639,0.0268923640,0.0576972365,0.0010500550,-13.7815046310,84.0298080444,-143.4854736328,0.0189902186,0.0228307247,0.0209921002,42.7680244446,43.3116264343,-177.0703582764,0.0653606057,-0.0103052855,-0.0069313049,
284.093,-3.3221163750,1.4008866549,32.3762626648,0.0639984310,0.0423070975,0.0044216514,-113.2693557739,73.1506652832,67.7356643677,0.0283593535,0.0620580316,0.0015984774,-13.7616949081,84.0297470093,-143.4582061768,0.0248494744,0.0310964584,0.0253753066,42.7670555115,43.3125190735,-177.0657196045,0.0629305243,-0.0098006129,-0.0074191689,
284.103,-3.3240880966,1.4041296244,32.3766746521,0.0552659519,0.0418530814,0.0141907930,-113.2654647827,73.1492538452,67.7429046631,0.0293287635,0.0581815541,0.0103785396,-13.7670087814,84.0302429199,-143.4557189941,0.0228972435,0.0208494961,0.0229473710,42.7669982910,43.3124465942,-177.0608062744,0.0639061332,-0.0093125403,0.0008792877,
284.113,-3.3219048977,1.4059790373,32.3778076172,0.0557865016,0.0457212552,0.0073534250,-113.2704925537,73.1466217041,67.7419662476,0.0273623466,0.0572350621,0.0030950904,-13.7567977905,84.0288619995,-143.4379577637,0.0209416151,0.0266964436,0.0273128152,42.7660903931,43.3110198975,-177.0570526123,0.0682825446,-0.0083389580,0.0018365383,
284.123,-3.3192243576,1.4070180655,32.3789634705,0.0567811914,0.0451862514,0.0171167850,-113.2713928223,73.1455917358,67.7445907593,0.0249156952,0.0582252741,0.0040828586,-13.7693929672,84.0281753540,-143.4434356689,0.0209403634,0.0233036280,0.0224257112,42.7648735046,43.3097915649,-177.0534210205,0.0663138628,-0.0107791126,-0.0030681491,
284.133,-3.3200972080,1.4072090387,32.3801193237,0.0572728068,0.0393420756,0.0063751340,-113.2707061768,73.1437072754,67.7493820190,0.0297889709,0.0577677488,0.0075098276,-13.7719659805,84.0301132202,-143.4390411377,0.0219204426,0.0267185271,0.0170870423,42.7659873962,43.3103790283,-177.0467529297,0.0692510009,-0.0083432496,-0.0103772879,
284.143,-3.3180725574,1.4060009718,32.3812255859,0.0665290728,0.0451662205,0.0083264112,-113.2784652710,73.1431732178,67.7457504272,0.0288097262,0.0631312728,0.0036432743,-13.7695503235,84.0304718018,-143.4272918701,0.0238742232,0.0301309824,0.0185552835,42.7647056580,43.3106460571,-177.0399475098,0.0673012733,-0.0112588108,-0.0050148964,
284.153,-3.3162512779,1.4047607183,32.3836326599,0.0626011789,0.0422048308,0.0083230734,-113.2964096069,73.1411285400,67.7352676392,0.0297759175,0.0592198968,0.0017874837,-13.7601289749,84.0287017822,-143.4090270996,0.0219178796,0.0267028213,0.0278012753,42.7638320923,43.3113250732,-177.0323181152,0.0643801689,-0.0141748786,-0.0030636191,
284.163,-3.3172729015,1.4037592411,32.3847236633,0.0655133948,0.0431992188,0.0010002255,-113.3073501587,73.1380920410,67.7319259644,0.0297605395,0.0572921038,0.0047881603,-13.7448377609,84.0278091431,-143.3844299316,0.0248459578,0.0296084881,0.0316864848,42.7643089294,43.3120155334,-177.0249633789,0.0692718029,-0.0127088428,-0.0035417080,
284.173,-3.3159854412,1.4053184986,32.3870391846,0.0591929443,0.0446415991,0.0073463917,-113.3374252319,73.1369018555,67.7105484009,0.0312193632,0.0582257509,-0.0048292279,-13.7319717407,84.0268630981,-143.3650817871,0.0233793855,0.0212888718,0.0258035064,42.7657127380,43.3146667480,-177.0183563232,0.0653991699,-0.0092824101,-0.0054590702,
284.183,-3.3161954880,1.4051214457,32.3888511658,0.0567481071,0.0436687022,0.0107653141,-113.3608779907,73.1345672607,67.6966857910,0.0336489677,0.0626087487,-0.0012865067,-13.7042579651,84.0248947144,-143.3284301758,0.0189812779,0.0246645212,0.0262489915,42.7653007507,43.3172569275,-177.0113220215,0.0708031654,-0.0121871829,-0.0108111501,
284.193,-3.3188772202,1.4061994553,32.3892402649,0.0626262873,0.0373677276,0.0068620443,-113.3858337402,73.1296005249,67.6806259155,0.0306941271,0.0587283969,-0.0030905008,-13.7058410645,84.0246276855,-143.3210449219,0.0258167386,0.0197857320,0.0281978250,42.7652397156,43.3171920776,-177.0048522949,0.0708023906,-0.0107222795,-0.0059293509,
284.203,-3.3207554817,1.4049062729,32.3897705078,0.0645568445,0.0422832929,0.0083281994,-113.4028778076,73.1280212402,67.6710891724,0.0301978588,0.0582298636,0.0096948147,-13.6943292618,84.0262069702,-143.2993774414,0.0287492871,0.0241534114,0.0189404488,42.7655067444,43.3170700073,-176.9988708496,0.0664062500,-0.0053547025,-0.0005570054,
284.213,-3.3212168217,1.4040709734,32.3927001953,0.0655188337,0.0427796282,0.0063751340,-113.4353942871,73.1236267090,67.6460113525,0.0306638479,0.0577434897,0.0020630956,-13.6660079956,84.0234146118,-143.2623138428,0.0248379707,0.0304608941,0.0281612277,42.7636108398,43.3194923401,-176.9931488037,0.0644838810,-0.0131298304,-0.0078764558,
284.223,-3.3210072517,1.4037346840,32.3944282532,0.0616067201,0.0408228599,0.0127226710,-113.4670639038,73.1207580566,67.6231918335,0.0291844606,0.0572346449,-0.0002113581,-13.6463432312,84.0236434937,-143.2350158691,0.0267915130,0.0250538886,0.0242480636,42.7623596191,43.3189582825,-176.9875946045,0.0698482394,-0.0106810927,0.0018738508,
284.233,-3.3213534355,1.4021176100,32.3950424194,0.0615785047,0.0432703421,0.0132101774,-113.4918594360,73.1158752441,67.6062622070,0.0286714435,0.0567709506,0.0087256432,-13.6290969849,84.0210571289,-143.2088317871,0.0258102417,0.0225914717,0.0285938978,42.7595672607,43.3193740845,-176.9827728271,0.0688769221,-0.0179759562,0.0008766055,
284.243,-3.3215060234,1.4026119709,32.3961334229,0.0606105663,0.0418081395,0.0097929239,-113.5107879639,73.1123046875,67.5937957764,0.0262119770,0.0543458462,0.0122554898,-13.6082887650,84.0199050903,-143.1791687012,0.0272729993,0.0269531310,0.0222180486,42.7587890625,43.3212356567,-176.9771270752,0.0679240227,-0.0111175478,-0.0054610372,
284.253,-3.3204963207,1.4027043581,32.3973121643,0.0576824918,0.0437436774,0.0083270669,-113.5322570801,73.1080322266,67.5757141113,0.0281434059,0.0548556447,0.0084781051,-13.6171970367,84.0220413208,-143.1778869629,0.0219057798,0.0215896070,0.0203037262,42.7565574646,43.3228607178,-176.9710083008,0.0635501146,-0.0115718842,-0.0020486116,
284.263,-3.3216948509,1.4037728310,32.3990554810,0.0567245707,0.0422996804,0.0146765113,-113.5458068848,73.1042480469,67.5638961792,0.0271476507,0.0534227490,0.0124724507,-13.6051788330,84.0232849121,-143.1587524414,0.0214197636,0.0230277479,0.0183663368,42.7544326782,43.3248901367,-176.9672851563,0.0572282672,-0.0115355253,-0.0015603304,
284.273,-3.3213312626,1.4035564661,32.3989906311,0.0606270432,0.0437581986,0.0073512793,-113.5550231934,73.1039886475,67.5552902222,0.0276346207,0.0553597808,0.0100758672,-13.5949802399,84.0222396851,-143.1432342529,0.0219061375,0.0220369101,0.0212745667,42.7560501099,43.3250274658,-176.9611053467,0.0674839020,-0.0125260651,-0.0000803471,
284.283,-3.3186085224,1.4044274092,32.4001121521,0.0591773987,0.0476170070,0.0063732266,-113.5679855347,73.1018295288,67.5429458618,0.0286002159,0.0573191345,0.0018501282,-13.5678787231,84.0208206177,-143.1096038818,0.0209270120,0.0239469409,0.0222155452,42.7522697449,43.3259658813,-176.9574127197,0.0704255104,-0.0149245560,-0.0025461316,
284.293,-3.3192498684,1.4052675962,32.4001197815,0.0528444014,0.0422570556,0.0146740675,-113.5712966919,73.0988311768,67.5400772095,0.0276084542,0.0568703711,0.0028620362,-13.5777444839,84.0169601440,-143.1129913330,0.0258027911,0.0215387046,0.0304569006,42.7525482178,43.3243446350,-176.9519348145,0.0733345747,-0.0129872859,-0.0030462146,
284.303,-3.3183286190,1.4056990147,32.4018478394,0.0587113015,0.0412644334,0.0068615079,-113.5692749023,73.0976409912,67.5431671143,0.0290672779,0.0564039946,0.0048136115,-13.5677137375,84.0178375244,-143.0960540771,0.0228747129,0.0303063095,0.0172827840,42.7581443787,43.3259658813,-176.9431457520,0.0640778542,-0.0022841096,-0.0117728114,
284.313,-3.3230402470,1.4050052166,32.4030151367,0.0582109168,0.0345105901,0.0058885217,-113.5601119995,73.0948944092,67.5516433716,0.0300298929,0.0579293966,0.0077187419,-13.5778417587,84.0173797607,-143.1004333496,0.0223855972,0.0259318948,0.0260686278,42.7597618103,43.3261718750,-176.9362640381,0.0709163547,-0.0076686144,-0.0078508854,
284.323,-3.3218882084,1.4058079720,32.4029273987,0.0592014864,0.0486506559,0.0073532462,-113.5579299927,73.0946426392,67.5556106567,0.0241692066,0.0598911643,0.0062454343,-13.5763988495,84.0164642334,-143.0908203125,0.0189659595,0.0264209509,0.0289838314,42.7578544617,43.3215866089,-176.9316101074,0.0752527118,-0.0125708580,0.0082056522,
284.333,-3.3210809231,1.4048484564,32.4040946960,0.0640675575,0.0471717753,0.0229772329,-113.5393676758,73.0932083130,67.5761337280,0.0285564661,0.0589742064,0.0120277405,-13.5831165314,84.0149536133,-143.0892486572,0.0248225927,0.0230211914,0.0255435109,42.7632980347,43.3218383789,-176.9213714600,0.0698847771,-0.0072485209,-0.0093233585,
284.343,-3.3203628063,1.4049032927,32.4046707153,0.0577208586,0.0427647345,0.0093042254,-113.5350952148,73.0895767212,67.5851593018,0.0295146108,0.0590381920,0.0091021657,-13.6029949188,84.0166625977,-143.1001434326,0.0233608484,0.0210972130,0.0163025260,42.7673683167,43.3173789978,-176.9122924805,0.0722695589,-0.0053695440,-0.0034680367,
284.353,-3.3210647106,1.4054226875,32.4058151245,0.0582182035,0.0442417860,0.0049108863,-113.5387420654,73.0857009888,67.5884246826,0.0255886912,0.0576249361,0.0008442402,-13.6293306351,84.0207290649,-143.1163024902,0.0272744894,0.0211284757,0.0139394999,42.7679977417,43.3180618286,-176.9050140381,0.0683719516,-0.0092761517,-0.0054097176,
284.363,-3.3202295303,1.4021276236,32.4058380127,0.0649966449,0.0432507657,0.0078383684,-113.5430221558,73.0830993652,67.5941085815,0.0304582715,0.0596090853,0.0033229589,-13.6267452240,84.0231857300,-143.1029663086,0.0282555223,0.0240435898,0.0193504691,42.7657775879,43.3184700012,-176.8985290527,0.0674006343,-0.0155997872,-0.0049369931,
284.373,-3.3188893795,1.4021519423,32.4069862366,0.0601142570,0.0427391417,0.0097900629,-113.5546188354,73.0803604126,67.5928268433,0.0294678211,0.0596273839,0.0029070973,-13.6214981079,84.0222625732,-143.0876159668,0.0282538533,0.0220849216,0.0349569917,42.7597274780,43.3182220459,-176.8949737549,0.0649560690,-0.0160336792,0.0067274570,
284.383,-3.3188917637,1.4035147429,32.4098358154,0.0620911606,0.0422508642,0.0058844090,-113.5786056519,73.0787887573,67.5825576782,0.0333660841,0.0635090470,0.0030296445,-13.6058092117,84.0220031738,-143.0626678467,0.0223940015,0.0323115587,0.0237154961,42.7596511841,43.3173446655,-176.8867340088,0.0688511133,-0.0077393353,-0.0025582314,
284.393,-3.3207485676,1.4029686451,32.4096679688,0.0659878850,0.0403300934,0.0053977966,-113.6132278442,73.0737915039,67.5604324341,0.0299227238,0.0610732734,-0.0045878887,-13.5702581406,84.0212783813,-143.0183410645,0.0209278464,0.0283441246,0.0271060467,42.7580871582,43.3173027039,-176.8813781738,0.0644561052,-0.0087016225,0.0052404404,
284.403,-3.3199176788,1.4032996893,32.4120445251,0.0591577217,0.0451984219,0.0058853626,-113.6407775879,73.0697708130,67.5435943604,0.0303905606,0.0557072759,0.0102162361,-13.5442686081,84.0200042725,-142.9828948975,0.0253200531,0.0268375278,0.0275617838,42.7571525574,43.3195114136,-176.8748168945,0.0644841790,-0.0101397336,-0.0030491352,
284.413,-3.3201010227,1.4037404060,32.4131431580,0.0606302544,0.0417836383,0.0049091578,-113.6825637817,73.0645980835,67.5116195679,0.0332939625,0.0547240674,0.0055630803,-13.5031042099,84.0211868286,-142.9336242676,0.0219042301,0.0316411853,0.0251234174,42.7574272156,43.3223152161,-176.8676147461,0.0664728880,-0.0150023103,-0.0054634809,
284.423,-3.3208131790,1.4044251442,32.4141883850,0.0621070489,0.0398429036,0.0102812052,-113.7311248779,73.0609970093,67.4718551636,0.0288811326,0.0576092005,-0.0000452995,-13.4637279510,84.0202713013,-142.8847503662,0.0233674049,0.0276676416,0.0236260295,42.7580909729,43.3258209229,-176.8600921631,0.0616345406,-0.0066793561,-0.0015206933,
284.433,-3.3209016323,1.4064942598,32.4146232605,0.0572603345,0.0398443937,0.0146768689,-113.7767257690,73.0571823120,67.4324569702,0.0288617015,0.0546441674,0.0084940791,-13.4330606461,84.0220413208,-142.8464813232,0.0223940611,0.0280936956,0.0182706118,42.7568397522,43.3302001953,-176.8555450439,0.0597370267,-0.0100499988,-0.0019813180,
284.443,-3.3190727234,1.4092066288,32.4157295227,0.0548662581,0.0466484055,0.0058866143,-113.8127822876,73.0551071167,67.3991012573,0.0317808390,0.0604610145,0.0125826597,-13.4132719040,84.0232849121,-142.8191070557,0.0267908573,0.0280529261,0.0182833672,42.7572708130,43.3317298889,-176.8498992920,0.0704986453,-0.0119946897,-0.0063585043,
284.453,-3.3178515434,1.4098802805,32.4174957275,0.0558545738,0.0422325879,0.0112574100,-113.8472137451,73.0510559082,67.3676681519,0.0283422470,0.0526400208,0.0069113374,-13.3671035767,84.0204010010,-142.7646789551,0.0267856121,0.0260280073,0.0279809237,42.7587509155,43.3343811035,-176.8442840576,0.0661377907,-0.0124752223,-0.0097405910,
284.463,-3.3167641163,1.4097917080,32.4187011719,0.0602475554,0.0505144261,0.0019785762,-113.8817062378,73.0483016968,67.3331451416,0.0234454274,0.0506576300,0.0031847358,-13.3296813965,84.0209884644,-142.7207946777,0.0223921537,0.0249817073,0.0226030350,42.7598304749,43.3349380493,-176.8398437500,0.0680979490,-0.0071096420,-0.0067965984,
284.473,-3.3166928291,1.4099860191,32.4174652100,0.0548798554,0.0427006818,0.0151624680,-113.8931350708,73.0490798950,67.3179321289,0.0249142647,0.0501332581,0.0071390867,-13.3203706741,84.0227584839,-142.7055206299,0.0272781849,0.0220283270,0.0177453756,42.7617454529,43.3351783752,-176.8335876465,0.0729838014,-0.0110318363,-0.0082429051,
284.483,-3.3152179718,1.4117302895,32.4204063416,0.0563751310,0.0431632362,0.0024662018,-113.8974914551,73.0558929443,67.3042602539,0.0200660825,0.0588099360,0.0056487322,-13.2700815201,84.0192184448,-142.6487426758,0.0204358101,0.0243924260,0.0328040719,42.7623367310,43.3374710083,-176.8295440674,0.0671535134,-0.0071125329,-0.0052880049,
284.493,-3.3139910698,1.4092931747,32.4228668213,0.0646333843,0.0465598851,0.0078350902,-113.9056930542,73.0670852661,67.2814178467,0.0254940987,0.0586223602,0.0060997605,-13.2602319717,84.0171890259,-142.6317901611,0.0233618021,0.0238942802,0.0244655609,42.7582244873,43.3396911621,-176.8276214600,0.0637637973,-0.0187747777,-0.0004208684,
284.503,-3.3124978542,1.4081543684,32.4233894348,0.0641252398,0.0411628075,0.0112509727,-113.9273681641,73.0809173584,67.2473754883,0.0284940600,0.0656915307,0.0061074495,-13.2239542007,84.0141677856,-142.5878601074,0.0248211622,0.0243290961,0.0258632898,42.7580146790,43.3413848877,-176.8228454590,0.0681798458,-0.0128997862,-0.0028496385,
284.513,-3.3116796017,1.4076524973,32.4251747131,0.0597219504,0.0431016870,0.0034375191,-113.9628295898,73.0938262939,67.1987609863,0.0305127501,0.0566328168,-0.0040686131,-13.2075672150,84.0108337402,-142.5643768311,0.0213971138,0.0252886713,0.0292209387,42.7585754395,43.3423805237,-176.8169555664,0.0681924820,-0.0075257421,0.0030236840,
284.523,-3.3118894100,1.4052733183,32.4276084900,0.0665163770,0.0479882136,0.0063664913,-114.0134582520,73.1084594727,67.1364822388,0.0300986767,0.0694894195,-0.0014906526,-13.1757917404,84.0051422119,-142.5249176025,0.0233398676,0.0228122175,0.0344824195,42.7566032410,43.3453865051,-176.8122406006,0.0672540665,-0.0167602897,-0.0038028359,
284.533,-3.3112580776,1.4076036215,32.4286918640,0.0563031286,0.0445591919,0.0092964172,-114.0752105713,73.1199569702,67.0679855347,0.0306452513,0.0623510480,-0.0007935166,-13.1292858124,83.9996871948,-142.4698638916,0.0316306949,0.0203073025,0.0226557851,42.7554168701,43.3481750488,-176.8075103760,0.0663128495,-0.0123320520,-0.0081832409,
284.543,-3.3103334904,1.4072350264,32.4298591614,0.0616677925,0.0455196612,0.0146664381,-114.1438522339,73.1310195923,66.9991378784,0.0316779017,0.0635050535,0.0092152953,-13.0683889389,83.9967117310,-142.4006042480,0.0247893333,0.0250913203,0.0255098343,42.7555656433,43.3483924866,-176.8038330078,0.0682687759,-0.0079371035,-0.0008556843,
284.553,-3.3093042374,1.4081457853,32.4309539795,0.0611953996,0.0459899940,0.0068532228,-114.2305145264,73.1412887573,66.9126968384,0.0336830020,0.0602394640,0.0007578731,-13.0212621689,83.9933776855,-142.3451080322,0.0228301287,0.0220888853,0.0298295617,42.7553024292,43.3502922058,-176.7985839844,0.0687811375,-0.0098723173,-0.0052356720,
284.563,-3.3094723225,1.4102835655,32.4319305420,0.0612327009,0.0396452136,0.0083192587,-114.3047637939,73.1525344849,66.8378829956,0.0288570523,0.0638200045,0.0103021264,-12.9393587112,83.9927291870,-142.2543029785,0.0238054991,0.0282904804,0.0239247084,42.7512817383,43.3481636047,-176.7970275879,0.0746135116,-0.0074108541,0.0015463233,
284.573,-3.3097758293,1.4096958637,32.4343566895,0.0602458864,0.0455098934,0.0063657761,-114.3856430054,73.1614532471,66.7556381226,0.0293904543,0.0576564670,0.0067085028,-12.8816967010,83.9912872314,-142.1876373291,0.0242911577,0.0233084559,0.0243650675,42.7498855591,43.3501853943,-176.7928771973,0.0702446699,-0.0112875402,-0.0043069124,
284.583,-3.3099491596,1.4093457460,32.4360847473,0.0617046207,0.0416066647,0.0141789913,-114.4678497314,73.1684417725,66.6745986938,0.0196601748,0.0617727935,-0.0002841949,-12.8177394867,83.9898529053,-142.1159515381,0.0272182226,0.0251506567,0.0262687802,42.7464103699,43.3513336182,-176.7888183594,0.0683060884,-0.0097810328,0.0069037676,
284.593,-3.3115801811,1.4086974859,32.4384384155,0.0626698732,0.0387054086,0.0083199739,-114.5225524902,73.1734237671,66.6239242554,0.0265212655,0.0527935326,0.0150706172,-12.7721176147,83.9909973145,-142.0601043701,0.0150132775,0.0255517960,0.0140615702,42.7414970398,43.3541069031,-176.7860565186,0.0629701614,-0.0145955086,0.0054208636,
284.603,-3.3133165836,1.4074828625,32.4407882690,0.0626486763,0.0382473953,0.0122282505,-114.5673522949,73.1801910400,66.5860595703,0.0211843848,0.0604091883,0.0118123293,-12.7395763397,83.9930267334,-142.0192413330,0.0306419730,0.0249969661,0.0165223479,42.7406311035,43.3573837280,-176.7808990479,0.0595937967,-0.0106544793,-0.0023702979,
284.613,-3.3132324219,1.4077495337,32.4413185120,0.0592353642,0.0426404551,0.0127164721,-114.5910568237,73.1801757813,66.5731735229,0.0246022344,0.0505943596,0.0104569197,-12.6961517334,83.9916152954,-141.9651794434,0.0277097225,0.0293178558,0.0247819424,42.7379341125,43.3562889099,-176.7756500244,0.0703220963,-0.0130796432,-0.0048444271,
284.623,-3.3139553070,1.4043890238,32.4419708252,0.0655243844,0.0441179797,0.0122274160,-114.6034393311,73.1753692627,66.5767211914,0.0211600065,0.0491763651,0.0076176524,-12.6835794449,83.9931793213,-141.9431457520,0.0247828960,0.0263594389,0.0233380198,42.7391891479,43.3581886292,-176.7674407959,0.0591157079,-0.0096578896,-0.0013989806,
284.633,-3.3138422966,1.4034081697,32.4437789917,0.0591596141,0.0406980664,0.0005078316,-114.5941238403,73.1673583984,66.6025466919,0.0191664100,0.0463871956,0.0105599761,-12.6958112717,83.9919815063,-141.9447784424,0.0223392844,0.0263861120,0.0286944509,42.7431488037,43.3613700867,-176.7557220459,0.0640389323,-0.0116221309,-0.0096377134,
284.643,-3.3112199306,1.4031603336,32.4473724365,0.0611084178,0.0450469218,-0.0029127002,-114.5697326660,73.1534271240,66.6408691406,0.0205608010,0.0461613834,0.0115204453,-12.7237625122,83.9926986694,-141.9637908936,0.0242937207,0.0215513706,0.0228586197,42.7460479736,43.3604850769,-176.7467498779,0.0635393262,-0.0077501535,-0.0027846694,
284.653,-3.3103778362,1.4054193497,32.4484977722,0.0543118939,0.0474736132,0.0058766603,-114.5330352783,73.1343688965,66.6843643188,0.0302299857,0.0450626612,0.0036702752,-12.7780590057,83.9928970337,-142.0103454590,0.0228292346,0.0196961462,0.0204427838,42.7490425110,43.3595848083,-176.7379760742,0.0625514388,-0.0107149482,-0.0076492429,
284.663,-3.3125631809,1.4043159485,32.4477996826,0.0635699853,0.0392109193,0.0063662529,-114.4979400635,73.1121597290,66.7193374634,0.0350002646,0.0484024882,0.0026848316,-12.8191728592,83.9949188232,-142.0443267822,0.0242977738,0.0192749500,0.0195165277,42.7467079163,43.3575477600,-176.7324676514,0.0664317608,-0.0180341601,0.0011011958,
284.673,-3.3129050732,1.4038743973,32.4488449097,0.0660036877,0.0411700122,0.0088086128,-114.4682464600,73.0877380371,66.7444305420,0.0368294716,0.0522536933,-0.0050967336,-12.8513917923,83.9952087402,-142.0730133057,0.0335756540,0.0178673267,0.0200238228,42.7467689514,43.3568687439,-176.7285003662,0.0732591152,-0.0141338110,-0.0057398081,
284.683,-3.3135285378,1.4049718380,32.4506759644,0.0543040857,0.0465519391,0.0088087320,-114.4474945068,73.0649871826,66.7567596436,0.0313428044,0.0594778657,-0.0001534224,-12.9049749374,83.9983444214,-142.1237640381,0.0286985636,0.0203942657,0.0161908865,42.7502365112,43.3563041687,-176.7233428955,0.0742285252,-0.0092879832,-0.0096210837,
284.693,-3.3129720688,1.4021147490,32.4513282776,0.0615784526,0.0421477854,0.0117374659,-114.4323577881,73.0380096436,66.7606887817,0.0336469412,0.0545472503,-0.0029675364,-12.8957271576,84.0003051758,-142.1141967773,0.0282138586,0.0242764354,0.0186603665,42.7477607727,43.3553886414,-176.7237548828,0.0688458681,-0.0092723072,0.0006035566,
284.703,-3.3129062653,1.4005479813,32.4525794983,0.0591097102,0.0426349565,0.0053885579,-114.4278640747,73.0130233765,66.7564926147,0.0310782194,0.0549360812,0.0089021325,-12.8975296021,83.9988403320,-142.1131134033,0.0233283639,0.0208669305,0.0230332017,42.7485771179,43.3584823608,-176.7209320068,0.0693733692,-0.0146258473,-0.0042450428,
284.713,-3.3123893738,1.4024293423,32.4524955750,0.0532831587,0.0421376266,0.0073423386,-114.4554672241,72.9906921387,66.7228088379,0.0270580053,0.0664459467,-0.0064402819,-12.8578462601,84.0014114380,-142.0700531006,0.0243096352,0.0261566639,0.0201277733,42.7536773682,43.3620681763,-176.7144470215,0.0674657226,-0.0053669214,-0.0100290775,
284.723,-3.3131189346,1.4022403955,32.4536819458,0.0586509593,0.0441034585,0.0078311563,-114.4666748047,72.9692077637,66.7083358765,0.0298779607,0.0594235659,0.0128030777,-12.8204965591,84.0047149658,-142.0285797119,0.0208976865,0.0241230428,0.0152858496,42.7548828125,43.3660430908,-176.7098236084,0.0704458952,-0.0107169151,-0.0065656900,
284.733,-3.3129849434,1.4056168795,32.4535522461,0.0523622148,0.0450776070,0.0083206892,-114.4858169556,72.9519042969,66.6905593872,0.0263715386,0.0689222813,0.0110585690,-12.7937030792,84.0062179565,-141.9964904785,0.0282246470,0.0235806108,0.0177407265,42.7551918030,43.3667793274,-176.7061614990,0.0733849406,-0.0136435032,-0.0041151643,
284.743,-3.3128213882,1.4078534842,32.4563560486,0.0611902997,0.0406801738,0.0063686371,-114.5089340210,72.9367141724,66.6723709106,0.0282468796,0.0676384568,0.0117596984,-12.7769889832,84.0041275024,-141.9725952148,0.0228497386,0.0201401711,0.0294182301,42.7517929077,43.3661460876,-176.7026062012,0.0738651752,-0.0126404166,0.0007327795,
284.753,-3.3135919571,1.4062161446,32.4581489563,0.0640914142,0.0416701995,0.0141804218,-114.5329895020,72.9293975830,66.6545562744,0.0262562633,0.0642799139,0.0168055296,-12.7494745255,84.0046463013,-141.9378509521,0.0233389735,0.0196002126,0.0176956654,42.7491607666,43.3672866821,-176.6980285645,0.0694850683,-0.0126065612,-0.0075806975,
284.763,-3.3135097027,1.4074273109,32.4592094421,0.0602063052,0.0426452979,0.0088105202,-114.5601806641,72.9263458252,66.6325073242,0.0252640843,0.0686627328,0.0081647038,-12.7013921738,84.0013504028,-141.8814697266,0.0213798285,0.0288022757,0.0273894072,42.7453498840,43.3682441711,-176.6969451904,0.0680323839,-0.0110984445,-0.0061402321,
284.773,-3.3135080338,1.4073415995,32.4602928162,0.0626462102,0.0402038693,0.0097869635,-114.5851669312,72.9258880615,66.6122436523,0.0301445127,0.0686162412,0.0141441226,-12.6341600418,83.9996490479,-141.8084716797,0.0223532915,0.0252694488,0.0287939906,42.7422485352,43.3692283630,-176.6942596436,0.0690214634,-0.0105732381,0.0011659861,
284.783,-3.3153600693,1.4097955227,32.4625511169,0.0582944974,0.0421891920,0.0102777481,-114.6235427856,72.9290008545,66.5757827759,0.0238128304,0.0621393919,-0.0008347034,-12.5857219696,83.9977874756,-141.7514801025,0.0218616128,0.0217696130,0.0243533254,42.7398262024,43.3726768494,-176.6909942627,0.0676003098,-0.0100343823,0.0041049719,
284.793,-3.3148896694,1.4095453024,32.4630928040,0.0607315376,0.0441341288,0.0034413934,-114.6515731812,72.9398269653,66.5458450317,0.0253331065,0.0667988658,0.0080103278,-12.5188322067,83.9961547852,-141.6750030518,0.0228351951,0.0245839059,0.0238102674,42.7345962524,43.3763999939,-176.6885833740,0.0696007013,-0.0148381889,-0.0027432442,
284.803,-3.3130204678,1.4085445404,32.4642715454,0.0592492372,0.0382422172,0.0049039125,-114.6594696045,72.9588775635,66.5341873169,0.0234774947,0.0674704909,0.0196335316,-12.4514713287,83.9967117310,-141.6005554199,0.0247893333,0.0254362822,0.0247673988,42.7307929993,43.3782196045,-176.6862335205,0.0701120496,-0.0059988797,0.0011463761,
284.813,-3.3135027885,1.4095381498,32.4660530090,0.0568251610,0.0470396578,0.0092993975,-114.6516036987,72.9837646484,66.5407104492,0.0231164098,0.0632042289,0.0194242597,-12.4133129120,83.9939346313,-141.5541839600,0.0203897357,0.0278181732,0.0334967971,42.7321395874,43.3811378479,-176.6796722412,0.0686842799,-0.0069642067,-0.0149295330,
284.823,-3.3139812946,1.4122340679,32.4658889771,0.0568722039,0.0450948030,0.0078361630,-114.6429443359,73.0099716187,66.5534057617,0.0164142251,0.0633147359,0.0026003122,-12.3849973679,83.9919433594,-141.5187530518,0.0242923498,0.0243560076,0.0256395936,42.7294082642,43.3804969788,-176.6763000488,0.0711175203,-0.0079205632,0.0006662607,
284.833,-3.3138382435,1.4127566814,32.4670104980,0.0583461635,0.0406977646,0.0093013048,-114.6035842896,73.0372085571,66.6034317017,0.0175296068,0.0615218282,0.0154120922,-12.3923816681,83.9929199219,-141.5146331787,0.0223410130,0.0194830596,0.0178462863,42.7270469666,43.3811187744,-176.6722412109,0.0657542944,-0.0093582571,-0.0042313337,
284.843,-3.3135406971,1.4115542173,32.4682807922,0.0578369051,0.0455754213,0.0053942204,-114.5556640625,73.0648269653,66.6674804688,0.0147404075,0.0607166886,0.0071858168,-12.4285612106,83.9943313599,-141.5395050049,0.0223435760,0.0219853520,0.0227659345,42.7237091064,43.3819046021,-176.6649780273,0.0686939359,-0.0156685114,-0.0062063336,
284.853,-3.3134591579,1.4106912613,32.4688148499,0.0631929412,0.0426443368,0.0122297406,-114.4786376953,73.0955810547,66.7593612671,0.0300333500,0.0560187995,0.0134521127,-12.4508399963,83.9927597046,-141.5498504639,0.0184344649,0.0230081081,0.0276318789,42.7228240967,43.3811798096,-176.6558532715,0.0633136630,-0.0078536570,-0.0096383691,
284.863,-3.3121943474,1.4114135504,32.4700431824,0.0534399189,0.0445754156,0.0122283697,-114.3848953247,73.1308059692,66.8630752563,0.0287470818,0.0566580594,0.0132633448,-12.4788885117,83.9936752319,-141.5653686523,0.0238072276,0.0250088573,0.0183809996,42.7184295654,43.3797187805,-176.6486206055,0.0628068447,-0.0127073526,0.0039830804,
284.873,-3.3131990433,1.4100822210,32.4706764221,0.0602526255,0.0475226305,0.0039283633,-114.2455825806,73.1729736328,67.0028839111,0.0274955630,0.0509372354,0.0260016918,-12.5142173767,83.9944229126,-141.5886688232,0.0247851610,0.0221403837,0.0179210305,42.7122421265,43.3798942566,-176.6456146240,0.0672036409,-0.0146013200,-0.0014398098,
284.883,-3.3115873337,1.4086813927,32.4724731445,0.0651109964,0.0479828715,0.0063670874,-114.0929718018,73.2242584229,67.1430206299,0.0311722755,0.0597506762,0.0176225305,-12.5090923309,83.9976272583,-141.5722045898,0.0164902210,0.0255372822,0.0165069699,42.7055358887,43.3817939758,-176.6436614990,0.0735753775,-0.0159882307,-0.0044109821,
284.893,-3.3128542900,1.4066710472,32.4730491638,0.0626345128,0.0401924923,0.0044151545,-113.8936996460,73.2852096558,67.3203506470,0.0275725126,0.0538599491,0.0236150622,-12.4703207016,83.9941329956,-141.5240631104,0.0199018121,0.0298745632,0.0261969566,42.6951408386,43.3844909668,-176.6450805664,0.0721447468,-0.0173341334,-0.0010577440,
284.903,-3.3150954247,1.4070339203,32.4740524292,0.0650822520,0.0368135534,0.0024639368,-113.6618728638,73.3570785522,67.5244598389,0.0201200247,0.0600690842,0.0293896198,-12.4332180023,83.9974670410,-141.4780883789,0.0223492980,0.0278414488,0.0194033384,42.6923561096,43.3885498047,-176.6419372559,0.0624305606,-0.0055565834,-0.0054415464,
284.913,-3.3153486252,1.4089683294,32.4744834900,0.0597449094,0.0436538532,0.0102776289,-113.3785018921,73.4396743774,67.7738723755,0.0122311115,0.0613241196,0.0236334205,-12.4466953278,83.9959640503,-141.4839019775,0.0242996812,0.0225006342,0.0252414942,42.6906280518,43.3910980225,-176.6371154785,0.0688105822,-0.0040547252,-0.0034797192,
284.923,-3.3157949448,1.4104162455,32.4755630493,0.0592818931,0.0451264381,0.0058844090,-113.0288085938,73.5323486328,68.0888366699,0.0058549643,0.0625404716,0.0370487571,-12.4691886902,83.9959259033,-141.4958038330,0.0008621216,0.0279123187,0.0286702514,42.6890678406,43.3919906616,-176.6304931641,0.0610094070,-0.0118455887,-0.0044628978,
284.933,-3.3140707016,1.4122341871,32.4766883850,0.0558956414,0.0441197976,0.0073478222,-112.6372756958,73.6342544556,68.4538421631,0.0112404227,0.0666066408,0.0370435119,-12.5370330811,83.9939041138,-141.5519256592,0.0174599886,0.0251137912,0.0345212817,42.6932716370,43.3914146423,-176.6203002930,0.0639317632,-0.0031002760,-0.0132200718,
284.943,-3.3127973080,1.4158993959,32.4771041870,0.0535181873,0.0426326804,0.0049073696,-112.2025680542,73.7385330200,68.8696441650,0.0205407143,0.0741117895,0.0280543566,-12.6440353394,83.9976272583,-141.6419067383,0.0189316273,0.0340832770,0.0204674602,42.6963005066,43.3900299072,-176.6077423096,0.0600079894,-0.0060695708,-0.0097889304,
284.953,-3.3101489544,1.4150657654,32.4795951843,0.0588747337,0.0494225025,0.0034384131,-111.6888427734,73.8504714966,69.3728485107,0.0225508213,0.0767317414,0.0426036716,-12.7781763077,83.9952697754,-141.7596130371,0.0169742107,0.0279887319,0.0287801027,42.6973152161,43.3867645264,-176.5957794189,0.0609430671,-0.0080586374,-0.0054141879,
284.963,-3.3097431660,1.4183788300,32.4806213379,0.0550262891,0.0416028537,0.0102761388,-111.0951995850,73.9598541260,69.9666213989,0.0367519259,0.0658247769,0.0446232557,-12.8894510269,83.9968414307,-141.8535156250,0.0345551968,0.0228131711,0.0205541849,42.6979866028,43.3843078613,-176.5839691162,0.0697010159,-0.0119910836,-0.0122658610,
284.973,-3.3096079826,1.4165036678,32.4830856323,0.0608529486,0.0425771102,0.0175993443,-110.3899383545,74.0702362061,70.6670761108,0.0543723106,0.0628591180,0.0456700325,-12.9477024078,83.9940032959,-141.8938446045,0.0345500112,0.0239063203,0.0293200016,42.6886520386,43.3821334839,-176.5788269043,0.0760211349,-0.0138748884,-0.0025995970,
284.983,-3.3080744743,1.4166356325,32.4847831726,0.0637849420,0.0435269512,0.0000193715,-109.5735321045,74.1760559082,71.4579849243,0.0456002355,0.0478807688,0.0404106975,-12.9927301407,83.9914855957,-141.9187316895,0.0330805779,0.0171613991,0.0209981203,42.6794052124,43.3830490112,-176.5741882324,0.0755444169,-0.0132928491,-0.0090186596,
284.993,-3.3054256439,1.4181181192,32.4853057861,0.0569748655,0.0473870300,0.0083189011,-108.6706008911,74.2747879028,72.3070373535,0.0411858559,0.0350283980,0.0294584036,-13.0165424347,83.9895629883,-141.9251556396,0.0247762799,0.0240482688,0.0243923664,42.6683464050,43.3857612610,-176.5705871582,0.0736256838,-0.0112144947,0.0006757975,
285.003,-3.3049995899,1.4181711674,32.4869804382,0.0643000156,0.0395671055,0.0063642859,-107.7304687500,74.3727493286,73.1670455933,0.0186986327,0.0436450243,0.0095810890,-13.0515642166,83.9883575439,-141.9419555664,0.0228209496,0.0167919695,0.0292714238,42.6643257141,43.3869667053,-176.5619659424,0.0697347522,-0.0111672282,-0.0027661324,
285.013,-3.3043062687,1.4195028543,32.4857215881,0.0526044965,0.0429729670,-0.0004708767,-106.7653579712,74.4721221924,74.0298233032,0.0147698522,0.0477914810,0.0091452003,-13.0889263153,83.9890441895,-141.9623260498,0.0076854825,0.0359005034,0.0253902674,42.6639213562,43.3883285522,-176.5497894287,0.0585215688,-0.0057812631,0.0035899878,
285.023,-3.3042778969,1.4197711945,32.4856071472,0.0589568391,0.0361365266,0.0083177686,-105.7982177734,74.5731582642,74.8810729980,0.0098693371,0.0542656779,0.0018880963,-13.1974496841,83.9881591797,-142.0525817871,0.0154963732,0.0307294428,0.0356773734,42.6669197083,43.3866043091,-176.5348358154,0.0550817251,-0.0097295344,0.0016473532,
285.033,-3.3040874004,1.4182113409,32.4879722595,0.0657655597,0.0429691859,0.0058758855,-104.8350067139,74.6728439331,75.7239379883,0.0244908333,0.0557844043,-0.0062876940,-13.3793563843,83.9908370972,-142.2162933350,0.0096418858,0.0281195343,0.0274969935,42.6739692688,43.3822097778,-176.5156250000,0.0511197448,-0.0108075738,0.0011810064,
285.043,-3.3062458038,1.4164192677,32.4885215759,0.0642694458,0.0391005762,0.0112484097,-103.8571853638,74.7768554688,76.5882110596,0.0274105072,0.0766928494,0.0113675594,-13.5550251007,83.9906082153,-142.3737487793,0.0164774060,0.0303913653,0.0314784050,42.6796760559,43.3720016479,-176.4966888428,0.0631972551,-0.0133850574,-0.0022776723,
285.053,-3.3048655987,1.4151512384,32.4916152954,0.0583879426,0.0449359454,0.0039222240,-102.8856124878,74.8762588501,77.4529647827,0.0342122912,0.0658415556,-0.0075136423,-13.7709627151,83.9920043945,-142.5708923340,0.0296635628,0.0278473794,0.0174342990,42.6852760315,43.3615837097,-176.4781494141,0.0611119270,-0.0120571554,-0.0018330812,
285.063,-3.3068256378,1.4171347618,32.4945068359,0.0579342693,0.0395989344,0.0107606053,-101.8484420776,74.9798202515,78.3672027588,0.0590963364,0.0656398535,0.0128882527,-13.9631195068,83.9895324707,-142.7434692383,0.0267293453,0.0252753198,0.0213857889,42.6877403259,43.3530387878,-176.4635009766,0.0702808499,-0.0116612315,-0.0067698359,
285.073,-3.3064372540,1.4146227837,32.4963073730,0.0647263825,0.0415453613,0.0068534613,-100.7859573364,75.0826187134,79.2900238037,0.0600480437,0.0624432862,0.0029513836,-14.1219024658,83.9863967896,-142.8850402832,0.0340478420,0.0231344402,0.0214036703,42.6873741150,43.3436698914,-176.4514007568,0.0779744387,-0.0092925131,-0.0009962320,
285.083,-3.3066756725,1.4132058620,32.4981269836,0.0607954077,0.0415495485,0.0039229393,-99.7202529907,75.1797561646,80.2005996704,0.0580416918,0.0597324371,-0.0137735009,-14.2313299179,83.9808578491,-142.9781646729,0.0320845842,0.0155424774,0.0286885500,42.6807899475,43.3393363953,-176.4436187744,0.0774311423,-0.0097545385,0.0037918091,
285.093,-3.3032627106,1.4116941690,32.4975357056,0.0607690290,0.0458846688,0.0078253150,-98.6726608276,75.2714691162,81.0940780640,0.0472193956,0.0599307418,-0.0176646709,-14.2990159988,83.9779281616,-143.0298004150,0.0223135948,0.0259312689,0.0257409215,42.6777153015,43.3386955261,-176.4344482422,0.0637511015,-0.0141254663,-0.0016112924,
285.103,-3.3031470776,1.4137268066,32.4967956543,0.0568982437,0.0429529175,0.0068490505,-97.6323165894,75.3595046997,81.9848632813,0.0373550057,0.0674169958,-0.0117073059,-14.3715543747,83.9751052856,-143.0832214355,0.0169373155,0.0275390148,0.0213345289,42.6767692566,43.3411483765,-176.4223632813,0.0637822151,-0.0106788278,0.0013317466,
285.113,-3.3011946678,1.4140200615,32.4972915649,0.0632510185,0.0492665507,0.0073363185,-96.5936050415,75.4454879761,82.8903198242,0.0352917910,0.0733819902,-0.0081381202,-14.4760475159,83.9751358032,-143.1680297852,0.0188905001,0.0228454769,0.0262645483,42.6805725098,43.3388023376,-176.4089660645,0.0642407537,-0.0038973987,-0.0089100003,
285.123,-3.3010864258,1.4144679308,32.4959831238,0.0603291504,0.0429170057,0.0112417936,-95.5226058960,75.5320358276,83.8352966309,0.0263929367,0.0670521557,0.0070518851,-14.6191282272,83.9740219116,-143.2902221680,0.0179119110,0.0255496502,0.0277814269,42.6885833740,43.3375358582,-176.3899688721,0.0617832541,-0.0059355497,-0.0093404651,
285.133,-3.2986748219,1.4150633812,32.4971618652,0.0559450090,0.0443398282,0.0092872977,-94.3734436035,75.6231842041,84.8532867432,0.0326485634,0.0757169425,0.0068051815,-14.7625465393,83.9746093750,-143.4160308838,0.0227957964,0.0297130346,0.0200442076,42.6932983398,43.3313484192,-176.3730926514,0.0617047548,-0.0040767193,-0.0074012280,
285.143,-3.2974350452,1.4175691605,32.4995155334,0.0540356040,0.0443181656,0.0180753469,-93.1132202148,75.7225494385,85.9639358521,0.0379605293,0.0704924166,0.0237032771,-14.8960027695,83.9752349854,-143.5311431885,0.0227969289,0.0294630229,0.0162119865,42.6945075989,43.3274116516,-176.3586273193,0.0684907436,-0.0109559298,-0.0064495206,
285.153,-3.2988526821,1.4180008173,32.5005302429,0.0652735978,0.0394600406,0.0136831999,-91.8091125488,75.8193893433,87.1203155518,0.0442353487,0.0808166265,0.0092318058,-15.0267534256,83.9713897705,-143.6448211670,0.0315789580,0.0282510519,0.0274424553,42.6911315918,43.3258476257,-176.3471221924,0.0674943328,-0.0138666630,-0.0011200905,
285.163,-3.2980406284,1.4175159931,32.5004463196,0.0638003051,0.0453052782,0.0097754002,-90.4629058838,75.9095153809,88.3223800659,0.0455960631,0.0759894699,0.0044174790,-15.1372022629,83.9698638916,-143.7350463867,0.0271816254,0.0260158479,0.0269824266,42.6886901855,43.3232536316,-176.3353424072,0.0718559027,-0.0128885508,-0.0045830607,
285.173,-3.2988090515,1.4171690941,32.5021705627,0.0637942478,0.0438538268,0.0127063394,-89.0860443115,75.9815750122,89.5567703247,0.0405303836,0.0610739142,0.0000275373,-15.2183742523,83.9654083252,-143.7948455811,0.0232672095,0.0300883651,0.0313438177,42.6923599243,43.3188552856,-176.3165893555,0.0698468685,-0.0051458478,-0.0011714101,
285.183,-3.3003122807,1.4162478447,32.5027084351,0.0632898957,0.0414386354,0.0092884898,-87.6770019531,76.0361099243,90.8218688965,0.0353894234,0.0555839837,0.0058052540,-15.3706245422,83.9665756226,-143.9264068604,0.0193631053,0.0284047127,0.0255786777,42.6976127625,43.3135261536,-176.2966156006,0.0702675581,-0.0081678629,-0.0011731386,
285.193,-3.2994074821,1.4137027264,32.5033073425,0.0666634515,0.0477705933,0.0048926473,-86.2572250366,76.0812530518,92.0986099243,0.0433917642,0.0569431186,-0.0050239563,-15.5650062561,83.9655761719,-144.0982208252,0.0188729763,0.0248532295,0.0305429697,42.7048606873,43.3039054871,-176.2732086182,0.0603797436,-0.0073370934,0.0022225976,
285.203,-3.3014497757,1.4139792919,32.5031890869,0.0612971857,0.0395053700,0.0146600008,-84.7774276733,76.1127548218,93.4237213135,0.0528011918,0.0466423333,-0.0019165277,-15.7993946075,83.9674606323,-144.3105926514,0.0188764334,0.0213610232,0.0175059438,42.7179412842,43.2956809998,-176.2460479736,0.0651580691,-0.0119204521,-0.0040846467,
285.213,-3.3024384975,1.4128855467,32.5049972534,0.0598132536,0.0409874693,0.0083131790,-83.2186813354,76.1416549683,94.8113021851,0.0538986921,0.0606037676,0.0101756454,-16.0272541046,83.9667434692,-144.5200805664,0.0257110596,0.0203092098,0.0244476795,42.7211570740,43.2877845764,-176.2283172607,0.0650576949,-0.0164091289,0.0056391358,
285.223,-3.3017599583,1.4102051258,32.5068168640,0.0656258613,0.0424405672,0.0146592855,-81.6062393188,76.1734313965,96.2384872437,0.0545196533,0.0718670785,0.0006170273,-16.2070617676,83.9663543701,-144.6825408936,0.0198509693,0.0162397027,0.0225811601,42.7214889526,43.2815856934,-176.2150878906,0.0732797384,-0.0223218799,-0.0027131438,
285.233,-3.3004486561,1.4099104404,32.5062141418,0.0563433766,0.0429060049,0.0024502873,-79.9638519287,76.2129516602,97.6887435913,0.0595670938,0.0867037922,-0.0006844401,-16.3389282227,83.9653472900,-144.8021087646,0.0286381841,0.0267350078,0.0211699605,42.7221946716,43.2776031494,-176.2042388916,0.0659049153,-0.0184545815,-0.0076249242,
285.243,-3.2978866100,1.4094451666,32.5055465698,0.0612180717,0.0472559258,0.0029364824,-78.3205032349,76.2579650879,99.1315994263,0.0646368265,0.0944261253,-0.0150820613,-16.4447860718,83.9648895264,-144.8976440430,0.0218014121,0.0293689966,0.0231696963,42.7232360840,43.2764053345,-176.1931610107,0.0678428411,-0.0194506049,-0.0017672181,
285.253,-3.2989292145,1.4109491110,32.5042266846,0.0588029101,0.0453209206,0.0122145414,-76.7068557739,76.3025894165,100.5539016724,0.0584738851,0.1005339175,-0.0165823698,-16.5533123016,83.9664459229,-144.9940032959,0.0178980231,0.0290674865,0.0291136503,42.7307472229,43.2728919983,-176.1746520996,0.0599857569,-0.0073421597,-0.0017330647,
285.263,-3.2987730503,1.4104588032,32.5041694641,0.0617240369,0.0472713448,0.0112382770,-75.1215438843,76.3356628418,101.9662094116,0.0551924706,0.0876453519,-0.0150060654,-16.7012348175,83.9672622681,-145.1293029785,0.0149698257,0.0312823355,0.0262739658,42.7426643372,43.2677993774,-176.1536865234,0.0565029979,-0.0050534010,-0.0050929785,
285.273,-3.2968726158,1.4098180532,32.5040473938,0.0665956736,0.0447968394,0.0122125149,-73.5721054077,76.3525085449,103.3607254028,0.0689337254,0.0851469189,-0.0113341212,-16.8986377716,83.9694366455,-145.3098297119,0.0232746005,0.0316243768,0.0254423618,42.7583923340,43.2588233948,-176.1286010742,0.0656662583,-0.0091794431,0.0003343821,
285.283,-3.2983648777,1.4100074768,32.5063591003,0.0617161654,0.0414048694,0.0039135218,-72.0550460815,76.3516693115,104.7261199951,0.0782076120,0.0798838139,-0.0109819770,-17.1244583130,83.9736709595,-145.5187225342,0.0193760991,0.0256598890,0.0212373734,42.7726936340,43.2470130920,-176.1037292480,0.0616098642,-0.0123383403,0.0052379966,
285.293,-3.2974851131,1.4139711857,32.5067329407,0.0569025129,0.0433425717,0.0097733140,-70.5649719238,76.3354568481,106.0623855591,0.0825353265,0.0727906823,-0.0208135247,-17.3586940765,83.9732742310,-145.7358398438,0.0174222589,0.0226615965,0.0218501687,42.7885627747,43.2336349487,-176.0795593262,0.0682757497,-0.0082006752,-0.0079265833,
285.303,-3.2981505394,1.4148052931,32.5072402954,0.0593584701,0.0443307050,0.0117278695,-69.0673522949,76.3122406006,107.3982162476,0.0936700106,0.0754066408,-0.0150513053,-17.5663032532,83.9708709717,-145.9273834229,0.0315780044,0.0171849728,0.0189964175,42.7935714722,43.2262687683,-176.0619201660,0.0642758012,-0.0151431262,-0.0016000867,
285.313,-3.2981402874,1.4149644375,32.5083465576,0.0618026555,0.0423773862,0.0102630854,-67.5352172852,76.2934494019,108.7580947876,0.0882212520,0.0889703184,-0.0196076035,-17.7212619781,83.9705429077,-146.0668792725,0.0315774083,0.0208803415,0.0195684433,42.7966117859,43.2171859741,-176.0481719971,0.0744141936,-0.0093858540,-0.0001885295,
285.323,-3.2986304760,1.4143627882,32.5094680786,0.0642335638,0.0428742208,0.0039151907,-65.9135360718,76.2866973877,110.1901931763,0.0794042945,0.1030100584,-0.0102118254,-17.8400096893,83.9696044922,-146.1742706299,0.0286459923,0.0167025626,0.0196191072,42.7981681824,43.2115249634,-176.0375366211,0.0767835975,-0.0128642023,-0.0041309595,
285.333,-3.2977473736,1.4116220474,32.5107231140,0.0632091835,0.0433471948,0.0053782463,-64.2336120605,76.2832794189,111.6718521118,0.0720658898,0.0996276438,-0.0077731609,-17.9084339142,83.9713592529,-146.2327575684,0.0232781172,0.0260926187,0.0148035288,42.8004341125,43.2081794739,-176.0266571045,0.0723465085,-0.0134009123,-0.0002345443,
285.343,-3.2957158089,1.4113951921,32.5106658936,0.0607638173,0.0452649370,0.0102589130,-62.5210342407,76.2731246948,113.1783828735,0.0700707436,0.0956088901,-0.0029790401,-17.9736404419,83.9702835083,-146.2900390625,0.0179050565,0.0301195085,0.0324053764,42.8100128174,43.2040443420,-176.0083923340,0.0683876276,-0.0125472844,-0.0060475469,
285.353,-3.2953591347,1.4113770723,32.5112113953,0.0597869381,0.0437938683,-0.0004834533,-60.8244781494,76.2518463135,114.6611633301,0.0734004974,0.0891524553,-0.0069184303,-18.1197052002,83.9729843140,-146.4252929688,0.0154685974,0.0293896794,0.0237391591,42.8275871277,43.1956214905,-175.9853057861,0.0658390522,0.0013804436,-0.0059690475,
285.363,-3.2958266735,1.4093925953,32.5111694336,0.0646351278,0.0408723801,0.0063519478,-59.1167182922,76.2168960571,116.1337814331,0.0771616101,0.0792591274,-0.0094674230,-18.3249568939,83.9756851196,-146.6160125732,0.0130321383,0.0272971988,0.0243945122,42.8464469910,43.1864318848,-175.9596862793,0.0583979487,-0.0017999411,-0.0063747168,
285.373,-3.2970623970,1.4083958864,32.5135307312,0.0616880506,0.0379642472,0.0068411231,-57.3895339966,76.1749572754,117.6028213501,0.0804049373,0.0872877538,-0.0189055204,-18.5615272522,83.9763031006,-146.8373870850,0.0149863958,0.0247836411,0.0235666633,42.8642349243,43.1739883423,-175.9329528809,0.0660520792,-0.0059732795,-0.0068180561,
285.383,-3.2966966629,1.4094604254,32.5164108276,0.0636597425,0.0433289483,0.0200247765,-55.6199722290,76.1253128052,119.1157226563,0.0850803256,0.1034173369,-0.0060208440,-18.7852115631,83.9779281616,-147.0465393066,0.0228018761,0.0261472762,0.0183545947,42.8796463013,43.1613006592,-175.9076538086,0.0678436756,-0.0101263225,0.0019938946,
285.393,-3.2993421555,1.4093579054,32.5163002014,0.0602399893,0.0375156552,0.0078202486,-53.8293457031,76.0688095093,120.6583328247,0.0853316784,0.1081385612,-0.0176025033,-19.0039062500,83.9787750244,-147.2487030029,0.0218268633,0.0216459334,0.0233837962,42.8914070129,43.1509590149,-175.8863677979,0.0711300373,-0.0191090703,-0.0058072209,
285.403,-3.3007125854,1.4093861580,32.5192108154,0.0646350086,0.0438871831,0.0063568950,-51.9783592224,75.9960174561,122.2728958130,0.0879547000,0.1102524400,-0.0050497055,-19.1796207428,83.9766921997,-147.4091033936,0.0306121111,0.0205030739,0.0302923918,42.8956680298,43.1413917542,-175.8708801270,0.0729612708,-0.0172736049,-0.0048778057,
285.413,-3.3017930984,1.4078247547,32.5198173523,0.0611898005,0.0429294817,0.0078220963,-50.0540618896,75.9068679810,123.9653854370,0.0905066729,0.1126170158,0.0052278638,-19.2973594666,83.9753646851,-147.5126037598,0.0281682611,0.0221831799,0.0181359053,42.8975830078,43.1340827942,-175.8591461182,0.0738447309,-0.0173506439,0.0014234185,
285.423,-3.3027863503,1.4097990990,32.5208473206,0.0597594045,0.0409936048,0.0112417936,-48.0696067810,75.8046646118,125.7064132690,0.0881176591,0.1029782593,0.0030586720,-19.3753051758,83.9748077393,-147.5785064697,0.0325617790,0.0174404681,0.0171999931,42.8991050720,43.1301918030,-175.8491058350,0.0757483244,-0.0134903193,0.0009132028,
285.433,-3.3025016785,1.4114948511,32.5207061768,0.0583241507,0.0434300154,0.0107542276,-46.0557785034,75.6912460327,127.4593658447,0.0856772065,0.1033411622,0.0002890229,-19.4526138306,83.9751663208,-147.6427764893,0.0237733722,0.0229460001,0.0201825500,42.9054832458,43.1298828125,-175.8328247070,0.0659787655,-0.0076929033,-0.0009864569,
285.443,-3.2994933128,1.4125795364,32.5224571228,0.0607844740,0.0507017933,0.0087980628,-44.0642471313,75.5708618164,129.1798248291,0.0836909413,0.1020774990,-0.0194714665,-19.5462760925,83.9752655029,-147.7241668701,0.0237735510,0.0231103599,0.0334261060,42.9166030884,43.1273651123,-175.8122711182,0.0615521669,-0.0097702146,-0.0028652549,
285.453,-3.2982211113,1.4125146866,32.5230407715,0.0583419427,0.0467733927,0.0156335235,-42.0961112976,75.4380798340,130.8760833740,0.0875054002,0.1021829844,-0.0201542974,-19.6950550079,83.9779968262,-147.8554534912,0.0169426203,0.0297044218,0.0325856209,42.9345283508,43.1189079285,-175.7859802246,0.0638858080,-0.0036587119,-0.0032724738,
285.463,-3.2985537052,1.4145867825,32.5260086060,0.0554484129,0.0453142859,0.0097744465,-40.1690635681,75.2936172485,132.5228118896,0.0893098116,0.0866162032,-0.0202628970,-19.9264755249,83.9807281494,-148.0687408447,0.0135296583,0.0266768634,0.0264292359,42.9588584900,43.1082992554,-175.7525939941,0.0554499030,-0.0015302896,-0.0031530261,
285.473,-3.2989766598,1.4147217274,32.5265579224,0.0574038886,0.0409271196,0.0083107948,-38.2313041687,75.1404800415,134.1477966309,0.1003465652,0.0717671663,-0.0233294368,-20.2044181824,83.9805068970,-148.3279876709,0.0193886161,0.0242364109,0.0295309424,42.9781723022,43.0942993164,-175.7216491699,0.0640605092,-0.0091485083,-0.0011548996,
285.483,-3.2996544838,1.4154911041,32.5282592773,0.0593704358,0.0380092226,-0.0019429922,-36.2805137634,74.9772262573,135.7634735107,0.1054713130,0.0820423365,-0.0308377147,-20.4694004059,83.9803390503,-148.5741882324,0.0208531618,0.0271417499,0.0189605355,42.9945106506,43.0807304382,-175.6940460205,0.0624226928,-0.0123409033,-0.0084553957,
285.493,-3.2993009090,1.4146264791,32.5299949646,0.0632615983,0.0414210521,0.0073344111,-34.3257293701,74.7902145386,137.3959197998,0.0997373462,0.1063582003,-0.0190212131,-20.7261791229,83.9805374146,-148.8134155273,0.0237832069,0.0256369710,0.0210824609,43.0067367554,43.0683860779,-175.6695404053,0.0720309615,-0.0198794603,-0.0074800253,
285.503,-3.3018727303,1.4106172323,32.5288314819,0.0651447773,0.0400011055,0.0087996125,-32.4074134827,74.5820236206,139.0306549072,0.0816878080,0.1311450601,-0.0224158168,-20.9481220245,83.9793624878,-149.0190277100,0.0267107487,0.0274960399,0.0221880674,43.0229339600,43.0545578003,-175.6441802979,0.0689249635,-0.0103772879,-0.0074595213,
285.513,-3.2992827892,1.4091962576,32.5288238525,0.0607254505,0.0428857207,0.0122146010,-30.5430641174,74.3425674438,140.6716003418,0.0913105011,0.1321323216,-0.0147715211,-21.2194194794,83.9809646606,-149.2733459473,0.0252488256,0.0225880146,0.0219061375,43.0423431396,43.0418548584,-175.6140441895,0.0614387393,-0.0170091093,-0.0142368078,
285.523,-3.2985556126,1.4097689390,32.5292930603,0.0622002855,0.0428730324,0.0053783655,-28.7535095215,74.0778808594,142.2698364258,0.1100729704,0.1112924665,-0.0194147229,-21.5184898376,83.9832687378,-149.5578002930,0.0203702450,0.0196751952,0.0197053552,43.0606575012,43.0232315063,-175.5872497559,0.0734081864,-0.0119601786,-0.0005676746,
285.533,-3.2984285355,1.4108116627,32.5304374695,0.0563591048,0.0428708009,0.0039138794,-26.9734020233,73.7969970703,143.8351745605,0.1223884821,0.0848719478,-0.0236847401,-21.7846508026,83.9775085449,-149.8094329834,0.0140120387,0.0231025815,0.0266340971,43.0830345154,43.0080757141,-175.5592041016,0.0688202381,-0.0078975558,-0.0092933178,
285.543,-3.3000853062,1.4126653671,32.5309677124,0.0534617603,0.0409464799,0.0058693886,-25.1759986877,73.5119552612,145.3703308105,0.1156172752,0.0819436088,-0.0347740054,-22.0195922852,83.9776687622,-150.0286865234,0.0247545242,0.0269272029,0.0238687992,43.1005058289,42.9919013977,-175.5348968506,0.0686137676,-0.0111216307,-0.0053753853,
285.553,-3.2997853756,1.4135324955,32.5332984924,0.0593362674,0.0433826447,0.0034280419,-23.3487739563,73.2183914185,146.8898468018,0.1131739616,0.0834250897,-0.0415285826,-22.2560749054,83.9754257202,-150.2538299561,0.0237738490,0.0263738632,0.0298600197,43.1190567017,42.9763374329,-175.5081024170,0.0654853582,-0.0040968657,-0.0019304752,
285.563,-3.3002607822,1.4129776955,32.5344848633,0.0598148629,0.0429026596,0.0044048429,-21.5129261017,72.9170608521,148.3929138184,0.1106656790,0.1006201133,-0.0468001962,-22.4985904694,83.9782943726,-150.4850158691,0.0164548755,0.0306809247,0.0183569193,43.1361198425,42.9630203247,-175.4820404053,0.0623856187,-0.0112001896,-0.0028737783,
285.573,-3.2999992371,1.4135054350,32.5356636047,0.0559178218,0.0433863737,0.0004987717,-19.6899242401,72.6050796509,149.8886260986,0.1183293462,0.1238737702,-0.0403285027,-22.7853393555,83.9773788452,-150.7584381104,0.0228008628,0.0223918557,0.0205023289,43.1517105103,42.9493751526,-175.4573669434,0.0612347126,-0.0158511400,-0.0004147291,
285.583,-3.3019392490,1.4135075808,32.5392494202,0.0603123903,0.0419553183,-0.0009644628,-17.9152317047,72.2754135132,151.3644409180,0.1204996705,0.1363045871,-0.0319201946,-23.0914573669,83.9762725830,-151.0527648926,0.0184043050,0.0297620893,0.0226597190,43.1718368530,42.9321022034,-175.4307556152,0.0624789000,-0.0117846131,-0.0052713752,
285.593,-3.3022675514,1.4120339155,32.5397834778,0.0651694909,0.0434259214,0.0078244209,-16.1994247437,71.9236373901,152.7997283936,0.1357024312,0.1184555292,-0.0314036012,-23.3996829987,83.9727554321,-151.3506927490,0.0266986489,0.0215258598,0.0194138288,43.1914176941,42.9137115479,-175.4051666260,0.0700563192,-0.0135815144,-0.0081890821,
285.603,-3.3031039238,1.4133290052,32.5420417786,0.0603092760,0.0370927975,0.0131968856,-14.5103702545,71.5559616089,154.2116546631,0.1336917281,0.1282321811,-0.0304361582,-23.6891021729,83.9705123901,-151.6268463135,0.0252296925,0.0244781077,0.0181308389,43.2160034180,42.8981819153,-175.3743133545,0.0742523670,-0.0129604340,-0.0168973207,
285.613,-3.3028075695,1.4146913290,32.5443916321,0.0578916371,0.0453883857,0.0122206211,-12.8848886490,71.1711502075,155.5694732666,0.1354517341,0.1248190403,-0.0382644534,-23.9653472900,83.9698638916,-151.8892669678,0.0183925629,0.0269088149,0.0202807188,43.2342681885,42.8793067932,-175.3481140137,0.0730344057,-0.0064482689,-0.0012758970,
285.623,-3.3015508652,1.4159076214,32.5448417664,0.0598659888,0.0404836498,0.0029425025,-11.3395509720,70.7702331543,156.8636627197,0.1409827471,0.1302874088,-0.0504696965,-24.2498092651,83.9650573730,-152.1587371826,0.0247313976,0.0235214233,0.0282364488,43.2590103149,42.8628158569,-175.3153076172,0.0679406524,-0.0024183989,-0.0099904537,
285.633,-3.3002915382,1.4155116081,32.5478820801,0.0574176684,0.0424148440,0.0019644499,-9.8864164352,70.3479843140,158.0771484375,0.1443892717,0.1120247394,-0.0407736301,-24.5513553619,83.9611511230,-152.4429321289,0.0178883076,0.0260160267,0.0279205441,43.2796745300,42.8469810486,-175.2827148438,0.0618786216,-0.0125055313,-0.0070165992,
285.643,-3.2984666824,1.4140834808,32.5489959717,0.0671583712,0.0423830971,0.0048917532,-8.4727439880,69.9124755859,159.2472076416,0.1315518618,0.1024311483,-0.0462244153,-24.8382015228,83.9558029175,-152.7117614746,0.0217847228,0.0250776112,0.0295265913,43.3008842468,42.8285827637,-175.2504730225,0.0684791207,-0.0099230409,-0.0055240989,
285.653,-3.2979569435,1.4153612852,32.5519599915,0.0559502020,0.0418859087,0.0053802729,-7.0881628990,69.4608459473,160.3805847168,0.1297920346,0.1038960889,-0.0429514647,-25.1554203033,83.9516220093,-153.0102996826,0.0203121901,0.0232050419,0.0228778720,43.3200035095,42.8114013672,-175.2204895020,0.0653295517,-0.0146355033,-0.0108758211,
285.663,-3.2960870266,1.4136729240,32.5544281006,0.0617801212,0.0467361920,0.0014709830,-5.7137136459,68.9920654297,161.4939880371,0.1390972137,0.1016527861,-0.0461169481,-25.4756107330,83.9470520020,-153.3111114502,0.0173740983,0.0218285024,0.0215985179,43.3423919678,42.7946281433,-175.1885833740,0.0577905178,-0.0110742450,-0.0078938007,
285.673,-3.2963740826,1.4116230011,32.5550422668,0.0627209172,0.0457646810,0.0029359460,-4.3827524185,68.5079650879,162.5666656494,0.1404294968,0.1110378280,-0.0488273501,-25.8109874725,83.9424514771,-153.6304321289,0.0129711032,0.0282896161,0.0227761269,43.3614082336,42.7738456726,-175.1593017578,0.0609422326,-0.0158151388,0.0013715625,
285.683,-3.2959034443,1.4111320972,32.5568466187,0.0597826615,0.0418502353,0.0063521862,-3.0959725380,68.0111236572,163.6019592285,0.1455183029,0.1232716441,-0.0559285879,-26.1790103912,83.9345321655,-153.9836883545,0.0173510313,0.0250636339,0.0278419852,43.3877105713,42.7514572144,-175.1259765625,0.0572373867,-0.0059884787,-0.0059141517,
285.693,-3.2963781357,1.4111155272,32.5561408997,0.0597823709,0.0408819467,0.0068417788,-1.8724958897,67.4987716675,164.5995941162,0.1455510259,0.1248225272,-0.0493962169,-26.5541343689,83.9264221191,-154.3447265625,0.0183126330,0.0262465775,0.0309587121,43.4089050293,42.7260627747,-175.0958557129,0.0603298545,-0.0127401352,-0.0020394325,
285.703,-3.2960662842,1.4094674587,32.5561065674,0.0636598691,0.0413648374,0.0117231607,-0.7186592221,66.9743194580,165.5489807129,0.1478686929,0.1142857373,-0.0555551648,-26.9721260071,83.9189071655,-154.7441864014,0.0222049952,0.0211475790,0.0248522758,43.4331207275,42.7021713257,-175.0619049072,0.0624649525,-0.0185312033,-0.0069144368,
285.713,-3.2966327667,1.4082541466,32.5578918457,0.0626621395,0.0423512980,0.0161180496,0.3822303712,66.4393157959,166.4536285400,0.1563833356,0.1062176898,-0.0675583482,-27.4026794434,83.9082489014,-155.1569671631,0.0275563598,0.0204887688,0.0284783840,43.4581756592,42.6726570129,-175.0270080566,0.0659924746,-0.0116804242,-0.0010867715,
285.723,-3.2970955372,1.4066164494,32.5578041077,0.0655632466,0.0408945531,0.0063521862,1.4302691221,65.8863677979,167.3111572266,0.1642018557,0.1060046405,-0.0562347174,-27.8138637543,83.8974151611,-155.5486297607,0.0143526793,0.0271215439,0.0262349844,43.4839744568,42.6418266296,-174.9910888672,0.0690147281,-0.0097302794,0.0047351122,
285.733,-3.2971293926,1.4056297541,32.5602188110,0.0616397783,0.0443131365,0.0063518286,2.4169890881,65.3252563477,168.1271667480,0.1699227691,0.1073802784,-0.0600134730,-28.2615451813,83.8918304443,-155.9774322510,0.0182485580,0.0293796360,0.0177581310,43.5163879395,42.6139526367,-174.9491882324,0.0667036772,-0.0117237568,-0.0103531480,
285.743,-3.2973926067,1.4052299261,32.5613555908,0.0635859296,0.0457825772,0.0053749681,3.3309135437,64.7675552368,168.8950042725,0.1716756821,0.0982591063,-0.0689657331,-28.7329483032,83.8813400269,-156.4281463623,0.0216470361,0.0234134197,0.0282819271,43.5507659912,42.5831680298,-174.9054107666,0.0672847033,-0.0122946501,-0.0112900734,
285.753,-3.2986001968,1.4035439491,32.5606765747,0.0635565147,0.0404325575,0.0087940693,4.2114324570,64.2161178589,169.6387176514,0.1831560135,0.0930331573,-0.0840212107,-29.2304000854,83.8718261719,-156.9109039307,0.0079574585,0.0204117298,0.0178545713,43.5807495117,42.5516204834,-174.8659820557,0.0576018691,-0.0196664929,-0.0020163059,
285.763,-3.2979524136,1.4019181728,32.5613136292,0.0610867441,0.0448158495,-0.0014621019,5.0887284279,63.6725578308,170.3681793213,0.1911960244,0.1017483100,-0.1027023196,-29.7223014832,83.8573532104,-157.3918151855,0.0318562388,0.0179302990,0.0263984203,43.6099128723,42.5180702209,-174.8319549561,0.0703539848,-0.0187461972,0.0082097054,
285.773,-3.2976241112,1.4002059698,32.5624732971,0.0664279610,0.0477398597,0.0151391029,5.9301862717,63.1271133423,171.0577850342,0.1888865232,0.0997533053,-0.0905136466,-30.1530189514,83.8442840576,-157.8136444092,0.0210896134,0.0290058553,0.0261279941,43.6401786804,42.4880218506,-174.7977752686,0.0694791079,-0.0207374096,-0.0044732690,
285.783,-3.2969372272,1.4013233185,32.5642547607,0.0542404279,0.0404036455,0.0092790723,6.7360291481,62.5706100464,171.7143402100,0.1991026402,0.1270860136,-0.0842248201,-30.5382995605,83.8291168213,-158.1897125244,0.0235025883,0.0380725563,0.0355527997,43.6739959717,42.4604034424,-174.7586364746,0.0652172565,-0.0095583797,-0.0097795725,
285.793,-3.2985951900,1.4034010172,32.5646667480,0.0591594875,0.0409207605,0.0078171492,7.4275708199,62.0046463013,172.3021240234,0.1793723702,0.1009045541,-0.0878064632,-30.9470500946,83.8103637695,-158.5868530273,0.0249322057,0.0169349909,0.0273790359,43.7040939331,42.4311408997,-174.7224426270,0.0706997514,-0.0100767016,-0.0073189735,
285.803,-3.2976138592,1.4035329819,32.5651435852,0.0635563284,0.0438333489,0.0004919767,8.0908803940,61.4301376343,172.8706207275,0.2000119686,0.1030645445,-0.0894575715,-31.3484840393,83.7984085083,-158.9736633301,0.0336987376,0.0255132914,0.0207648277,43.7323379517,42.4006996155,-174.6871643066,0.0664012432,-0.0140054226,-0.0034204125,
285.813,-3.2970755100,1.4039894342,32.5674858093,0.0586814769,0.0399177074,0.0048860312,8.7288064957,60.8576393127,173.4188690186,0.2030022740,0.0974441096,-0.0826715827,-31.7855129242,83.7849121094,-159.3954772949,0.0209779739,0.0200009942,0.0219873786,43.7656173706,42.3726119995,-174.6474151611,0.0645743608,-0.0150322318,-0.0097103119,
285.823,-3.2981383801,1.4047232866,32.5686378479,0.0577177145,0.0428658873,0.0126999617,9.3333082199,60.2962150574,173.9361419678,0.1986769438,0.0944023803,-0.0849070549,-32.2458953857,83.7725067139,-159.8422698975,0.0038646460,0.0340502262,0.0237402916,43.8061408997,42.3354911804,-174.6010437012,0.0680018067,-0.0083873272,0.0030320287,
285.833,-3.3017880917,1.4041506052,32.5691947937,0.0577077270,0.0360935442,0.0073322058,9.9099845886,59.7477874756,174.4358825684,0.2036597729,0.1119828671,-0.0946745872,-32.7900199890,83.7570343018,-160.3717193604,0.0126243830,0.0258002579,0.0270129442,43.8540382385,42.2988929749,-174.5484313965,0.0582521558,-0.0135256648,-0.0071039796,
285.843,-3.3000991344,1.4044144154,32.5703125000,0.0635717064,0.0482711531,0.0097720623,10.4296474457,59.2172431946,174.9028167725,0.2043288350,0.1045754701,-0.1100062132,-33.3901786804,83.7386550903,-160.9567565918,0.0140542984,0.0259683728,0.0298256874,43.9057769775,42.2561378479,-174.4916381836,0.0660008192,-0.0177732110,-0.0026076436,
285.853,-3.2983932495,1.4015977383,32.5709419250,0.0654756799,0.0462883785,0.0048864484,10.8820142746,58.7003631592,175.3336791992,0.2167668343,0.0996330157,-0.1139124632,-34.0297698975,83.7213668823,-161.5842285156,0.0203689933,0.0296066999,0.0122020841,43.9584655762,42.2193069458,-174.4346008301,0.0284155607,-0.0141689181,0.0126901865,
285.863,-3.2992677689,1.3993804455,32.5727996826,0.0595776215,0.0370263271,0.0117219090,11.2912330627,58.1957550049,175.7375640869,0.2321778536,0.1086820588,-0.1278769374,-34.6789398193,83.6958389282,-162.2209167480,0.0242264271,0.0221075118,0.0296452045,44.0091094971,42.1749534607,-174.3785247803,0.0678811073,-0.0096300244,-0.0062717795,
285.873,-3.2986817360,1.3991341591,32.5733566284,0.0585967600,0.0423872136,0.0039094687,11.6582965851,57.6932792664,176.1238250732,0.2241054177,0.1175430045,-0.1227595210,-35.1928215027,83.6747207642,-162.7204284668,0.0339515209,0.0324139297,0.0284612179,44.0555114746,42.1310157776,-174.3261260986,0.0731719732,-0.0128608942,-0.0062249303,
285.883,-3.2998273373,1.3990491629,32.5744895935,0.0605484024,0.0404540449,0.0112341642,11.9729375839,57.1896667480,176.4875946045,0.2154688835,0.1121568829,-0.1176803708,-35.6856536865,83.6539916992,-163.1956939697,0.0285404921,0.0280346572,0.0272693634,44.1021003723,42.0916404724,-174.2728576660,0.0760800838,-0.0136148334,-0.0124835968,
285.893,-3.2975542545,1.4002730846,32.5756683350,0.0556869432,0.0482269190,0.0024436712,12.2502355576,56.6872215271,176.8429870605,0.2136145830,0.1207289249,-0.1282123923,-36.1690597534,83.6309585571,-163.6631469727,0.0236131549,0.0212238133,0.0260425806,44.1463394165,42.0548171997,-174.2206115723,0.0756030083,-0.0094434023,-0.0094642639,
285.903,-3.2964236736,1.4012287855,32.5780258179,0.0571684651,0.0418595485,0.0122084618,12.4721488953,56.1822433472,177.1728363037,0.2063003182,0.1033936664,-0.1075782776,-36.6395416260,83.6102371216,-164.1136779785,0.0206432939,0.0290169716,0.0302151442,44.1903343201,42.0170745850,-174.1654815674,0.0643715858,-0.0043003559,0.0018477440,
285.913,-3.2959082127,1.4006887674,32.5779991150,0.0596004501,0.0442919880,0.0068365932,12.6664218903,55.6841201782,177.4948272705,0.2190085053,0.1092504412,-0.1185835004,-37.1755142212,83.5901718140,-164.6291809082,0.0147448778,0.0266530514,0.0266724825,44.2352790833,41.9768409729,-174.1077728271,0.0614083409,-0.0109053850,-0.0000358820,
285.923,-3.2954056263,1.3983987570,32.5798530579,0.0639550239,0.0462364107,0.0068351626,12.8145847321,55.1988372803,177.7984771729,0.2200634480,0.1057938039,-0.1216400266,-37.7481155396,83.5694046021,-165.1794738770,0.0103098154,0.0248416066,0.0226882696,44.2870178223,41.9344139099,-174.0449676514,0.0657404661,-0.0117318034,-0.0033391714,
285.933,-3.2954194546,1.3984138966,32.5797767639,0.0600490347,0.0423304029,0.0141593814,12.9143695831,54.7300758362,178.0853271484,0.2217142582,0.0974690020,-0.1284317970,-38.3673171997,83.5436248779,-165.7753601074,0.0253960490,0.0221787989,0.0270077586,44.3408279419,41.8913764954,-173.9796142578,0.0607869625,-0.0140472651,-0.0041861534,
285.943,-3.2938704491,1.3998265266,32.5809097290,0.0571439974,0.0457213521,0.0019514561,12.9699707031,54.2724761963,178.3470153809,0.2331898212,0.0808159709,-0.1287787557,-38.9701194763,83.5184936523,-166.3549346924,0.0170458555,0.0263179839,0.0249847770,44.3930244446,41.8449287415,-173.9154815674,0.0694606304,-0.0124692917,-0.0055637360,
285.953,-3.2920322418,1.3975914717,32.5821914673,0.0614995286,0.0466659553,0.0068310499,13.0198431015,53.8218383789,178.5962066650,0.2471267581,0.0759575069,-0.1368159652,-39.5265159607,83.4902725220,-166.8881225586,0.0252909064,0.0260235071,0.0282481909,44.4444503784,41.8012847900,-173.8511962891,0.0742640495,-0.0103729367,-0.0020402074,
285.963,-3.2948899269,1.3978949785,32.5826492310,0.0610165447,0.0389032215,0.0058582425,13.0804872513,53.3762702942,178.8498535156,0.2415353060,0.0827220827,-0.1369085312,-40.0055618286,83.4632492065,-167.3448944092,0.0257256031,0.0226659477,0.0270475745,44.4885520935,41.7591400146,-173.7918090820,0.0834811330,-0.0179618001,-0.0000343919,
285.973,-3.2955658436,1.3958880901,32.5832824707,0.0629346520,0.0442861430,0.0126930475,13.1266708374,52.9260101318,179.1000061035,0.2343811393,0.0964514464,-0.1204583049,-40.4452781677,83.4422531128,-167.7610778809,0.0251955390,0.0309016407,0.0224649310,44.5352020264,41.7252655029,-173.7324676514,0.0732743740,-0.0142765045,-0.0086783171,
285.983,-3.2942767143,1.3940639496,32.5838546753,0.0643676668,0.0447520129,0.0107386708,13.1521739960,52.4763832092,179.3504180908,0.2149773240,0.1030713618,-0.1196361184,-40.8908996582,83.4223937988,-168.1788940430,0.0232027769,0.0288785994,0.0237743855,44.5884208679,41.6914176941,-173.6618499756,0.0869935751,-0.0174877644,-0.0138425827,
285.993,-3.2932000160,1.3939031363,32.5849609375,0.0648531467,0.0461981073,0.0043894053,13.1312246323,52.0215606689,179.5753936768,0.2218360901,0.0823320150,-0.1052877307,-41.3805427551,83.4002761841,-168.6435241699,0.0143694282,0.0303660929,0.0270755887,44.6439247131,41.6580924988,-173.5910034180,0.0587270260,-0.0133918524,-0.0077505112,
286.003,-3.2956850529,1.3944549561,32.5872497559,0.0604682416,0.0379405953,0.0043923855,13.1106071472,51.5676155090,179.7696685791,0.2320727110,0.0464684963,-0.0947960615,-41.9074935913,83.3730926514,-169.1403503418,0.0104085207,0.0300156176,0.0406260490,44.7028083801,41.6150741577,-173.5143585205,0.0581659079,-0.0059880614,0.0026886463,
286.013,-3.2946195602,1.3972145319,32.5895500183,0.0551452935,0.0437813438,0.0126933455,13.1106748581,51.1256141663,179.9438018799,0.2331137061,0.0455904305,-0.1065183282,-42.4645271301,83.3452682495,-169.6679229736,0.0137703419,0.0302053392,0.0327402353,44.7699699402,41.5677833557,-173.4335327148,0.0624314547,-0.0016254783,0.0029167533,
286.023,-3.2929334641,1.3969144821,32.5900459290,0.0634408444,0.0417988561,0.0141564012,13.1329936981,50.6876983643,-179.8875885010,0.2263409495,0.0581654012,-0.0990526080,-43.0869941711,83.3126449585,-170.2600555420,0.0093096495,0.0334787071,0.0307604074,44.8359146118,41.5174026489,-173.3494262695,0.0598201752,-0.0138781071,0.0001801848,
286.033,-3.2915928364,1.3973780870,32.5918006897,0.0585661232,0.0427520536,0.0058543086,13.1552772522,50.2495880127,-179.7314910889,0.2312396169,0.0551191419,-0.0974118710,-43.7238349915,83.2740402222,-170.8640747070,0.0102075338,0.0265896618,0.0321636796,44.9024276733,41.4669761658,-173.2626953125,0.0523250103,-0.0158824325,0.0052633286,
286.043,-3.2907719612,1.3988357782,32.5941810608,0.0551735871,0.0451791249,0.0043891668,13.1981840134,49.8190116882,-179.5756835938,0.2283656001,0.0557799041,-0.1141374111,-44.4249191284,83.2321243286,-171.5356140137,0.0164692402,0.0203239322,0.0263185501,44.9723396301,41.4085922241,-173.1760711670,0.0593736172,-0.0121235847,0.0059204698,
286.053,-3.2922265530,1.3990094662,32.5958557129,0.0615242720,0.0373919606,0.0004847050,13.2623500824,49.3916206360,-179.4105682373,0.2308558226,0.0752581805,-0.1204751134,-45.1090965271,83.1878128052,-172.1915740967,0.0178426504,0.0252936482,0.0277667642,45.0482101440,41.3495521545,-173.0843505859,0.0620183945,-0.0108663440,-0.0055766106,
